time,ax,ay,az,atotal
2022-11-11 12:35:24.4750,-0.14,0.02,0.03,0.14
2022-11-11 12:35:24.4830,-0.34,0.05,0.04,0.34
2022-11-11 12:35:24.4870,-0.23,0.1,-0.01,0.25
2022-11-11 12:35:24.4970,-0.01,0.02,-0.02,0.03
2022-11-11 12:35:24.5010,0.12,-0.06,0.0,0.13
2022-11-11 12:35:24.5130,0.21,-0.03,0.0,0.21
2022-11-11 12:35:24.5170,0.1,0.0,-0.01,0.1
2022-11-11 12:35:24.5290,0.08,0.04,0.01,0.09
2022-11-11 12:35:24.5330,0.19,0.07,-0.04,0.2
2022-11-11 12:35:24.5460,0.01,0.07,-0.09,0.11
2022-11-11 12:35:24.6020,-0.07,0.12,-0.13,0.19
2022-11-11 12:35:24.6050,-0.02,0.12,0.04,0.12
2022-11-11 12:35:24.6140,-0.08,0.05,0.15,0.17
2022-11-11 12:35:24.6180,-0.12,-0.06,0.05,0.14
2022-11-11 12:35:24.6300,-0.53,-0.23,-0.4,0.7
2022-11-11 12:35:24.6340,0.24,0.06,0.01,0.24
2022-11-11 12:35:24.6460,0.27,0.21,-0.14,0.36
2022-11-11 12:35:24.6500,-0.1,0.15,-0.03,0.18
2022-11-11 12:35:24.6630,0.04,0.05,0.11,0.12
2022-11-11 12:35:24.6660,-0.05,-0.14,0.25,0.29
2022-11-11 12:35:24.7220,-0.21,-0.16,0.26,0.37
2022-11-11 12:35:24.7260,-0.23,-0.12,0.18,0.31
2022-11-11 12:35:24.7310,-0.05,-0.13,0.06,0.15
2022-11-11 12:35:24.7350,0.35,-0.11,0.03,0.36
2022-11-11 12:35:24.7470,0.62,-0.04,-0.07,0.62
2022-11-11 12:35:24.7500,0.67,0.11,-0.29,0.73
2022-11-11 12:35:24.7620,0.82,0.42,-0.38,0.99
2022-11-11 12:35:24.7660,-0.05,0.11,-0.24,0.26
2022-11-11 12:35:24.7800,-0.13,0.13,-0.04,0.18
2022-11-11 12:35:24.7840,-0.16,0.12,0.09,0.21
2022-11-11 12:35:24.8430,-0.35,0.0,0.15,0.38
2022-11-11 12:35:24.8470,-0.39,-0.1,0.21,0.45
2022-11-11 12:35:24.8650,-0.33,-0.21,0.13,0.41
2022-11-11 12:35:24.8690,-0.19,-0.16,0.07,0.25
2022-11-11 12:35:24.8810,0.04,0.01,-0.02,0.04
2022-11-11 12:35:24.8850,0.25,0.08,-0.16,0.3
2022-11-11 12:35:24.8960,0.3,0.05,-0.23,0.38
2022-11-11 12:35:24.9000,0.36,0.05,-0.17,0.4
2022-11-11 12:35:24.9130,0.24,0.04,-0.03,0.24
2022-11-11 12:35:24.9170,0.19,0.01,0.07,0.2
2022-11-11 12:35:24.9770,0.1,-0.05,0.11,0.15
2022-11-11 12:35:24.9810,-0.16,-0.08,0.09,0.2
2022-11-11 12:35:24.9980,-0.29,-0.04,0.1,0.3
2022-11-11 12:35:25.0020,-0.31,0.03,0.11,0.33
2022-11-11 12:35:25.0140,-0.22,0.06,0.06,0.23
2022-11-11 12:35:25.0190,0.0,0.11,-0.06,0.12
2022-11-11 12:35:25.0290,0.11,0.1,-0.09,0.17
2022-11-11 12:35:25.0320,0.25,0.05,-0.05,0.25
2022-11-11 12:35:25.0460,0.22,-0.04,-0.03,0.22
2022-11-11 12:35:25.0490,-0.02,-0.07,0.03,0.07
2022-11-11 12:35:25.1070,-0.11,-0.03,0.09,0.14
2022-11-11 12:35:25.1120,-0.1,0.02,0.1,0.14
2022-11-11 12:35:25.1170,0.01,0.05,0.03,0.05
2022-11-11 12:35:25.1290,-0.02,0.07,0.03,0.07
2022-11-11 12:35:25.1320,-0.14,0.02,0.08,0.16
2022-11-11 12:35:25.1450,0.05,-0.1,0.04,0.11
2022-11-11 12:35:25.1480,0.11,-0.07,0.01,0.13
2022-11-11 12:35:25.1620,0.11,0.01,-0.04,0.11
2022-11-11 12:35:25.1650,0.16,-0.02,0.0,0.16
2022-11-11 12:35:25.1780,0.11,-0.04,0.11,0.16
2022-11-11 12:35:25.2330,0.05,0.02,0.09,0.1
2022-11-11 12:35:25.2360,0.08,0.02,0.05,0.09
2022-11-11 12:35:25.2460,-0.02,0.02,0.14,0.14
2022-11-11 12:35:25.2490,-0.07,0.08,0.2,0.22
2022-11-11 12:35:25.2630,0.07,0.06,0.13,0.15
2022-11-11 12:35:25.2660,0.16,-0.01,0.04,0.16
2022-11-11 12:35:25.2780,0.03,-0.01,0.0,0.03
2022-11-11 12:35:25.2810,-0.25,-0.01,0.06,0.25
2022-11-11 12:35:25.2950,-0.29,-0.04,0.08,0.3
2022-11-11 12:35:25.2980,-0.3,-0.03,-0.03,0.3
2022-11-11 12:35:25.3550,-0.68,0.02,-0.04,0.68
2022-11-11 12:35:25.3580,-0.64,0.14,-0.07,0.65
2022-11-11 12:35:25.3640,-0.05,0.24,-0.26,0.35
2022-11-11 12:35:25.3670,0.16,0.13,-0.28,0.34
2022-11-11 12:35:25.3790,0.16,0.03,-0.24,0.29
2022-11-11 12:35:25.3820,0.23,-0.04,-0.09,0.25
2022-11-11 12:35:25.3950,0.2,-0.05,0.07,0.21
2022-11-11 12:35:25.3980,0.2,-0.06,0.13,0.24
2022-11-11 12:35:25.4120,0.28,-0.06,0.25,0.38
2022-11-11 12:35:25.4150,0.27,-0.02,0.46,0.53
2022-11-11 12:35:25.4730,0.13,-0.01,0.53,0.54
2022-11-11 12:35:25.4770,0.1,-0.01,0.47,0.48
2022-11-11 12:35:25.4810,0.2,-0.02,0.39,0.43
2022-11-11 12:35:25.4960,0.26,-0.03,0.25,0.36
2022-11-11 12:35:25.4990,0.19,-0.05,0.13,0.23
2022-11-11 12:35:25.5120,0.09,-0.04,-0.02,0.1
2022-11-11 12:35:25.5150,0.13,0.02,-0.06,0.14
2022-11-11 12:35:25.5280,0.2,-0.01,0.02,0.2
2022-11-11 12:35:25.5320,0.12,-0.04,0.06,0.13
2022-11-11 12:35:25.5460,0.05,-0.02,0.07,0.08
2022-11-11 12:35:25.6050,-0.02,-0.11,0.13,0.17
2022-11-11 12:35:25.6090,0.0,-0.16,0.17,0.23
2022-11-11 12:35:25.6140,-0.02,-0.05,0.2,0.2
2022-11-11 12:35:25.6170,0.0,0.12,0.18,0.21
2022-11-11 12:35:25.6290,0.18,0.17,0.36,0.43
2022-11-11 12:35:25.6330,0.26,0.0,0.39,0.46
2022-11-11 12:35:25.6450,0.46,-0.16,0.23,0.53
2022-11-11 12:35:25.6480,0.61,-0.21,0.14,0.66
2022-11-11 12:35:25.6620,0.62,-0.17,0.09,0.64
2022-11-11 12:35:25.6650,0.51,-0.01,0.04,0.51
2022-11-11 12:35:25.7250,0.25,0.04,0.04,0.25
2022-11-11 12:35:25.7290,0.12,-0.05,-0.01,0.13
2022-11-11 12:35:25.7320,0.12,-0.13,-0.1,0.2
2022-11-11 12:35:25.7460,-0.11,-0.06,-0.04,0.13
2022-11-11 12:35:25.7490,-0.34,0.15,0.07,0.37
2022-11-11 12:35:25.7620,-0.43,0.22,0.3,0.56
2022-11-11 12:35:25.7650,-0.4,0.2,0.46,0.64
2022-11-11 12:35:25.7780,-0.34,0.17,0.28,0.47
2022-11-11 12:35:25.7820,-0.09,0.03,0.22,0.23
2022-11-11 12:35:25.7950,0.17,-0.17,0.32,0.4
2022-11-11 12:35:25.8550,0.33,-0.25,0.29,0.5
2022-11-11 12:35:25.8590,0.82,-0.13,-0.04,0.83
2022-11-11 12:35:25.8630,0.74,-0.09,-0.12,0.75
2022-11-11 12:35:25.8660,0.08,-0.01,-0.11,0.13
2022-11-11 12:35:25.8790,-0.14,0.09,-0.08,0.18
2022-11-11 12:35:25.8820,-0.18,0.04,0.04,0.18
2022-11-11 12:35:25.8950,-0.32,0.03,0.18,0.36
2022-11-11 12:35:25.8980,-0.39,0.12,0.31,0.51
2022-11-11 12:35:25.9110,-0.42,0.1,0.42,0.6
2022-11-11 12:35:25.9140,-0.38,-0.05,0.45,0.59
2022-11-11 12:35:25.9770,-0.26,-0.11,0.38,0.47
2022-11-11 12:35:25.9800,-0.13,-0.03,-0.03,0.13
2022-11-11 12:35:25.9970,0.1,0.03,-0.34,0.35
2022-11-11 12:35:26.0000,0.37,0.04,-0.37,0.52
2022-11-11 12:35:26.0130,0.27,-0.08,-0.28,0.39
2022-11-11 12:35:26.0160,-0.03,-0.21,-0.2,0.29
2022-11-11 12:35:26.0280,0.03,-0.05,-0.28,0.28
2022-11-11 12:35:26.0320,-0.27,0.1,-0.34,0.44
2022-11-11 12:35:26.0450,-0.96,0.03,-0.24,0.99
2022-11-11 12:35:26.0490,-1.2,0.08,-0.15,1.21
2022-11-11 12:35:26.1130,-1.19,0.36,0.06,1.24
2022-11-11 12:35:26.1160,-0.79,0.8,0.26,1.15
2022-11-11 12:35:26.1320,-0.23,0.82,0.38,0.93
2022-11-11 12:35:26.1360,-0.07,0.16,0.47,0.5
2022-11-11 12:35:26.1480,0.08,-0.49,0.62,0.79
2022-11-11 12:35:26.1510,0.64,-0.45,0.48,0.91
2022-11-11 12:35:26.1630,0.69,-0.2,0.21,0.74
2022-11-11 12:35:26.1660,0.26,-0.11,0.08,0.29
2022-11-11 12:35:26.1790,-0.32,0.07,-0.2,0.38
2022-11-11 12:35:26.1820,-0.7,0.29,-0.47,0.89
2022-11-11 12:35:26.2480,-0.57,0.37,-0.16,0.69
2022-11-11 12:35:26.2510,-0.05,0.16,0.13,0.21
2022-11-11 12:35:26.2630,0.64,-0.02,0.22,0.67
2022-11-11 12:35:26.2670,0.82,-0.25,0.26,0.89
2022-11-11 12:35:26.2800,0.83,-0.39,0.27,0.95
2022-11-11 12:35:26.2830,0.88,-0.2,0.24,0.93
2022-11-11 12:35:26.2950,0.33,-0.01,0.07,0.33
2022-11-11 12:35:26.2990,-0.29,0.15,0.03,0.32
2022-11-11 12:35:26.3120,-0.51,0.34,0.12,0.62
2022-11-11 12:35:26.3150,-0.48,0.34,0.09,0.59
2022-11-11 12:35:26.3800,-0.23,0.23,-0.14,0.35
2022-11-11 12:35:26.3830,0.22,0.06,-0.26,0.34
2022-11-11 12:35:26.3970,0.47,-0.13,-0.08,0.49
2022-11-11 12:35:26.4000,0.58,-0.29,0.05,0.65
2022-11-11 12:35:26.4130,0.5,-0.29,-0.05,0.58
2022-11-11 12:35:26.4160,0.06,-0.01,-0.25,0.25
2022-11-11 12:35:26.4280,-0.38,0.36,-0.17,0.55
2022-11-11 12:35:26.4320,-0.52,0.5,0.17,0.74
2022-11-11 12:35:26.4450,-0.45,0.39,0.31,0.67
2022-11-11 12:35:26.4490,-0.17,0.09,0.25,0.31
2022-11-11 12:35:26.5140,0.03,-0.23,0.02,0.23
2022-11-11 12:35:26.5170,-0.15,-0.33,-0.26,0.44
2022-11-11 12:35:26.5300,-0.34,-0.06,-0.38,0.51
2022-11-11 12:35:26.5330,-0.33,0.28,-0.48,0.64
2022-11-11 12:35:26.5460,-0.37,0.36,-0.66,0.83
2022-11-11 12:35:26.5500,-0.34,0.33,-0.51,0.69
2022-11-11 12:35:26.5620,-0.21,0.26,-0.13,0.35
2022-11-11 12:35:26.5650,-0.21,0.09,-0.02,0.22
2022-11-11 12:35:26.5780,-0.35,-0.11,-0.18,0.4
2022-11-11 12:35:26.5820,-0.38,-0.14,-0.27,0.48
2022-11-11 12:35:26.6480,-0.07,0.09,-0.15,0.18
2022-11-11 12:35:26.6520,0.33,0.22,0.07,0.4
2022-11-11 12:35:26.6630,0.3,0.02,0.01,0.3
2022-11-11 12:35:26.6670,0.16,-0.02,-0.07,0.17
2022-11-11 12:35:26.6790,0.13,0.22,0.02,0.25
2022-11-11 12:35:26.6830,0.09,0.28,0.07,0.3
2022-11-11 12:35:26.6950,-0.09,-0.09,0.13,0.18
2022-11-11 12:35:26.6980,0.16,-0.31,0.32,0.47
2022-11-11 12:35:26.7120,0.38,-0.03,0.28,0.47
2022-11-11 12:35:26.7140,0.12,0.17,-0.06,0.21
2022-11-11 12:35:26.7820,0.05,0.2,-0.28,0.34
2022-11-11 12:35:26.7860,0.12,0.12,-0.45,0.48
2022-11-11 12:35:26.7970,0.48,0.02,-0.27,0.55
2022-11-11 12:35:26.8000,0.63,-0.07,-0.17,0.65
2022-11-11 12:35:26.8130,0.54,0.01,-0.13,0.55
2022-11-11 12:35:26.8160,0.39,0.12,0.01,0.4
2022-11-11 12:35:26.8280,0.06,0.03,-0.01,0.06
2022-11-11 12:35:26.8320,-0.2,-0.07,-0.07,0.22
2022-11-11 12:35:26.8450,-0.24,-0.04,-0.06,0.25
2022-11-11 12:35:26.8480,-0.22,-0.05,-0.11,0.25
2022-11-11 12:35:26.9180,-0.16,-0.11,-0.19,0.27
2022-11-11 12:35:26.9220,-0.06,-0.1,-0.12,0.16
2022-11-11 12:35:26.9300,0.04,-0.04,-0.07,0.09
2022-11-11 12:35:26.9330,0.01,0.07,-0.07,0.09
2022-11-11 12:35:26.9460,-0.11,0.21,-0.05,0.24
2022-11-11 12:35:26.9490,0.0,0.27,0.11,0.29
2022-11-11 12:35:26.9610,0.0,0.12,0.16,0.2
2022-11-11 12:35:26.9650,-0.07,-0.01,0.13,0.14
2022-11-11 12:35:26.9780,-0.11,-0.01,0.03,0.11
2022-11-11 12:35:26.9810,-0.25,0.03,-0.03,0.25
2022-11-11 12:35:27.0510,-0.3,0.1,-0.2,0.37
2022-11-11 12:35:27.0540,0.03,0.13,-0.26,0.29
2022-11-11 12:35:27.0630,0.4,0.11,-0.12,0.43
2022-11-11 12:35:27.0660,0.42,0.02,-0.07,0.42
2022-11-11 12:35:27.0800,0.32,0.0,0.02,0.32
2022-11-11 12:35:27.0830,0.22,0.09,0.17,0.29
2022-11-11 12:35:27.0950,0.05,0.1,0.18,0.21
2022-11-11 12:35:27.0980,-0.05,0.08,0.04,0.1
2022-11-11 12:35:27.1120,-0.06,0.08,-0.06,0.11
2022-11-11 12:35:27.1150,0.0,0.07,-0.04,0.08
2022-11-11 12:35:27.1860,0.02,0.0,-0.1,0.1
2022-11-11 12:35:27.1890,-0.03,-0.06,-0.22,0.23
2022-11-11 12:35:27.1970,0.04,0.06,-0.19,0.2
2022-11-11 12:35:27.2000,0.1,0.22,-0.09,0.25
2022-11-11 12:35:27.2130,0.03,0.21,0.05,0.21
2022-11-11 12:35:27.2160,-0.03,0.18,0.14,0.23
2022-11-11 12:35:27.2280,-0.14,0.18,0.17,0.28
2022-11-11 12:35:27.2310,-0.21,0.18,0.08,0.28
2022-11-11 12:35:27.2450,-0.18,0.11,0.1,0.23
2022-11-11 12:35:27.2480,-0.1,0.06,0.05,0.12
2022-11-11 12:35:27.3190,0.01,0.0,-0.15,0.15
2022-11-11 12:35:27.3230,0.13,-0.01,-0.28,0.3
2022-11-11 12:35:27.3300,0.27,0.04,-0.23,0.35
2022-11-11 12:35:27.3330,0.26,-0.04,-0.15,0.3
2022-11-11 12:35:27.3460,0.1,-0.06,-0.03,0.12
2022-11-11 12:35:27.3500,-0.07,0.09,0.02,0.11
2022-11-11 12:35:27.3620,-0.08,0.22,0.05,0.23
2022-11-11 12:35:27.3660,-0.07,0.17,0.01,0.18
2022-11-11 12:35:27.3790,-0.02,0.02,-0.09,0.09
2022-11-11 12:35:27.3820,0.08,-0.04,-0.12,0.14
2022-11-11 12:35:27.4540,0.12,0.0,-0.17,0.2
2022-11-11 12:35:27.4570,0.16,0.07,-0.2,0.26
2022-11-11 12:35:27.4640,0.14,0.11,-0.17,0.24
2022-11-11 12:35:27.4670,0.14,0.08,-0.15,0.22
2022-11-11 12:35:27.4790,0.11,0.0,-0.12,0.16
2022-11-11 12:35:27.4830,0.04,-0.01,-0.08,0.09
2022-11-11 12:35:27.4960,-0.03,0.05,0.03,0.06
2022-11-11 12:35:27.4990,-0.04,0.1,0.06,0.12
2022-11-11 12:35:27.5120,0.05,0.09,0.03,0.1
2022-11-11 12:35:27.5150,0.23,0.07,0.03,0.24
2022-11-11 12:35:27.5880,0.28,0.08,-0.02,0.29
2022-11-11 12:35:27.5910,0.15,0.06,-0.1,0.19
2022-11-11 12:35:27.5970,0.09,0.01,-0.06,0.1
2022-11-11 12:35:27.6000,0.06,-0.06,-0.02,0.08
2022-11-11 12:35:27.6130,0.1,-0.08,-0.07,0.14
2022-11-11 12:35:27.6160,0.18,-0.01,-0.11,0.21
2022-11-11 12:35:27.6290,0.15,0.07,-0.11,0.19
2022-11-11 12:35:27.6330,0.17,0.13,-0.11,0.24
2022-11-11 12:35:27.6460,0.27,0.06,-0.07,0.28
2022-11-11 12:35:27.6490,0.25,-0.05,-0.05,0.25
2022-11-11 12:35:27.7250,0.09,-0.03,-0.03,0.09
2022-11-11 12:35:27.7300,-0.05,0.06,0.1,0.12
2022-11-11 12:35:27.7350,-0.13,0.13,0.16,0.24
2022-11-11 12:35:27.7480,-0.19,0.11,0.1,0.24
2022-11-11 12:35:27.7510,-0.13,0.09,0.08,0.17
2022-11-11 12:35:27.7630,-0.08,0.1,0.03,0.13
2022-11-11 12:35:27.7670,0.02,0.09,-0.01,0.09
2022-11-11 12:35:27.7790,0.1,0.05,-0.05,0.12
2022-11-11 12:35:27.7830,0.05,0.04,-0.08,0.1
2022-11-11 12:35:27.7960,0.02,0.06,-0.09,0.11
2022-11-11 12:35:27.8750,0.1,0.1,-0.03,0.14
2022-11-11 12:35:27.8790,0.03,0.07,0.0,0.07
2022-11-11 12:35:27.8840,-0.06,0.09,0.02,0.1
2022-11-11 12:35:27.8970,-0.01,0.18,0.07,0.19
2022-11-11 12:35:27.9000,0.02,0.17,0.09,0.19
2022-11-11 12:35:27.9130,-0.02,0.08,0.05,0.09
2022-11-11 12:35:27.9160,0.03,0.03,0.06,0.07
2022-11-11 12:35:27.9290,0.02,0.05,0.05,0.07
2022-11-11 12:35:27.9330,-0.1,0.05,0.0,0.11
2022-11-11 12:35:27.9460,-0.07,0.03,-0.02,0.07
2022-11-11 12:35:28.0230,0.03,0.07,-0.02,0.07
2022-11-11 12:35:28.0270,0.01,0.11,-0.01,0.11
2022-11-11 12:35:28.0320,-0.02,0.09,0.03,0.09
2022-11-11 12:35:28.0350,-0.04,0.05,0.06,0.08
2022-11-11 12:35:28.0390,-0.09,0.01,0.03,0.09
2022-11-11 12:35:28.0430,-0.11,0.02,0.02,0.11
2022-11-11 12:35:28.0480,-0.13,0.03,0.02,0.13
2022-11-11 12:35:28.0510,-0.17,0.02,0.05,0.17
2022-11-11 12:35:28.0620,-0.1,0.07,0.04,0.12
2022-11-11 12:35:28.0660,-0.07,0.12,0.0,0.13
2022-11-11 12:35:28.1430,-0.07,0.12,-0.01,0.13
2022-11-11 12:35:28.1460,0.01,0.08,-0.01,0.08
2022-11-11 12:35:28.1490,0.02,0.04,-0.05,0.06
2022-11-11 12:35:28.1640,0.0,0.03,-0.05,0.05
2022-11-11 12:35:28.1680,-0.02,0.08,-0.02,0.08
2022-11-11 12:35:28.1800,0.02,0.14,-0.03,0.14
2022-11-11 12:35:28.1840,0.06,0.14,0.02,0.15
2022-11-11 12:35:28.1950,0.04,0.06,0.07,0.1
2022-11-11 12:35:28.1990,0.04,0.01,0.06,0.07
2022-11-11 12:35:28.2120,0.05,0.05,0.06,0.09
2022-11-11 12:35:28.2900,0.04,0.1,0.03,0.11
2022-11-11 12:35:28.2940,0.02,0.07,0.0,0.07
2022-11-11 12:35:28.3000,0.06,0.03,-0.02,0.06
2022-11-11 12:35:28.3020,0.07,0.03,-0.01,0.07
2022-11-11 12:35:28.3130,0.07,0.03,-0.01,0.07
2022-11-11 12:35:28.3160,0.08,0.03,-0.02,0.08
2022-11-11 12:35:28.3190,0.07,0.06,-0.05,0.1
2022-11-11 12:35:28.3290,0.06,0.1,-0.07,0.13
2022-11-11 12:35:28.3330,0.08,0.11,-0.04,0.14
2022-11-11 12:35:28.3460,0.06,0.06,-0.05,0.09
2022-11-11 12:35:28.4270,0.06,0.0,-0.09,0.1
2022-11-11 12:35:28.4300,0.03,-0.02,-0.09,0.09
2022-11-11 12:35:28.4480,-0.02,0.0,-0.08,0.08
2022-11-11 12:35:28.4510,-0.02,0.06,-0.02,0.06
2022-11-11 12:35:28.4630,-0.03,0.06,0.04,0.07
2022-11-11 12:35:28.4670,-0.01,0.03,0.05,0.05
2022-11-11 12:35:28.4790,-0.06,0.03,0.03,0.07
2022-11-11 12:35:28.4820,-0.08,0.07,0.02,0.1
2022-11-11 12:35:28.4960,-0.04,0.09,0.0,0.09
2022-11-11 12:35:28.4990,0.02,0.08,-0.03,0.08
2022-11-11 12:35:28.5780,0.08,0.05,-0.04,0.1
2022-11-11 12:35:28.5820,0.08,0.07,-0.06,0.12
2022-11-11 12:35:28.5980,0.0,0.06,-0.08,0.1
2022-11-11 12:35:28.6010,-0.03,0.07,-0.05,0.09
2022-11-11 12:35:28.6140,-0.02,0.1,-0.02,0.1
2022-11-11 12:35:28.6170,-0.09,0.05,-0.01,0.1
2022-11-11 12:35:28.6290,-0.1,-0.03,0.01,0.1
2022-11-11 12:35:28.6320,-0.09,0.02,-0.02,0.09
2022-11-11 12:35:28.6450,-0.06,0.15,-0.02,0.16
2022-11-11 12:35:28.6490,0.01,0.17,-0.03,0.17
2022-11-11 12:35:28.7280,0.08,0.12,0.02,0.14
2022-11-11 12:35:28.7320,0.13,0.04,0.09,0.16
2022-11-11 12:35:28.7480,0.1,-0.01,0.09,0.13
2022-11-11 12:35:28.7510,0.04,-0.01,0.05,0.06
2022-11-11 12:35:28.7640,-0.01,0.0,0.0,0.01
2022-11-11 12:35:28.7680,0.05,-0.01,0.01,0.05
2022-11-11 12:35:28.7790,0.15,-0.05,0.03,0.16
2022-11-11 12:35:28.7820,0.22,-0.05,0.03,0.22
2022-11-11 12:35:28.7950,0.27,0.0,0.08,0.28
2022-11-11 12:35:28.7990,0.24,0.04,0.07,0.25
2022-11-11 12:35:28.8780,0.19,0.05,0.05,0.2
2022-11-11 12:35:28.8820,0.1,0.03,0.01,0.1
2022-11-11 12:35:28.8980,0.03,0.02,0.02,0.04
2022-11-11 12:35:28.9010,0.02,0.03,0.05,0.06
2022-11-11 12:35:28.9140,0.02,0.05,0.07,0.08
2022-11-11 12:35:28.9170,0.0,0.05,0.05,0.07
2022-11-11 12:35:28.9290,-0.04,0.05,0.06,0.08
2022-11-11 12:35:28.9320,-0.03,0.09,0.07,0.11
2022-11-11 12:35:28.9450,0.03,0.09,0.07,0.11
2022-11-11 12:35:28.9480,0.07,0.08,0.08,0.13
2022-11-11 12:35:29.0290,-0.02,0.08,0.06,0.1
2022-11-11 12:35:29.0330,-0.06,0.1,0.04,0.12
2022-11-11 12:35:29.0460,-0.01,0.09,0.05,0.1
2022-11-11 12:35:29.0510,0.0,0.06,-0.01,0.06
2022-11-11 12:35:29.0630,0.03,0.04,-0.03,0.05
2022-11-11 12:35:29.0670,0.11,0.06,0.0,0.12
2022-11-11 12:35:29.0790,0.09,0.08,0.02,0.12
2022-11-11 12:35:29.0820,0.05,0.09,0.01,0.1
2022-11-11 12:35:29.0950,0.03,0.08,0.03,0.09
2022-11-11 12:35:29.0990,-0.03,0.06,0.04,0.07
2022-11-11 12:35:29.1810,-0.09,0.07,0.04,0.12
2022-11-11 12:35:29.1840,-0.07,0.1,0.01,0.12
2022-11-11 12:35:29.1970,-0.01,0.08,0.01,0.08
2022-11-11 12:35:29.2010,0.02,0.06,-0.02,0.06
2022-11-11 12:35:29.2130,-0.01,0.05,-0.03,0.05
2022-11-11 12:35:29.2170,-0.06,0.08,0.01,0.1
2022-11-11 12:35:29.2290,-0.1,0.09,0.02,0.13
2022-11-11 12:35:29.2320,-0.09,0.09,0.02,0.12
2022-11-11 12:35:29.2450,-0.1,0.09,0.01,0.13
2022-11-11 12:35:29.2490,-0.05,0.11,0.02,0.12
2022-11-11 12:35:29.3310,-0.01,0.11,0.0,0.11
2022-11-11 12:35:29.3340,-0.05,0.05,-0.03,0.07
2022-11-11 12:35:29.3480,-0.04,0.01,-0.01,0.04
2022-11-11 12:35:29.3510,0.01,0.02,-0.01,0.02
2022-11-11 12:35:29.3640,0.05,0.04,-0.01,0.06
2022-11-11 12:35:29.3680,0.02,0.07,-0.02,0.07
2022-11-11 12:35:29.3790,-0.02,0.07,0.0,0.07
2022-11-11 12:35:29.3820,-0.08,0.03,0.05,0.09
2022-11-11 12:35:29.3950,-0.1,0.04,0.06,0.12
2022-11-11 12:35:29.3990,-0.03,0.07,0.05,0.09
2022-11-11 12:35:29.4830,0.06,0.14,0.03,0.15
2022-11-11 12:35:29.4870,0.07,0.13,-0.01,0.14
2022-11-11 12:35:29.4980,0.06,0.06,-0.03,0.09
2022-11-11 12:35:29.5010,0.04,0.01,-0.04,0.05
2022-11-11 12:35:29.5140,0.03,-0.01,0.01,0.03
2022-11-11 12:35:29.5170,0.03,0.02,0.08,0.08
2022-11-11 12:35:29.5290,-0.03,0.07,0.07,0.1
2022-11-11 12:35:29.5320,-0.15,0.1,-0.02,0.18
2022-11-11 12:35:29.5460,-0.04,0.14,-0.05,0.15
2022-11-11 12:35:29.5490,0.12,0.11,-0.03,0.16
2022-11-11 12:35:29.6320,0.14,0.04,-0.06,0.15
2022-11-11 12:35:29.6360,0.12,0.01,-0.06,0.13
2022-11-11 12:35:29.6480,0.09,0.03,-0.03,0.09
2022-11-11 12:35:29.6510,-0.02,0.05,0.02,0.05
2022-11-11 12:35:29.6640,-0.12,0.07,0.0,0.13
2022-11-11 12:35:29.6670,-0.13,0.11,-0.01,0.17
2022-11-11 12:35:29.6790,-0.1,0.1,-0.02,0.14
2022-11-11 12:35:29.6830,-0.08,0.04,-0.12,0.14
2022-11-11 12:35:29.6960,-0.05,0.08,0.04,0.1
2022-11-11 12:35:29.6990,-0.14,0.16,0.25,0.32
2022-11-11 12:35:29.7840,-0.21,0.18,0.12,0.3
2022-11-11 12:35:29.7870,-0.08,0.12,-0.01,0.14
2022-11-11 12:35:29.7980,0.07,0.02,-0.11,0.13
2022-11-11 12:35:29.8020,0.2,-0.02,-0.13,0.23
2022-11-11 12:35:29.8140,0.27,-0.02,-0.06,0.27
2022-11-11 12:35:29.8170,0.25,-0.02,-0.04,0.25
2022-11-11 12:35:29.8290,0.21,0.01,-0.05,0.21
2022-11-11 12:35:29.8320,0.11,0.06,0.0,0.12
2022-11-11 12:35:29.8460,-0.01,0.09,0.02,0.09
2022-11-11 12:35:29.8490,-0.09,0.06,0.04,0.11
2022-11-11 12:35:29.9340,-0.13,0.06,0.05,0.15
2022-11-11 12:35:29.9380,-0.12,0.07,0.02,0.14
2022-11-11 12:35:29.9480,0.03,0.09,0.04,0.1
2022-11-11 12:35:29.9510,0.09,0.08,0.04,0.12
2022-11-11 12:35:29.9640,0.07,0.05,-0.01,0.08
2022-11-11 12:35:29.9670,0.03,0.03,-0.03,0.05
2022-11-11 12:35:29.9790,-0.01,0.03,-0.04,0.05
2022-11-11 12:35:29.9820,-0.01,0.02,-0.06,0.06
2022-11-11 12:35:29.9950,0.01,0.02,-0.06,0.06
2022-11-11 12:35:29.9970,0.01,0.05,-0.08,0.09
2022-11-11 12:35:30.0840,0.01,0.09,-0.05,0.1
2022-11-11 12:35:30.0870,0.01,0.11,-0.05,0.12
2022-11-11 12:35:30.0900,0.05,0.1,-0.06,0.12
2022-11-11 12:35:30.0930,0.11,0.08,-0.03,0.13
2022-11-11 12:35:30.0970,0.12,0.05,0.01,0.13
2022-11-11 12:35:30.1010,0.07,0.03,0.04,0.08
2022-11-11 12:35:30.1140,0.05,0.03,0.08,0.09
2022-11-11 12:35:30.1170,0.05,0.02,0.08,0.09
2022-11-11 12:35:30.1190,0.01,0.03,0.11,0.11
2022-11-11 12:35:30.1290,-0.04,0.05,0.08,0.1
2022-11-11 12:35:30.2160,-0.05,0.09,0.06,0.11
2022-11-11 12:35:30.2200,0.04,0.08,0.03,0.09
2022-11-11 12:35:30.2310,0.08,0.06,0.03,0.1
2022-11-11 12:35:30.2340,0.06,0.03,0.03,0.07
2022-11-11 12:35:30.2470,0.02,0.03,0.0,0.03
2022-11-11 12:35:30.2500,-0.02,0.03,0.01,0.03
2022-11-11 12:35:30.2620,-0.08,0.05,0.01,0.09
2022-11-11 12:35:30.2650,-0.07,0.09,0.01,0.11
2022-11-11 12:35:30.2790,-0.02,0.1,0.03,0.1
2022-11-11 12:35:30.2820,0.02,0.08,0.03,0.08
2022-11-11 12:35:30.3700,0.03,0.03,0.03,0.05
2022-11-11 12:35:30.3730,0.03,0.01,0.0,0.03
2022-11-11 12:35:30.3800,0.03,0.05,-0.02,0.06
2022-11-11 12:35:30.3840,0.06,0.1,0.0,0.11
2022-11-11 12:35:30.3970,0.03,0.1,0.02,0.1
2022-11-11 12:35:30.4000,0.0,0.07,0.02,0.07
2022-11-11 12:35:30.4120,0.0,0.07,0.05,0.08
2022-11-11 12:35:30.4150,0.01,0.06,0.05,0.07
2022-11-11 12:35:30.4290,0.03,0.04,0.02,0.05
2022-11-11 12:35:30.4320,0.09,0.06,0.02,0.1
2022-11-11 12:35:30.5200,0.06,0.07,0.03,0.09
2022-11-11 12:35:30.5240,-0.03,0.04,0.02,0.05
2022-11-11 12:35:30.5310,-0.13,-0.03,0.0,0.13
2022-11-11 12:35:30.5350,-0.22,-0.08,-0.02,0.23
2022-11-11 12:35:30.5470,-0.18,-0.05,0.01,0.18
2022-11-11 12:35:30.5510,-0.11,0.02,0.03,0.11
2022-11-11 12:35:30.5620,-0.1,0.11,0.04,0.15
2022-11-11 12:35:30.5660,0.0,0.18,0.1,0.2
2022-11-11 12:35:30.5790,0.06,0.12,0.1,0.16
2022-11-11 12:35:30.5820,-0.02,0.0,0.09,0.09
2022-11-11 12:35:30.6700,-0.07,-0.08,0.08,0.13
2022-11-11 12:35:30.6740,-0.13,-0.03,0.06,0.14
2022-11-11 12:35:30.6810,-0.16,0.02,0.0,0.16
2022-11-11 12:35:30.6840,-0.12,0.01,-0.03,0.12
2022-11-11 12:35:30.6970,-0.1,-0.03,-0.05,0.11
2022-11-11 12:35:30.7010,-0.11,-0.08,-0.05,0.14
2022-11-11 12:35:30.7120,-0.1,-0.15,0.0,0.18
2022-11-11 12:35:30.7160,-0.1,-0.14,0.08,0.18
2022-11-11 12:35:30.7280,0.04,0.1,0.19,0.21
2022-11-11 12:35:30.7320,0.14,0.24,0.24,0.36
2022-11-11 12:35:30.8220,0.01,0.14,0.16,0.21
2022-11-11 12:35:30.8260,0.03,0.16,0.1,0.19
2022-11-11 12:35:30.8310,0.11,0.28,0.11,0.32
2022-11-11 12:35:30.8350,0.13,0.18,0.12,0.25
2022-11-11 12:35:30.8480,0.17,0.02,0.16,0.23
2022-11-11 12:35:30.8510,0.19,0.04,0.26,0.32
2022-11-11 12:35:30.8620,0.11,0.11,0.27,0.31
2022-11-11 12:35:30.8660,-0.02,0.13,0.23,0.26
2022-11-11 12:35:30.8790,-0.12,0.17,0.21,0.29
2022-11-11 12:35:30.8820,-0.29,0.2,0.28,0.45
2022-11-11 12:35:30.9740,-0.4,0.13,0.29,0.51
2022-11-11 12:35:30.9780,-0.32,0.08,0.32,0.45
2022-11-11 12:35:30.9830,-0.3,0.05,0.36,0.47
2022-11-11 12:35:30.9970,-0.37,-0.02,0.23,0.43
2022-11-11 12:35:31.0010,-0.33,-0.04,0.05,0.33
2022-11-11 12:35:31.0120,-0.21,-0.07,0.02,0.22
2022-11-11 12:35:31.0160,-0.07,-0.13,0.07,0.16
2022-11-11 12:35:31.0290,0.11,-0.04,-0.02,0.11
2022-11-11 12:35:31.0320,-0.1,0.07,-0.19,0.22
2022-11-11 12:35:31.0460,-0.28,0.06,-0.47,0.55
2022-11-11 12:35:31.1370,-0.13,0.02,-0.52,0.53
2022-11-11 12:35:31.1410,0.1,-0.03,-0.12,0.15
2022-11-11 12:35:31.1490,0.33,-0.05,0.08,0.34
2022-11-11 12:35:31.1520,0.29,-0.18,0.16,0.37
2022-11-11 12:35:31.1640,0.09,-0.13,0.09,0.18
2022-11-11 12:35:31.1670,-0.05,0.07,-0.07,0.11
2022-11-11 12:35:31.1790,-0.2,0.08,-0.11,0.24
2022-11-11 12:35:31.1830,0.05,0.21,-0.08,0.23
2022-11-11 12:35:31.1960,0.47,0.52,0.03,0.7
2022-11-11 12:35:31.1990,0.63,0.48,-0.14,0.8
2022-11-11 12:35:31.2920,0.64,0.16,-0.16,0.67
2022-11-11 12:35:31.2960,0.3,-0.02,-0.03,0.3
2022-11-11 12:35:31.3010,-0.2,0.13,0.14,0.27
2022-11-11 12:35:31.3140,-0.44,0.34,0.1,0.56
2022-11-11 12:35:31.3170,-0.26,0.28,-0.01,0.38
2022-11-11 12:35:31.3290,0.05,0.07,-0.21,0.22
2022-11-11 12:35:31.3330,0.47,0.01,-0.26,0.53
2022-11-11 12:35:31.3460,0.68,0.11,-0.25,0.73
2022-11-11 12:35:31.3490,0.58,0.09,-0.34,0.67
2022-11-11 12:35:31.3630,0.33,-0.07,-0.35,0.48
2022-11-11 12:35:31.4570,-0.09,-0.06,-0.17,0.2
2022-11-11 12:35:31.4620,-0.32,0.1,-0.06,0.34
2022-11-11 12:35:31.4670,-0.43,0.21,-0.12,0.49
2022-11-11 12:35:31.4810,-0.6,0.22,-0.26,0.68
2022-11-11 12:35:31.4840,-0.54,0.18,-0.27,0.63
2022-11-11 12:35:31.4960,-0.16,0.2,-0.11,0.27
2022-11-11 12:35:31.5000,-0.06,0.1,-0.06,0.13
2022-11-11 12:35:31.5120,-0.19,-0.02,-0.05,0.19
2022-11-11 12:35:31.5160,-0.4,0.06,0.01,0.4
2022-11-11 12:35:31.5290,-0.61,0.22,0.09,0.65
2022-11-11 12:35:31.6260,-0.61,0.4,0.2,0.75
2022-11-11 12:35:31.6300,-0.64,0.46,0.13,0.79
2022-11-11 12:35:31.6340,-0.66,0.15,-0.18,0.7
2022-11-11 12:35:31.6470,-0.56,-0.19,-0.56,0.81
2022-11-11 12:35:31.6510,-0.55,-0.35,-0.74,0.98
2022-11-11 12:35:31.6630,-0.31,0.0,-0.43,0.53
2022-11-11 12:35:31.6660,-0.22,0.3,-0.14,0.39
2022-11-11 12:35:31.6790,-0.56,0.12,-0.05,0.57
2022-11-11 12:35:31.6820,-0.93,0.27,0.21,0.99
2022-11-11 12:35:31.6960,-1.25,0.57,0.02,1.37
2022-11-11 12:35:31.7930,-0.93,0.7,0.0,1.16
2022-11-11 12:35:31.7970,-0.34,0.77,-0.11,0.84
2022-11-11 12:35:31.8150,-0.04,0.57,-0.26,0.62
2022-11-11 12:35:31.8180,0.02,0.44,-0.11,0.45
2022-11-11 12:35:31.8310,0.26,0.74,0.13,0.79
2022-11-11 12:35:31.8340,0.38,1.04,0.34,1.15
2022-11-11 12:35:31.8460,0.15,0.93,0.26,0.97
2022-11-11 12:35:31.8490,-0.12,0.77,0.19,0.8
2022-11-11 12:35:31.8620,-0.31,0.97,0.02,1.01
2022-11-11 12:35:31.8660,-0.33,1.3,-0.27,1.36
2022-11-11 12:35:31.9640,-0.29,1.34,-0.78,1.57
2022-11-11 12:35:31.9670,-0.62,1.2,-0.83,1.58
2022-11-11 12:35:31.9810,-0.24,1.43,-0.59,1.56
2022-11-11 12:35:31.9850,0.01,1.59,-0.45,1.65
2022-11-11 12:35:31.9970,-0.32,1.57,-0.32,1.63
2022-11-11 12:35:32.0010,-0.66,1.62,-0.07,1.75
2022-11-11 12:35:32.0130,-0.98,1.78,-0.09,2.03
2022-11-11 12:35:32.0160,-1.21,1.86,-0.08,2.22
2022-11-11 12:35:32.0290,-1.24,2.03,-0.04,2.37
2022-11-11 12:35:32.0330,-1.23,2.22,-0.27,2.55
2022-11-11 12:35:32.1230,-1.32,2.34,-0.45,2.72
2022-11-11 12:35:32.1270,-1.53,2.45,-0.53,2.93
2022-11-11 12:35:32.1330,-1.85,2.62,-0.86,3.32
2022-11-11 12:35:32.1470,-2.11,3.19,-1.0,3.95
2022-11-11 12:35:32.1510,-2.88,3.7,-1.39,4.89
2022-11-11 12:35:32.1630,-3.64,3.82,-1.35,5.44
2022-11-11 12:35:32.1660,-4.24,3.72,-1.13,5.75
2022-11-11 12:35:32.1790,-4.66,3.55,-1.02,5.94
2022-11-11 12:35:32.1830,-4.84,3.59,-0.92,6.09
2022-11-11 12:35:32.1960,-5.03,3.72,-0.81,6.3
2022-11-11 12:35:32.2600,-5.58,3.83,-0.68,6.8
2022-11-11 12:35:32.2640,-6.06,4.07,-0.35,7.3
2022-11-11 12:35:32.2810,-6.17,4.41,0.13,7.58
2022-11-11 12:35:32.2850,-5.98,4.74,0.38,7.64
2022-11-11 12:35:32.2980,-5.4,4.98,0.01,7.34
2022-11-11 12:35:32.3010,-4.43,5.29,-1.08,6.98
2022-11-11 12:35:32.3130,-4.39,5.7,-2.08,7.48
2022-11-11 12:35:32.3160,-5.91,6.21,-2.35,8.88
2022-11-11 12:35:32.3290,-6.65,6.48,-2.15,9.53
2022-11-11 12:35:32.3320,-5.22,5.76,-1.88,7.99
2022-11-11 12:35:32.3950,-3.27,4.38,-1.38,5.63
2022-11-11 12:35:32.3980,-2.06,3.26,-1.41,4.1
2022-11-11 12:35:32.4150,-1.85,2.42,-2.38,3.86
2022-11-11 12:35:32.4190,-3.02,1.68,-3.38,4.83
2022-11-11 12:35:32.4310,-4.76,1.36,-3.23,5.91
2022-11-11 12:35:32.4350,-5.99,1.1,-2.55,6.6
2022-11-11 12:35:32.4460,-6.54,0.63,-1.82,6.81
2022-11-11 12:35:32.4490,-6.39,-0.05,-1.41,6.54
2022-11-11 12:35:32.4620,-6.09,-0.75,-0.92,6.2
2022-11-11 12:35:32.4660,-5.85,-1.22,-0.36,5.98
2022-11-11 12:35:32.5270,-5.39,-1.55,0.09,5.6
2022-11-11 12:35:32.5310,-4.77,-2.01,0.53,5.2
2022-11-11 12:35:32.5480,-4.47,-2.68,0.83,5.27
2022-11-11 12:35:32.5520,-4.9,-3.32,0.9,5.98
2022-11-11 12:35:32.5640,-5.75,-3.71,0.88,6.89
2022-11-11 12:35:32.5680,-6.57,-3.83,0.86,7.65
2022-11-11 12:35:32.5790,-7.02,-3.78,0.84,8.01
2022-11-11 12:35:32.5830,-6.81,-3.45,1.18,7.72
2022-11-11 12:35:32.5960,-5.84,-2.76,1.72,6.68
2022-11-11 12:35:32.5990,-4.63,-1.85,2.18,5.44
2022-11-11 12:35:32.6610,-3.79,-0.91,2.23,4.49
2022-11-11 12:35:32.6650,-3.12,-0.08,1.97,3.69
2022-11-11 12:35:32.6810,-1.92,0.82,1.72,2.7
2022-11-11 12:35:32.6850,-0.22,1.89,1.72,2.56
2022-11-11 12:35:32.6980,1.5,2.79,1.79,3.63
2022-11-11 12:35:32.7010,3.02,3.05,1.77,4.64
2022-11-11 12:35:32.7120,3.93,2.72,1.41,4.98
2022-11-11 12:35:32.7160,4.02,2.33,1.17,4.79
2022-11-11 12:35:32.7290,3.85,2.34,1.02,4.61
2022-11-11 12:35:32.7320,3.82,2.51,0.81,4.64
2022-11-11 12:35:32.7960,4.21,2.69,0.74,5.05
2022-11-11 12:35:32.8000,5.4,2.9,0.59,6.15
2022-11-11 12:35:32.8150,7.05,2.97,0.25,7.65
2022-11-11 12:35:32.8190,8.12,3.01,-0.19,8.66
2022-11-11 12:35:32.8310,8.73,3.53,-0.62,9.43
2022-11-11 12:35:32.8340,9.14,4.31,-0.94,10.14
2022-11-11 12:35:32.8460,9.32,4.84,-1.07,10.55
2022-11-11 12:35:32.8490,9.58,5.25,-1.28,10.99
2022-11-11 12:35:32.8620,10.04,5.8,-1.28,11.66
2022-11-11 12:35:32.8650,10.87,5.86,-1.17,12.4
2022-11-11 12:35:32.9230,11.5,4.9,-1.27,12.56
2022-11-11 12:35:32.9270,11.62,3.45,-1.76,12.24
2022-11-11 12:35:32.9320,11.62,2.51,-2.47,12.14
2022-11-11 12:35:32.9470,11.76,1.85,-3.19,12.32
2022-11-11 12:35:32.9510,11.37,0.86,-3.81,12.02
2022-11-11 12:35:32.9630,10.31,-0.09,-4.32,11.17
2022-11-11 12:35:32.9660,8.46,-0.45,-4.8,9.73
2022-11-11 12:35:32.9790,5.69,-0.24,-5.44,7.87
2022-11-11 12:35:32.9830,-0.24,0.26,-5.09,5.1
2022-11-11 12:35:32.9960,-8.36,0.85,-2.29,8.7
2022-11-11 12:35:33.0520,-9.62,2.61,1.22,10.04
2022-11-11 12:35:33.0550,-3.83,5.41,3.48,7.48
2022-11-11 12:35:33.0640,1.43,7.8,5.13,9.44
2022-11-11 12:35:33.0680,4.69,5.46,5.07,8.8
2022-11-11 12:35:33.0810,2.73,0.05,2.86,3.95
2022-11-11 12:35:33.0840,1.05,-2.58,0.35,2.8
2022-11-11 12:35:33.0960,2.41,-3.07,-1.45,4.16
2022-11-11 12:35:33.0990,3.6,-1.85,-1.67,4.37
2022-11-11 12:35:33.1120,3.4,0.49,-1.24,3.65
2022-11-11 12:35:33.1160,2.08,2.39,-0.49,3.2
2022-11-11 12:35:33.1730,1.13,2.83,-0.38,3.07
2022-11-11 12:35:33.1770,1.26,1.6,-1.14,2.33
2022-11-11 12:35:33.1820,2.25,-0.56,-2.66,3.52
2022-11-11 12:35:33.1850,3.65,-1.98,-3.43,5.38
2022-11-11 12:35:33.1970,4.41,-2.13,-2.89,5.68
2022-11-11 12:35:33.2010,3.77,-1.23,-1.69,4.31
2022-11-11 12:35:33.2130,2.35,0.18,0.07,2.35
2022-11-11 12:35:33.2160,0.78,1.41,1.47,2.18
2022-11-11 12:35:33.2290,-1.15,1.91,1.75,2.83
2022-11-11 12:35:33.2330,-3.02,1.59,1.29,3.64
2022-11-11 12:35:33.2900,-4.1,0.75,0.87,4.25
2022-11-11 12:35:33.2940,-4.2,-0.15,0.35,4.21
2022-11-11 12:35:33.2990,-3.26,-0.55,-0.33,3.32
2022-11-11 12:35:33.3140,-1.6,-0.58,-1.04,1.99
2022-11-11 12:35:33.3180,0.47,-0.64,-1.64,1.82
2022-11-11 12:35:33.3290,2.73,-0.6,-1.86,3.35
2022-11-11 12:35:33.3330,3.52,-0.63,-2.07,4.13
2022-11-11 12:35:33.3460,2.28,-0.58,-1.52,2.8
2022-11-11 12:35:33.3490,0.51,-0.07,-0.19,0.54
2022-11-11 12:35:33.3630,-1.14,0.46,0.38,1.28
2022-11-11 12:35:33.4230,-2.28,1.08,0.76,2.63
2022-11-11 12:35:33.4270,-3.04,1.44,0.91,3.48
2022-11-11 12:35:33.4330,-3.09,1.17,0.8,3.39
2022-11-11 12:35:33.4470,-2.13,0.62,0.39,2.25
2022-11-11 12:35:33.4510,-0.58,0.24,-0.01,0.62
2022-11-11 12:35:33.4630,0.72,0.1,-0.54,0.9
2022-11-11 12:35:33.4660,1.57,0.09,-0.75,1.74
2022-11-11 12:35:33.4790,1.55,0.11,-0.63,1.67
2022-11-11 12:35:33.4830,0.65,0.14,-0.59,0.88
2022-11-11 12:35:33.4960,-0.3,0.44,-0.66,0.84
2022-11-11 12:35:33.5550,-0.81,0.98,-0.74,1.47
2022-11-11 12:35:33.5590,-0.93,1.44,-1.02,1.99
2022-11-11 12:35:33.5650,-0.71,1.33,-1.35,2.02
2022-11-11 12:35:33.5680,-0.61,0.89,-0.83,1.36
2022-11-11 12:35:33.5810,-0.45,0.92,-0.21,1.04
2022-11-11 12:35:33.5840,-0.48,1.14,-0.19,1.25
2022-11-11 12:35:33.5960,-0.86,1.22,-0.06,1.49
2022-11-11 12:35:33.6000,-1.13,1.55,0.73,2.05
2022-11-11 12:35:33.6130,-1.31,1.89,0.4,2.33
2022-11-11 12:35:33.6160,-1.78,2.01,0.13,2.68
2022-11-11 12:35:33.6750,-2.1,2.29,-0.15,3.11
2022-11-11 12:35:33.6800,-2.19,2.54,-0.31,3.36
2022-11-11 12:35:33.6850,-2.06,2.71,-0.28,3.41
2022-11-11 12:35:33.6970,-2.14,2.79,-0.46,3.54
2022-11-11 12:35:33.7010,-2.51,2.75,-0.71,3.79
2022-11-11 12:35:33.7130,-2.9,2.76,-0.88,4.09
2022-11-11 12:35:33.7170,-3.21,2.82,-0.96,4.37
2022-11-11 12:35:33.7300,-3.54,2.91,-1.07,4.7
2022-11-11 12:35:33.7330,-4.12,3.16,-1.08,5.3
2022-11-11 12:35:33.7460,-5.13,3.86,-1.17,6.52
2022-11-11 12:35:33.8070,-6.07,5.37,-1.18,8.18
2022-11-11 12:35:33.8110,-6.54,7.12,-1.12,9.73
2022-11-11 12:35:33.8170,-6.94,8.02,-0.98,10.65
2022-11-11 12:35:33.8310,-7.45,8.07,-0.67,11.0
2022-11-11 12:35:33.8340,-7.78,7.68,-0.81,10.96
2022-11-11 12:35:33.8460,-8.74,6.67,-1.34,11.07
2022-11-11 12:35:33.8490,-9.58,5.37,-2.33,11.22
2022-11-11 12:35:33.8620,-8.75,4.55,-3.89,10.6
2022-11-11 12:35:33.8660,-7.3,4.67,-5.32,10.16
2022-11-11 12:35:33.8790,-7.44,6.03,-5.16,10.87
2022-11-11 12:35:33.9410,-7.88,7.84,-4.36,11.94
2022-11-11 12:35:33.9450,-6.6,8.29,-3.49,11.15
2022-11-11 12:35:33.9500,-4.42,6.92,-2.1,8.47
2022-11-11 12:35:33.9640,-1.7,5.05,-2.01,5.69
2022-11-11 12:35:33.9680,0.36,2.93,-2.74,4.02
2022-11-11 12:35:33.9790,-0.99,0.48,-2.5,2.73
2022-11-11 12:35:33.9830,-3.74,-1.21,-2.19,4.49
2022-11-11 12:35:33.9960,-5.41,-2.11,-2.49,6.31
2022-11-11 12:35:33.9990,-5.98,-3.01,-2.32,7.08
2022-11-11 12:35:34.0130,-5.94,-3.53,-1.35,7.04
2022-11-11 12:35:34.0750,-5.55,-3.74,-0.51,6.71
2022-11-11 12:35:34.0800,-5.8,-4.1,0.82,7.14
2022-11-11 12:35:34.0850,-5.84,-4.14,1.71,7.35
2022-11-11 12:35:34.0970,-5.2,-4.35,1.54,6.95
2022-11-11 12:35:34.1010,-4.96,-5.07,1.23,7.19
2022-11-11 12:35:34.1130,-5.39,-5.65,0.9,7.86
2022-11-11 12:35:34.1160,-5.64,-5.83,0.68,8.14
2022-11-11 12:35:34.1290,-5.28,-5.85,0.57,7.9
2022-11-11 12:35:34.1330,-4.69,-5.9,0.44,7.54
2022-11-11 12:35:34.1460,-4.25,-5.94,-0.08,7.3
2022-11-11 12:35:34.2090,-4.31,-5.96,-0.88,7.4
2022-11-11 12:35:34.2130,-4.93,-5.77,-1.23,7.68
2022-11-11 12:35:34.2180,-5.42,-4.5,0.67,7.07
2022-11-11 12:35:34.2300,-4.3,-1.34,3.67,5.8
2022-11-11 12:35:34.2340,-1.26,2.32,3.93,4.73
2022-11-11 12:35:34.2460,1.73,4.13,1.41,4.69
2022-11-11 12:35:34.2490,3.16,3.9,0.04,5.01
2022-11-11 12:35:34.2630,3.73,3.31,0.29,4.99
2022-11-11 12:35:34.2660,4.9,3.11,0.62,5.83
2022-11-11 12:35:34.2790,5.61,3.14,0.87,6.48
2022-11-11 12:35:34.3440,4.85,3.45,1.11,6.05
2022-11-11 12:35:34.3470,3.61,4.13,1.09,5.59
2022-11-11 12:35:34.3650,3.73,4.87,0.42,6.14
2022-11-11 12:35:34.3690,5.5,5.11,-0.46,7.52
2022-11-11 12:35:34.3810,7.7,5.42,-1.27,9.5
2022-11-11 12:35:34.3840,9.97,6.26,-1.74,11.9
2022-11-11 12:35:34.3960,11.89,6.91,-2.52,13.98
2022-11-11 12:35:34.4000,13.41,7.31,-3.2,15.6
2022-11-11 12:35:34.4120,14.3,7.24,-3.3,16.36
2022-11-11 12:35:34.4160,13.24,5.97,-2.49,14.73
2022-11-11 12:35:34.4790,11.32,4.68,-1.33,12.32
2022-11-11 12:35:34.4820,10.07,3.79,-0.76,10.78
2022-11-11 12:35:34.4980,8.85,2.78,-0.79,9.3
2022-11-11 12:35:34.5020,8.49,1.97,-1.19,8.79
2022-11-11 12:35:34.5150,8.89,1.18,-1.55,9.1
2022-11-11 12:35:34.5180,9.33,0.44,-1.95,9.54
2022-11-11 12:35:34.5290,9.24,-0.03,-2.66,9.61
2022-11-11 12:35:34.5330,6.15,0.1,-4.37,7.54
2022-11-11 12:35:34.5460,-4.15,1.33,-2.9,5.23
2022-11-11 12:35:34.5490,-13.56,4.47,1.37,14.34
2022-11-11 12:35:34.6080,-7.82,8.61,3.82,12.24
2022-11-11 12:35:34.6130,1.88,11.61,5.82,13.12
2022-11-11 12:35:34.6180,7.93,10.07,5.72,14.03
2022-11-11 12:35:34.6310,6.14,1.09,2.25,6.62
2022-11-11 12:35:34.6340,1.91,-3.83,-0.55,4.31
2022-11-11 12:35:34.6460,0.04,-4.34,-1.75,4.67
2022-11-11 12:35:34.6490,-0.37,-3.32,-2.91,4.43
2022-11-11 12:35:34.6620,1.21,-1.47,-3.97,4.4
2022-11-11 12:35:34.6660,2.9,0.8,-3.6,4.69
2022-11-11 12:35:34.6790,3.85,2.04,-2.85,5.2
2022-11-11 12:35:34.7400,4.2,0.93,-2.59,5.02
2022-11-11 12:35:34.7450,4.24,-0.86,-2.52,5.0
2022-11-11 12:35:34.7500,4.35,-1.65,-1.9,5.02
2022-11-11 12:35:34.7640,4.02,-1.3,-0.65,4.27
2022-11-11 12:35:34.7680,2.76,-0.32,0.49,2.82
2022-11-11 12:35:34.7790,0.78,0.8,0.96,1.47
2022-11-11 12:35:34.7830,-1.5,1.65,0.96,2.42
2022-11-11 12:35:34.7960,-3.47,1.74,0.76,3.95
2022-11-11 12:35:34.7990,-4.53,0.76,0.42,4.61
2022-11-11 12:35:34.8130,-4.09,-0.45,0.22,4.12
2022-11-11 12:35:34.8730,-2.21,-0.77,0.03,2.34
2022-11-11 12:35:34.8780,0.1,-0.55,-0.53,0.77
2022-11-11 12:35:34.8830,2.48,-0.32,-0.87,2.64
2022-11-11 12:35:34.8980,3.71,0.02,-0.77,3.78
2022-11-11 12:35:34.9010,3.29,0.36,-0.72,3.38
2022-11-11 12:35:34.9130,2.06,0.5,-0.59,2.2
2022-11-11 12:35:34.9160,0.99,0.46,-0.02,1.09
2022-11-11 12:35:34.9290,-0.1,0.37,0.05,0.38
2022-11-11 12:35:34.9330,-1.39,0.29,0.3,1.45
2022-11-11 12:35:34.9460,-2.83,0.24,0.79,2.94
2022-11-11 12:35:35.0080,-3.85,0.4,0.8,3.95
2022-11-11 12:35:35.0120,-3.61,0.53,0.54,3.68
2022-11-11 12:35:35.0170,-2.23,0.53,0.37,2.32
2022-11-11 12:35:35.0310,-0.55,0.55,-0.35,0.85
2022-11-11 12:35:35.0340,1.09,0.68,-0.5,1.37
2022-11-11 12:35:35.0460,2.1,0.87,-0.55,2.33
2022-11-11 12:35:35.0490,1.99,0.76,-0.78,2.26
2022-11-11 12:35:35.0630,1.04,0.46,-0.49,1.23
2022-11-11 12:35:35.0660,-0.11,0.38,-0.06,0.4
2022-11-11 12:35:35.0800,-1.06,0.56,0.05,1.19
2022-11-11 12:35:35.1450,-1.7,0.91,0.01,1.92
2022-11-11 12:35:35.1490,-1.77,1.33,0.21,2.22
2022-11-11 12:35:35.1650,-1.48,1.63,-0.15,2.2
2022-11-11 12:35:35.1690,-1.0,1.66,-0.94,2.15
2022-11-11 12:35:35.1810,-0.59,1.8,-1.03,2.15
2022-11-11 12:35:35.1850,-0.2,2.2,-1.31,2.56
2022-11-11 12:35:35.1960,-0.22,2.14,-1.58,2.66
2022-11-11 12:35:35.2000,-0.59,1.98,-1.53,2.57
2022-11-11 12:35:35.2120,-1.29,1.89,-1.32,2.64
2022-11-11 12:35:35.2160,-1.95,2.17,-0.66,2.99
2022-11-11 12:35:35.2790,-2.46,2.52,-0.74,3.59
2022-11-11 12:35:35.2820,-3.04,2.83,-0.51,4.18
2022-11-11 12:35:35.2990,-3.48,3.25,-0.41,4.77
2022-11-11 12:35:35.3020,-3.84,3.29,-0.55,5.08
2022-11-11 12:35:35.3140,-4.04,3.23,-0.59,5.2
2022-11-11 12:35:35.3180,-4.2,3.41,-0.7,5.45
2022-11-11 12:35:35.3290,-4.74,3.76,-1.06,6.14
2022-11-11 12:35:35.3330,-5.35,4.25,-1.06,6.91
2022-11-11 12:35:35.3460,-6.31,5.25,-0.94,8.26
2022-11-11 12:35:35.3490,-7.5,6.78,-0.79,10.14
2022-11-11 12:35:35.4130,-8.36,7.95,-0.88,11.57
2022-11-11 12:35:35.4170,-8.97,7.81,-1.33,11.96
2022-11-11 12:35:35.4320,-9.68,6.95,-1.43,12.0
2022-11-11 12:35:35.4350,-10.27,6.01,-1.67,12.01
2022-11-11 12:35:35.4480,-9.82,5.15,-2.56,11.38
2022-11-11 12:35:35.4510,-7.43,4.89,-4.25,9.85
2022-11-11 12:35:35.4630,-5.22,5.37,-4.87,8.93
2022-11-11 12:35:35.4660,-5.13,6.86,-4.05,9.47
2022-11-11 12:35:35.4790,-4.88,8.09,-3.72,10.15
2022-11-11 12:35:35.4830,-3.54,7.98,-3.06,9.25
2022-11-11 12:35:35.5470,-2.51,6.23,-3.2,7.43
2022-11-11 12:35:35.5510,-3.43,3.21,-3.25,5.71
2022-11-11 12:35:35.5650,-5.45,0.39,-3.0,6.23
2022-11-11 12:35:35.5690,-6.6,-1.52,-2.82,7.33
2022-11-11 12:35:35.5810,-6.74,-2.82,-1.94,7.55
2022-11-11 12:35:35.5850,-6.72,-3.68,-0.56,7.68
2022-11-11 12:35:35.5960,-6.46,-4.14,0.08,7.67
2022-11-11 12:35:35.6000,-5.87,-4.56,0.29,7.43
2022-11-11 12:35:35.6130,-5.56,-5.13,0.51,7.58
2022-11-11 12:35:35.6160,-5.56,-5.57,0.44,7.88
2022-11-11 12:35:35.6810,-5.42,-5.66,0.34,7.84
2022-11-11 12:35:35.6840,-5.33,-5.65,0.44,7.77
2022-11-11 12:35:35.6980,-5.56,-5.78,0.55,8.03
2022-11-11 12:35:35.7020,-5.97,-5.88,0.67,8.4
2022-11-11 12:35:35.7150,-6.08,-5.71,0.66,8.36
2022-11-11 12:35:35.7180,-5.65,-5.4,0.4,7.82
2022-11-11 12:35:35.7300,-5.29,-5.08,0.17,7.33
2022-11-11 12:35:35.7330,-5.11,-4.5,0.48,6.82
2022-11-11 12:35:35.7460,-4.51,-3.11,1.87,5.78
2022-11-11 12:35:35.7490,-3.12,-0.99,3.11,4.51
2022-11-11 12:35:35.8160,-1.53,0.94,2.7,3.24
2022-11-11 12:35:35.8190,-0.05,2.22,1.46,2.65
2022-11-11 12:35:35.8320,1.38,3.01,1.05,3.47
2022-11-11 12:35:35.8350,2.61,3.58,0.99,4.53
2022-11-11 12:35:35.8480,3.62,4.15,1.06,5.6
2022-11-11 12:35:35.8510,4.47,4.64,1.0,6.52
2022-11-11 12:35:35.8630,5.09,5.2,1.09,7.35
2022-11-11 12:35:35.8660,5.05,5.78,1.16,7.76
2022-11-11 12:35:35.8790,4.39,6.35,0.66,7.74
2022-11-11 12:35:35.8830,4.35,6.93,0.06,8.18
2022-11-11 12:35:35.9500,5.34,7.52,-0.45,9.23
2022-11-11 12:35:35.9530,7.05,8.16,-1.1,10.83
2022-11-11 12:35:35.9650,8.76,8.46,-1.68,12.29
2022-11-11 12:35:35.9680,10.86,9.06,-1.93,14.27
2022-11-11 12:35:35.9810,13.29,9.77,-1.98,16.61
2022-11-11 12:35:35.9850,14.97,8.12,-1.51,17.09
2022-11-11 12:35:35.9960,16.08,5.09,-1.4,16.92
2022-11-11 12:35:36.0000,16.61,3.05,-1.65,16.96
2022-11-11 12:35:36.0130,15.61,1.83,-2.16,15.86
2022-11-11 12:35:36.0160,13.16,0.94,-3.19,13.57
2022-11-11 12:35:36.0840,11.05,0.56,-4.15,11.81
2022-11-11 12:35:36.0880,9.35,0.31,-4.94,10.57
2022-11-11 12:35:36.0980,7.62,-0.34,-5.97,9.68
2022-11-11 12:35:36.1020,4.25,-1.2,-7.17,8.42
2022-11-11 12:35:36.1150,-3.53,-0.66,-6.27,7.22
2022-11-11 12:35:36.1180,-12.44,1.85,-3.51,13.05
2022-11-11 12:35:36.1290,-9.46,5.65,0.01,11.01
2022-11-11 12:35:36.1330,-0.76,10.39,5.32,11.69
2022-11-11 12:35:36.1460,5.74,11.78,7.2,14.95
2022-11-11 12:35:36.1490,5.73,4.95,4.92,9.03
2022-11-11 12:35:36.2180,1.53,-1.55,2.43,3.26
2022-11-11 12:35:36.2210,0.52,-3.56,1.37,3.84
2022-11-11 12:35:36.2320,1.05,-4.1,0.83,4.31
2022-11-11 12:35:36.2350,2.54,-3.18,-0.25,4.07
2022-11-11 12:35:36.2480,3.11,-0.62,-1.0,3.32
2022-11-11 12:35:36.2510,1.51,2.3,-1.11,2.96
2022-11-11 12:35:36.2630,-0.82,3.66,-1.49,4.03
2022-11-11 12:35:36.2670,-1.8,2.22,-2.92,4.08
2022-11-11 12:35:36.2790,-0.59,-0.5,-4.47,4.53
2022-11-11 12:35:36.2830,2.13,-2.16,-4.49,5.41
2022-11-11 12:35:36.3520,4.97,-2.49,-2.85,6.24
2022-11-11 12:35:36.3550,6.94,-1.65,-0.8,7.17
2022-11-11 12:35:36.3650,6.66,-0.15,0.32,6.66
2022-11-11 12:35:36.3690,3.44,1.03,0.45,3.61
2022-11-11 12:35:36.3810,0.47,1.88,0.63,2.03
2022-11-11 12:35:36.3850,-1.84,2.22,0.87,3.01
2022-11-11 12:35:36.3960,-3.96,1.65,0.77,4.35
2022-11-11 12:35:36.3990,-5.28,0.29,0.31,5.29
2022-11-11 12:35:36.4130,-5.07,-1.03,0.29,5.18
2022-11-11 12:35:36.4170,-2.89,-1.26,0.21,3.15
2022-11-11 12:35:36.4880,-0.68,-1.04,-0.61,1.38
2022-11-11 12:35:36.4910,0.63,-0.78,-1.03,1.43
2022-11-11 12:35:36.4980,1.45,-0.4,-1.25,1.95
2022-11-11 12:35:36.5020,2.08,0.08,-0.97,2.29
2022-11-11 12:35:36.5150,2.1,0.6,-0.44,2.22
2022-11-11 12:35:36.5180,1.22,0.85,-0.54,1.58
2022-11-11 12:35:36.5300,0.08,0.64,-0.71,0.95
2022-11-11 12:35:36.5340,-0.9,0.24,-0.38,1.0
2022-11-11 12:35:36.5460,-1.38,0.25,0.11,1.4
2022-11-11 12:35:36.5500,-1.43,0.59,0.32,1.57
2022-11-11 12:35:36.6200,-1.47,0.77,0.48,1.72
2022-11-11 12:35:36.6240,-1.45,0.66,0.19,1.6
2022-11-11 12:35:36.6320,-1.16,0.44,-0.43,1.31
2022-11-11 12:35:36.6350,-0.77,0.45,-0.8,1.19
2022-11-11 12:35:36.6480,-0.26,0.78,-1.11,1.38
2022-11-11 12:35:36.6510,0.2,1.18,-1.01,1.56
2022-11-11 12:35:36.6630,0.4,1.41,-1.03,1.79
2022-11-11 12:35:36.6660,0.43,1.52,-0.89,1.81
2022-11-11 12:35:36.6790,0.07,1.8,-0.56,1.88
2022-11-11 12:35:36.6830,-0.66,1.9,-0.95,2.22
2022-11-11 12:35:36.7530,-1.42,1.84,-1.17,2.6
2022-11-11 12:35:36.7570,-2.19,2.03,-0.89,3.11
2022-11-11 12:35:36.7650,-2.5,2.43,-1.05,3.64
2022-11-11 12:35:36.7690,-2.48,2.6,-1.18,3.78
2022-11-11 12:35:36.7810,-2.16,2.8,-1.06,3.69
2022-11-11 12:35:36.7850,-2.11,3.07,-0.87,3.82
2022-11-11 12:35:36.7960,-2.58,3.31,-0.53,4.23
2022-11-11 12:35:36.8000,-3.27,3.4,-0.06,4.71
2022-11-11 12:35:36.8130,-4.13,3.36,0.23,5.32
2022-11-11 12:35:36.8160,-5.05,3.38,0.43,6.09
2022-11-11 12:35:36.8870,-5.92,3.54,0.45,6.91
2022-11-11 12:35:36.8900,-6.71,4.08,0.4,7.86
2022-11-11 12:35:36.8980,-7.26,5.12,0.18,8.88
2022-11-11 12:35:36.9020,-7.62,6.63,-0.2,10.1
2022-11-11 12:35:36.9150,-7.69,8.19,-0.44,11.24
2022-11-11 12:35:36.9180,-7.31,8.96,-1.03,11.6
2022-11-11 12:35:36.9290,-7.24,8.19,-2.21,11.15
2022-11-11 12:35:36.9330,-8.55,6.03,-3.59,11.06
2022-11-11 12:35:36.9460,-9.1,4.4,-4.72,11.15
2022-11-11 12:35:36.9500,-8.51,4.39,-6.8,11.74
2022-11-11 12:35:37.0200,-8.63,5.78,-7.33,12.71
2022-11-11 12:35:37.0240,-9.45,7.61,-6.08,13.57
2022-11-11 12:35:37.0320,-9.22,9.21,-3.51,13.49
2022-11-11 12:35:37.0350,-6.51,9.39,-1.4,11.51
2022-11-11 12:35:37.0480,-2.25,7.63,-2.22,8.25
2022-11-11 12:35:37.0510,-0.38,4.01,-3.23,5.16
2022-11-11 12:35:37.0630,-2.77,-0.09,-3.17,4.21
2022-11-11 12:35:37.0660,-5.18,-2.57,-3.35,6.68
2022-11-11 12:35:37.0790,-6.52,-3.73,-3.7,8.37
2022-11-11 12:35:37.0830,-7.31,-4.24,-2.81,8.9
2022-11-11 12:35:37.1540,-7.19,-4.42,-1.38,8.55
2022-11-11 12:35:37.1580,-6.17,-4.41,-0.28,7.58
2022-11-11 12:35:37.1650,-5.33,-4.49,0.73,7.0
2022-11-11 12:35:37.1690,-5.33,-4.66,1.24,7.18
2022-11-11 12:35:37.1810,-5.83,-4.95,1.05,7.71
2022-11-11 12:35:37.1850,-5.84,-5.25,0.8,7.89
2022-11-11 12:35:37.1960,-5.45,-5.55,0.74,7.81
2022-11-11 12:35:37.2000,-5.26,-5.76,0.63,7.82
2022-11-11 12:35:37.2130,-5.54,-5.66,0.62,7.94
2022-11-11 12:35:37.2160,-5.78,-5.33,0.65,7.88
2022-11-11 12:35:37.2880,-5.65,-5.07,0.38,7.6
2022-11-11 12:35:37.2920,-5.02,-4.83,-0.27,6.97
2022-11-11 12:35:37.2990,-4.38,-4.55,-0.68,6.35
2022-11-11 12:35:37.3020,-4.05,-3.83,-0.08,5.57
2022-11-11 12:35:37.3150,-3.19,-2.35,0.89,4.06
2022-11-11 12:35:37.3180,-1.53,-0.48,1.23,2.02
2022-11-11 12:35:37.3300,0.25,1.28,0.66,1.46
2022-11-11 12:35:37.3330,2.02,2.68,-0.32,3.37
2022-11-11 12:35:37.3460,3.78,3.68,-0.91,5.35
2022-11-11 12:35:37.3500,4.8,4.15,-1.07,6.43
2022-11-11 12:35:37.4220,5.17,4.47,-1.21,6.94
2022-11-11 12:35:37.4250,5.82,4.75,-1.23,7.61
2022-11-11 12:35:37.4320,6.7,4.9,-1.25,8.39
2022-11-11 12:35:37.4350,7.44,5.24,-1.69,9.25
2022-11-11 12:35:37.4480,8.07,5.82,-2.2,10.19
2022-11-11 12:35:37.4520,8.25,6.57,-2.66,10.87
2022-11-11 12:35:37.4630,9.02,8.2,-3.02,12.55
2022-11-11 12:35:37.4660,11.29,10.48,-3.81,15.86
2022-11-11 12:35:37.4800,13.99,12.33,-3.67,19.0
2022-11-11 12:35:37.4830,16.18,11.68,-2.13,20.06
2022-11-11 12:35:37.5520,16.28,7.09,-0.5,17.76
2022-11-11 12:35:37.5550,14.73,3.17,-0.15,15.06
2022-11-11 12:35:37.5650,14.02,1.63,-0.44,14.12
2022-11-11 12:35:37.5690,13.29,1.07,-0.32,13.33
2022-11-11 12:35:37.5810,11.54,1.1,-0.09,11.59
2022-11-11 12:35:37.5850,9.3,1.39,-0.19,9.4
2022-11-11 12:35:37.5960,5.09,1.96,-1.03,5.55
2022-11-11 12:35:37.6000,-3.2,2.8,0.69,4.3
2022-11-11 12:35:37.6130,-9.87,3.72,3.27,11.04
2022-11-11 12:35:37.6160,-9.24,6.63,3.99,12.05
2022-11-11 12:35:37.6850,-2.94,9.04,3.95,10.29
2022-11-11 12:35:37.6880,2.46,8.49,5.09,10.19
2022-11-11 12:35:37.6980,4.52,5.01,2.94,7.36
2022-11-11 12:35:37.7020,3.21,-0.18,-0.67,3.28
2022-11-11 12:35:37.7150,2.14,-2.6,-3.24,4.67
2022-11-11 12:35:37.7180,2.07,-3.59,-5.24,6.68
2022-11-11 12:35:37.7300,2.09,-3.21,-5.35,6.57
2022-11-11 12:35:37.7330,2.51,-1.21,-3.39,4.38
2022-11-11 12:35:37.7460,3.67,0.37,-3.74,5.25
2022-11-11 12:35:37.7500,4.88,0.22,-3.02,5.74
2022-11-11 12:35:37.8200,5.48,-0.86,-1.18,5.67
2022-11-11 12:35:37.8240,5.57,-1.3,-0.74,5.76
2022-11-11 12:35:37.8320,4.96,-0.73,-0.11,5.01
2022-11-11 12:35:37.8350,3.43,-0.05,0.58,3.47
2022-11-11 12:35:37.8480,1.85,0.67,0.56,2.04
2022-11-11 12:35:37.8510,0.6,1.52,0.74,1.79
2022-11-11 12:35:37.8630,-0.7,2.07,1.58,2.69
2022-11-11 12:35:37.8660,-2.26,1.88,1.85,3.47
2022-11-11 12:35:37.8800,-3.84,1.28,1.25,4.23
2022-11-11 12:35:37.8830,-4.95,0.72,0.03,5.0
2022-11-11 12:35:37.9530,-4.52,0.19,-1.16,4.67
2022-11-11 12:35:37.9570,-1.6,-0.06,-1.09,1.93
2022-11-11 12:35:37.9650,0.57,0.05,-0.36,0.67
2022-11-11 12:35:37.9690,1.54,0.12,-0.17,1.55
2022-11-11 12:35:37.9810,2.16,-0.18,-0.22,2.17
2022-11-11 12:35:37.9850,2.64,-0.57,0.09,2.7
2022-11-11 12:35:37.9960,2.56,-0.53,0.08,2.61
2022-11-11 12:35:38.0000,1.01,-0.13,-0.38,1.08
2022-11-11 12:35:38.0130,-0.58,0.32,-0.27,0.71
2022-11-11 12:35:38.0160,-1.46,0.77,0.07,1.65
2022-11-11 12:35:38.0860,-2.04,0.94,0.02,2.24
2022-11-11 12:35:38.0900,-2.29,0.82,-0.19,2.43
2022-11-11 12:35:38.0990,-2.03,0.59,-0.36,2.14
2022-11-11 12:35:38.1020,-1.31,0.4,-0.51,1.46
2022-11-11 12:35:38.1140,-0.75,0.31,-0.53,0.96
2022-11-11 12:35:38.1180,-0.51,0.26,-0.61,0.83
2022-11-11 12:35:38.1300,-0.32,0.32,-0.57,0.72
2022-11-11 12:35:38.1330,-0.08,0.58,-0.31,0.66
2022-11-11 12:35:38.1460,0.14,0.93,-0.42,1.03
2022-11-11 12:35:38.1490,0.23,1.15,-0.29,1.2
2022-11-11 12:35:38.2190,0.08,1.25,-0.11,1.25
2022-11-11 12:35:38.2230,-0.12,1.23,-0.3,1.27
2022-11-11 12:35:38.2320,-0.2,1.16,-0.9,1.48
2022-11-11 12:35:38.2350,-0.42,1.18,-0.9,1.54
2022-11-11 12:35:38.2480,-0.65,1.49,-0.65,1.75
2022-11-11 12:35:38.2510,-0.95,1.65,-0.69,2.02
2022-11-11 12:35:38.2630,-1.25,1.74,-0.63,2.23
2022-11-11 12:35:38.2660,-1.52,1.94,-0.65,2.54
2022-11-11 12:35:38.2790,-1.75,2.1,-0.42,2.76
2022-11-11 12:35:38.2830,-1.89,2.24,-0.08,2.93
2022-11-11 12:35:38.3530,-2.1,2.33,0.14,3.13
2022-11-11 12:35:38.3570,-2.39,2.46,0.12,3.43
2022-11-11 12:35:38.3650,-2.77,2.73,-0.12,3.89
2022-11-11 12:35:38.3690,-3.17,3.19,-0.29,4.5
2022-11-11 12:35:38.3810,-3.61,3.88,-0.5,5.32
2022-11-11 12:35:38.3860,-4.39,4.64,-0.95,6.45
2022-11-11 12:35:38.3960,-5.36,5.26,-1.29,7.61
2022-11-11 12:35:38.4000,-6.2,5.61,-1.16,8.44
2022-11-11 12:35:38.4130,-6.68,5.5,-0.84,8.69
2022-11-11 12:35:38.4170,-7.22,4.73,-0.53,8.64
2022-11-11 12:35:38.4890,-7.49,3.83,0.02,8.41
2022-11-11 12:35:38.4920,-6.91,3.11,0.26,7.58
2022-11-11 12:35:38.4980,-5.46,2.5,-1.15,6.11
2022-11-11 12:35:38.5020,-4.13,1.93,-3.8,5.93
2022-11-11 12:35:38.5150,-3.92,1.99,-4.77,6.48
2022-11-11 12:35:38.5180,-4.93,2.46,-5.31,7.65
2022-11-11 12:35:38.5300,-6.44,2.28,-5.02,8.47
2022-11-11 12:35:38.5330,-6.42,1.39,-4.0,7.69
2022-11-11 12:35:38.5470,-4.88,0.38,-2.35,5.42
2022-11-11 12:35:38.5500,-4.38,-0.46,-1.59,4.68
2022-11-11 12:35:38.6210,-5.34,-1.22,-1.78,5.75
2022-11-11 12:35:38.6250,-6.63,-1.58,-1.79,7.04
2022-11-11 12:35:38.6320,-7.25,-1.67,-1.53,7.59
2022-11-11 12:35:38.6360,-7.32,-1.68,-0.9,7.56
2022-11-11 12:35:38.6480,-7.15,-1.68,0.01,7.34
2022-11-11 12:35:38.6510,-7.16,-1.6,0.93,7.39
2022-11-11 12:35:38.6630,-7.44,-1.28,1.54,7.7
2022-11-11 12:35:38.6670,-7.41,-0.81,1.86,7.68
2022-11-11 12:35:38.6800,-6.57,-0.54,1.97,6.88
2022-11-11 12:35:38.6830,-5.11,-0.46,1.69,5.4
2022-11-11 12:35:38.7550,-3.44,-0.18,1.23,3.65
2022-11-11 12:35:38.7590,-2.15,0.32,1.03,2.4
2022-11-11 12:35:38.7660,-1.63,0.95,0.94,2.1
2022-11-11 12:35:38.7690,-1.39,1.5,0.81,2.19
2022-11-11 12:35:38.7810,-1.06,1.73,0.77,2.17
2022-11-11 12:35:38.7850,-0.89,1.61,0.67,1.95
2022-11-11 12:35:38.7970,-0.74,1.22,0.49,1.5
2022-11-11 12:35:38.8000,-0.4,0.84,0.45,1.03
2022-11-11 12:35:38.8130,0.13,0.73,0.45,0.86
2022-11-11 12:35:38.8170,0.77,0.87,0.31,1.2
2022-11-11 12:35:38.8910,1.51,1.21,0.27,1.95
2022-11-11 12:35:38.8970,2.39,1.46,-0.08,2.8
2022-11-11 12:35:38.9010,3.18,1.48,-0.35,3.52
2022-11-11 12:35:38.9150,3.53,1.5,-0.21,3.84
2022-11-11 12:35:38.9180,3.45,1.44,-0.13,3.74
2022-11-11 12:35:38.9300,3.44,1.13,-0.14,3.62
2022-11-11 12:35:38.9330,3.64,0.79,-0.09,3.72
2022-11-11 12:35:38.9470,3.94,0.53,-0.01,3.97
2022-11-11 12:35:38.9500,4.21,0.29,0.06,4.22
2022-11-11 12:35:38.9630,4.55,0.05,-0.1,4.55
2022-11-11 12:35:39.0350,5.0,-0.18,-0.37,5.01
2022-11-11 12:35:39.0390,5.29,-0.21,-0.47,5.31
2022-11-11 12:35:39.0490,5.65,0.13,-0.58,5.68
2022-11-11 12:35:39.0530,6.27,0.71,-0.89,6.37
2022-11-11 12:35:39.0640,6.81,1.5,-1.0,7.04
2022-11-11 12:35:39.0680,7.05,2.25,-1.08,7.47
2022-11-11 12:35:39.0800,7.36,2.94,-1.21,8.01
2022-11-11 12:35:39.0830,8.02,3.37,-1.3,8.79
2022-11-11 12:35:39.0960,8.79,2.88,-1.44,9.36
2022-11-11 12:35:39.1000,9.04,1.84,-1.66,9.37
2022-11-11 12:35:39.1700,8.8,0.85,-1.87,9.03
2022-11-11 12:35:39.1740,8.36,0.2,-1.99,8.59
2022-11-11 12:35:39.1820,7.69,0.2,-2.15,7.98
2022-11-11 12:35:39.1860,6.97,0.59,-2.23,7.34
2022-11-11 12:35:39.1980,6.72,0.96,-2.05,7.09
2022-11-11 12:35:39.2010,7.46,1.13,-1.65,7.72
2022-11-11 12:35:39.2130,8.37,1.1,-1.22,8.52
2022-11-11 12:35:39.2170,7.85,1.05,0.05,7.92
2022-11-11 12:35:39.2300,5.62,1.68,2.14,6.24
2022-11-11 12:35:39.2330,2.21,3.18,3.04,4.92
2022-11-11 12:35:39.3040,-1.97,4.51,3.84,6.24
2022-11-11 12:35:39.3080,-5.49,7.01,5.69,10.56
2022-11-11 12:35:39.3150,-5.05,9.62,5.2,12.04
2022-11-11 12:35:39.3190,-2.47,8.38,3.43,9.38
2022-11-11 12:35:39.3310,-1.39,3.91,3.01,5.12
2022-11-11 12:35:39.3350,-1.03,0.44,1.73,2.06
2022-11-11 12:35:39.3460,-0.9,-0.64,-0.87,1.4
2022-11-11 12:35:39.3500,-0.61,-0.97,-3.83,3.99
2022-11-11 12:35:39.3630,-0.04,-1.49,-6.76,6.92
2022-11-11 12:35:39.3660,0.91,-2.06,-8.0,8.31
2022-11-11 12:35:39.4380,2.58,-2.27,-6.25,7.13
2022-11-11 12:35:39.4410,4.93,-2.18,-3.98,6.7
2022-11-11 12:35:39.4490,7.96,-2.0,-1.2,8.29
2022-11-11 12:35:39.4520,10.38,-1.59,1.1,10.55
2022-11-11 12:35:39.4650,9.01,-0.45,1.21,9.1
2022-11-11 12:35:39.4680,4.54,0.6,0.76,4.64
2022-11-11 12:35:39.4800,1.86,1.05,1.56,2.64
2022-11-11 12:35:39.4830,-0.33,0.87,2.02,2.22
2022-11-11 12:35:39.4960,-2.99,0.52,1.71,3.48
2022-11-11 12:35:39.5000,-5.67,0.25,0.87,5.74
2022-11-11 12:35:39.5720,-7.7,0.12,-0.63,7.72
2022-11-11 12:35:39.5750,-7.42,0.04,-2.12,7.71
2022-11-11 12:35:39.5820,-3.35,-0.09,-2.04,3.92
2022-11-11 12:35:39.5860,0.19,-0.29,-1.17,1.22
2022-11-11 12:35:39.5980,2.08,-0.67,-0.95,2.38
2022-11-11 12:35:39.6020,3.19,-1.14,-0.47,3.42
2022-11-11 12:35:39.6130,3.6,-1.25,0.43,3.83
2022-11-11 12:35:39.6160,2.43,-0.68,0.42,2.55
2022-11-11 12:35:39.6300,0.43,0.16,0.11,0.47
2022-11-11 12:35:39.6330,-0.37,0.67,0.19,0.78
2022-11-11 12:35:39.7060,-0.55,0.72,0.14,0.91
2022-11-11 12:35:39.7090,-0.62,0.56,0.17,0.85
2022-11-11 12:35:39.7150,-0.74,0.44,0.37,0.93
2022-11-11 12:35:39.7190,-0.68,0.48,0.17,0.84
2022-11-11 12:35:39.7310,-0.3,0.38,0.13,0.5
2022-11-11 12:35:39.7350,-0.02,0.03,-0.01,0.03
2022-11-11 12:35:39.7460,0.04,-0.09,-0.01,0.09
2022-11-11 12:35:39.7490,0.11,-0.01,-0.12,0.16
2022-11-11 12:35:39.7630,0.2,-0.07,-0.22,0.3
2022-11-11 12:35:39.7660,0.21,-0.03,-0.01,0.21
2022-11-11 12:35:39.8390,0.06,0.14,-0.23,0.27
2022-11-11 12:35:39.8430,-0.35,0.26,-0.14,0.45
2022-11-11 12:35:39.8490,-0.8,0.48,0.3,0.98
2022-11-11 12:35:39.8520,-1.01,0.62,0.3,1.22
2022-11-11 12:35:39.8650,-1.05,0.67,-0.03,1.24
2022-11-11 12:35:39.8680,-0.89,0.71,-0.32,1.18
2022-11-11 12:35:39.8800,-0.68,0.65,-0.66,1.14
2022-11-11 12:35:39.8830,-0.47,0.46,-1.03,1.22
2022-11-11 12:35:39.8960,-0.21,0.32,-1.03,1.09
2022-11-11 12:35:39.8990,-0.06,0.49,-0.86,0.99
2022-11-11 12:35:39.9750,-0.21,0.78,-0.73,1.08
2022-11-11 12:35:39.9790,-0.56,1.09,-0.64,1.38
2022-11-11 12:35:39.9840,-0.9,1.4,-0.78,1.83
2022-11-11 12:35:39.9980,-1.11,1.59,-1.26,2.31
2022-11-11 12:35:40.0020,-1.28,1.73,-1.12,2.42
2022-11-11 12:35:40.0130,-1.27,1.97,-1.02,2.55
2022-11-11 12:35:40.0160,-1.27,1.98,-1.35,2.71
2022-11-11 12:35:40.0300,-1.32,1.78,-2.0,2.98
2022-11-11 12:35:40.0330,-1.39,1.79,-1.55,2.74
2022-11-11 12:35:40.0460,-1.57,2.29,-1.28,3.05
2022-11-11 12:35:40.1200,-2.03,2.89,-1.63,3.88
2022-11-11 12:35:40.1240,-2.84,3.7,-1.69,4.96
2022-11-11 12:35:40.1320,-3.93,4.75,-1.97,6.47
2022-11-11 12:35:40.1360,-4.76,5.71,-2.16,7.74
2022-11-11 12:35:40.1480,-4.89,6.04,-2.01,8.02
2022-11-11 12:35:40.1510,-4.08,5.39,-1.68,6.96
2022-11-11 12:35:40.1630,-3.47,3.82,-1.6,5.4
2022-11-11 12:35:40.1660,-3.69,2.09,-1.79,4.6
2022-11-11 12:35:40.1800,-3.8,0.98,-1.97,4.39
2022-11-11 12:35:40.1830,-3.53,0.57,-2.11,4.15
2022-11-11 12:35:40.2560,-3.0,0.66,-2.48,3.94
2022-11-11 12:35:40.2600,-2.61,0.63,-3.64,4.52
2022-11-11 12:35:40.2660,-2.57,0.2,-4.78,5.43
2022-11-11 12:35:40.2690,-3.34,-0.28,-4.46,5.57
2022-11-11 12:35:40.2820,-4.86,-1.01,-3.45,6.04
2022-11-11 12:35:40.2850,-5.76,-1.99,-2.29,6.51
2022-11-11 12:35:40.2960,-5.65,-2.87,-1.18,6.44
2022-11-11 12:35:40.3000,-5.21,-3.4,-0.36,6.23
2022-11-11 12:35:40.3130,-5.19,-3.54,0.25,6.28
2022-11-11 12:35:40.3170,-5.61,-3.34,0.79,6.57
2022-11-11 12:35:40.3920,-5.76,-3.11,1.15,6.64
2022-11-11 12:35:40.3970,-5.69,-3.12,1.35,6.62
2022-11-11 12:35:40.4010,-5.66,-3.31,1.59,6.74
2022-11-11 12:35:40.4150,-5.69,-3.33,1.99,6.88
2022-11-11 12:35:40.4180,-5.61,-3.02,2.53,6.85
2022-11-11 12:35:40.4300,-5.07,-2.43,2.99,6.36
2022-11-11 12:35:40.4330,-3.74,-1.72,3.02,5.1
2022-11-11 12:35:40.4460,-2.17,-1.16,2.64,3.6
2022-11-11 12:35:40.4500,-1.01,-0.64,2.27,2.56
2022-11-11 12:35:40.4630,0.11,0.05,2.24,2.24
2022-11-11 12:35:40.5380,1.24,0.77,2.62,2.99
2022-11-11 12:35:40.5410,2.23,1.39,3.11,4.07
2022-11-11 12:35:40.5490,2.92,1.76,3.54,4.91
2022-11-11 12:35:40.5530,3.02,1.75,3.69,5.07
2022-11-11 12:35:40.5650,2.27,1.55,3.73,4.63
2022-11-11 12:35:40.5680,1.07,1.5,3.86,4.27
2022-11-11 12:35:40.5800,0.23,1.8,4.04,4.42
2022-11-11 12:35:40.5830,-0.27,2.3,4.18,4.77
2022-11-11 12:35:40.5960,-0.37,2.65,4.09,4.88
2022-11-11 12:35:40.6000,0.03,2.57,3.97,4.72
2022-11-11 12:35:40.6750,0.88,2.36,3.67,4.45
2022-11-11 12:35:40.6790,1.99,2.33,3.21,4.43
2022-11-11 12:35:40.6840,3.07,2.44,2.57,4.68
2022-11-11 12:35:40.6980,3.99,2.52,1.99,5.12
2022-11-11 12:35:40.7010,4.9,2.63,1.77,5.83
2022-11-11 12:35:40.7130,5.63,2.57,1.59,6.38
2022-11-11 12:35:40.7170,5.73,2.2,1.5,6.31
2022-11-11 12:35:40.7300,5.53,1.83,1.43,5.99
2022-11-11 12:35:40.7330,5.12,1.7,1.29,5.54
2022-11-11 12:35:40.7460,4.52,1.61,1.17,4.93
2022-11-11 12:35:40.8220,4.11,1.43,1.09,4.48
2022-11-11 12:35:40.8260,3.9,1.33,1.18,4.28
2022-11-11 12:35:40.8320,3.72,1.41,1.26,4.17
2022-11-11 12:35:40.8360,3.59,1.57,1.5,4.19
2022-11-11 12:35:40.8480,3.68,1.64,1.77,4.4
2022-11-11 12:35:40.8510,3.56,1.54,2.07,4.39
2022-11-11 12:35:40.8630,3.19,1.22,2.32,4.12
2022-11-11 12:35:40.8660,2.67,0.81,2.55,3.77
2022-11-11 12:35:40.8800,1.7,0.52,2.98,3.46
2022-11-11 12:35:40.8830,0.55,0.21,3.37,3.42
2022-11-11 12:35:40.9590,-0.46,-0.17,3.54,3.57
2022-11-11 12:35:40.9630,-1.29,-0.6,3.58,3.85
2022-11-11 12:35:40.9690,-1.94,-1.0,3.53,4.15
2022-11-11 12:35:40.9810,-2.12,-1.34,2.96,3.87
2022-11-11 12:35:40.9850,-1.7,-1.57,1.58,2.8
2022-11-11 12:35:40.9970,-0.94,-1.33,-0.81,1.81
2022-11-11 12:35:41.0000,-0.32,-0.53,-3.45,3.5
2022-11-11 12:35:41.0130,-0.17,0.15,-5.64,5.64
2022-11-11 12:35:41.0170,-1.42,0.83,-4.51,4.8
2022-11-11 12:35:41.0300,-2.48,3.39,-1.55,4.47
2022-11-11 12:35:41.1100,-0.38,6.38,0.0,6.39
2022-11-11 12:35:41.1140,1.65,5.88,1.3,6.24
2022-11-11 12:35:41.1320,2.7,2.85,0.93,4.03
2022-11-11 12:35:41.1350,2.92,0.39,0.51,2.98
2022-11-11 12:35:41.1480,1.91,-1.13,0.88,2.38
2022-11-11 12:35:41.1520,0.21,-1.39,1.23,1.86
2022-11-11 12:35:41.1630,-1.15,-1.03,1.48,2.13
2022-11-11 12:35:41.1670,-2.29,-0.83,1.16,2.69
2022-11-11 12:35:41.1800,-2.98,-0.93,0.17,3.12
2022-11-11 12:35:41.1830,-2.27,-1.21,-0.96,2.74
2022-11-11 12:35:41.2600,-0.35,-1.2,-1.68,2.09
2022-11-11 12:35:41.2640,1.45,-0.77,-1.68,2.34
2022-11-11 12:35:41.2810,2.83,-0.02,-1.68,3.29
2022-11-11 12:35:41.2850,3.74,0.73,-1.3,4.02
2022-11-11 12:35:41.2980,3.84,1.32,-0.71,4.12
2022-11-11 12:35:41.3020,2.59,1.58,-0.22,3.04
2022-11-11 12:35:41.3130,1.34,1.51,-0.02,2.01
2022-11-11 12:35:41.3170,0.17,1.03,-0.02,1.04
2022-11-11 12:35:41.3300,-1.33,0.09,-0.08,1.33
2022-11-11 12:35:41.3330,-2.93,-0.92,-0.05,3.07
2022-11-11 12:35:41.4090,-4.1,-1.37,0.44,4.34
2022-11-11 12:35:41.4140,-3.65,-0.75,0.63,3.77
2022-11-11 12:35:41.4190,-1.86,-0.04,0.55,1.94
2022-11-11 12:35:41.4320,-0.51,0.03,0.34,0.61
2022-11-11 12:35:41.4350,0.12,0.01,0.22,0.25
2022-11-11 12:35:41.4470,0.75,0.1,-0.15,0.77
2022-11-11 12:35:41.4500,1.52,0.27,-0.56,1.64
2022-11-11 12:35:41.4630,2.03,0.35,-0.89,2.24
2022-11-11 12:35:41.4660,2.09,0.39,-1.28,2.48
2022-11-11 12:35:41.4800,1.39,0.32,-1.5,2.06
2022-11-11 12:35:41.5580,0.5,0.15,-1.45,1.54
2022-11-11 12:35:41.5630,-0.38,-0.21,-1.18,1.25
2022-11-11 12:35:41.5670,-1.14,-0.34,-0.17,1.2
2022-11-11 12:35:41.5810,-1.83,-0.04,0.42,1.87
2022-11-11 12:35:41.5850,-2.35,0.32,0.28,2.38
2022-11-11 12:35:41.5970,-2.37,0.56,-0.12,2.43
2022-11-11 12:35:41.6000,-2.01,0.41,-0.69,2.16
2022-11-11 12:35:41.6130,-1.03,0.25,-0.43,1.14
2022-11-11 12:35:41.6170,0.0,0.34,-0.45,0.56
2022-11-11 12:35:41.6300,0.61,0.27,-0.83,1.06
2022-11-11 12:35:41.7070,0.64,0.03,-0.99,1.17
2022-11-11 12:35:41.7120,0.09,-0.33,-0.92,0.98
2022-11-11 12:35:41.7170,-0.47,-0.28,-0.71,0.89
2022-11-11 12:35:41.7310,-1.09,-0.02,-0.58,1.23
2022-11-11 12:35:41.7350,-1.4,0.27,-0.3,1.45
2022-11-11 12:35:41.7470,-1.23,0.43,-0.98,1.63
2022-11-11 12:35:41.7500,-0.92,0.12,-1.67,1.91
2022-11-11 12:35:41.7630,-0.27,-0.19,-1.82,1.84
2022-11-11 12:35:41.7660,0.29,-0.68,-2.65,2.75
2022-11-11 12:35:41.7800,0.53,-1.26,-2.78,3.09
2022-11-11 12:35:41.8570,0.61,-1.22,-2.24,2.62
2022-11-11 12:35:41.8610,0.6,-0.81,-2.22,2.43
2022-11-11 12:35:41.8660,0.42,-0.15,-0.81,0.92
2022-11-11 12:35:41.8810,0.0,0.82,0.14,0.83
2022-11-11 12:35:41.8850,-0.52,1.13,0.16,1.25
2022-11-11 12:35:41.8970,-0.95,1.15,0.79,1.68
2022-11-11 12:35:41.9000,-1.2,1.08,1.02,1.9
2022-11-11 12:35:41.9130,-1.48,0.87,1.08,2.02
2022-11-11 12:35:41.9160,-1.68,0.81,1.32,2.28
2022-11-11 12:35:41.9300,-1.77,0.81,1.26,2.31
2022-11-11 12:35:42.0070,-1.64,0.97,1.1,2.2
2022-11-11 12:35:42.0120,-1.44,1.27,0.97,2.15
2022-11-11 12:35:42.0170,-1.21,1.47,0.73,2.03
2022-11-11 12:35:42.0320,-0.84,1.5,0.51,1.79
2022-11-11 12:35:42.0350,-0.49,1.36,0.77,1.63
2022-11-11 12:35:42.0470,-0.38,1.13,1.02,1.56
2022-11-11 12:35:42.0500,-0.47,0.75,0.9,1.26
2022-11-11 12:35:42.0630,-0.76,0.32,0.6,1.01
2022-11-11 12:35:42.0660,-1.0,0.1,0.27,1.04
2022-11-11 12:35:42.0800,-0.95,0.2,0.15,0.98
2022-11-11 12:35:42.1580,-0.66,0.46,0.19,0.82
2022-11-11 12:35:42.1630,-0.38,0.63,0.01,0.73
2022-11-11 12:35:42.1670,-0.28,0.68,-0.29,0.79
2022-11-11 12:35:42.1810,-0.41,0.76,-0.33,0.92
2022-11-11 12:35:42.1850,-0.57,0.81,-0.29,1.03
2022-11-11 12:35:42.1970,-0.62,0.86,-0.4,1.13
2022-11-11 12:35:42.2000,-0.75,0.97,-0.55,1.34
2022-11-11 12:35:42.2130,-0.87,1.29,-0.54,1.64
2022-11-11 12:35:42.2170,-0.97,1.8,-0.77,2.18
2022-11-11 12:35:42.2300,-1.32,2.45,-0.85,2.9
2022-11-11 12:35:42.3090,-1.87,3.24,-0.96,3.86
2022-11-11 12:35:42.3140,-2.44,3.96,-1.15,4.79
2022-11-11 12:35:42.3190,-3.09,4.52,-1.4,5.65
2022-11-11 12:35:42.3310,-3.98,5.04,-1.56,6.6
2022-11-11 12:35:42.3350,-4.85,5.6,-1.29,7.51
2022-11-11 12:35:42.3460,-5.38,5.88,-0.85,8.01
2022-11-11 12:35:42.3500,-6.02,5.74,-0.38,8.32
2022-11-11 12:35:42.3630,-7.04,5.17,-0.15,8.73
2022-11-11 12:35:42.3670,-7.86,4.33,-0.32,8.97
2022-11-11 12:35:42.3800,-7.73,3.68,-0.69,8.58
2022-11-11 12:35:42.4590,-6.53,3.99,-0.92,7.7
2022-11-11 12:35:42.4640,-4.82,5.58,-0.01,7.37
2022-11-11 12:35:42.4680,-2.94,7.26,0.83,7.87
2022-11-11 12:35:42.4810,-1.83,7.47,0.45,7.7
2022-11-11 12:35:42.4850,-2.41,5.19,-1.24,5.85
2022-11-11 12:35:42.4970,-3.03,1.91,-2.51,4.37
2022-11-11 12:35:42.5000,-3.52,-0.4,-2.62,4.4
2022-11-11 12:35:42.5130,-4.08,-1.43,-2.19,4.84
2022-11-11 12:35:42.5170,-4.45,-1.74,-1.24,4.93
2022-11-11 12:35:42.5300,-4.89,-1.63,0.23,5.15
2022-11-11 12:35:42.6090,-5.04,-1.35,1.47,5.42
2022-11-11 12:35:42.6140,-5.05,-1.3,2.65,5.84
2022-11-11 12:35:42.6190,-5.29,-1.48,3.56,6.54
2022-11-11 12:35:42.6310,-5.6,-1.82,4.06,7.15
2022-11-11 12:35:42.6350,-5.85,-2.31,4.11,7.51
2022-11-11 12:35:42.6470,-5.92,-2.9,3.96,7.69
2022-11-11 12:35:42.6500,-5.98,-3.47,3.83,7.9
2022-11-11 12:35:42.6630,-5.81,-3.89,3.73,7.92
2022-11-11 12:35:42.6670,-5.52,-4.04,3.66,7.75
2022-11-11 12:35:42.6800,-5.3,-3.94,3.47,7.46
2022-11-11 12:35:42.7590,-5.12,-3.61,3.36,7.1
2022-11-11 12:35:42.7630,-4.7,-3.05,3.51,6.61
2022-11-11 12:35:42.7680,-4.1,-2.26,3.72,5.97
2022-11-11 12:35:42.7810,-3.48,-1.22,3.88,5.35
2022-11-11 12:35:42.7850,-2.86,-0.2,3.71,4.68
2022-11-11 12:35:42.7970,-1.69,0.67,3.02,3.52
2022-11-11 12:35:42.8000,0.14,1.44,2.34,2.75
2022-11-11 12:35:42.8130,2.23,2.03,1.56,3.39
2022-11-11 12:35:42.8170,3.94,2.27,0.83,4.62
2022-11-11 12:35:42.8300,4.91,2.5,0.69,5.55
2022-11-11 12:35:42.9100,5.08,2.78,0.72,5.83
2022-11-11 12:35:42.9140,4.81,2.99,0.67,5.7
2022-11-11 12:35:42.9180,4.71,3.22,0.47,5.72
2022-11-11 12:35:42.9310,4.78,3.42,0.21,5.88
2022-11-11 12:35:42.9350,4.49,3.22,-0.04,5.52
2022-11-11 12:35:42.9470,4.17,2.87,-0.5,5.08
2022-11-11 12:35:42.9500,4.29,2.86,-0.74,5.2
2022-11-11 12:35:42.9630,4.86,3.31,-0.86,5.94
2022-11-11 12:35:42.9670,5.72,4.01,-1.18,7.08
2022-11-11 12:35:42.9800,6.7,4.65,-1.57,8.3
2022-11-11 12:35:43.0600,7.55,4.92,-1.98,9.22
2022-11-11 12:35:43.0650,8.1,4.75,-2.33,9.67
2022-11-11 12:35:43.0690,8.64,4.23,-2.61,9.96
2022-11-11 12:35:43.0810,9.12,3.03,-2.64,9.96
2022-11-11 12:35:43.0850,9.09,1.58,-2.49,9.55
2022-11-11 12:35:43.0960,8.2,0.79,-2.42,8.58
2022-11-11 12:35:43.1000,6.85,0.57,-2.57,7.33
2022-11-11 12:35:43.1130,5.82,0.42,-2.75,6.45
2022-11-11 12:35:43.1160,5.57,0.49,-2.57,6.15
2022-11-11 12:35:43.1300,5.96,0.79,-2.06,6.35
2022-11-11 12:35:43.2100,6.26,0.83,-1.57,6.5
2022-11-11 12:35:43.2150,4.65,0.67,-1.47,4.92
2022-11-11 12:35:43.2190,0.59,0.97,-1.41,1.81
2022-11-11 12:35:43.2310,-4.39,1.65,-0.2,4.69
2022-11-11 12:35:43.2350,-9.36,1.95,1.64,9.7
2022-11-11 12:35:43.2470,-8.51,3.29,1.75,9.29
2022-11-11 12:35:43.2500,-2.42,5.41,3.26,6.76
2022-11-11 12:35:43.2630,0.98,4.5,4.34,6.32
2022-11-11 12:35:43.2670,0.69,1.3,2.33,2.75
2022-11-11 12:35:43.2800,-0.55,-0.86,0.17,1.03
2022-11-11 12:35:43.3610,-0.05,-1.73,-1.41,2.23
2022-11-11 12:35:43.3650,0.97,-2.06,-3.62,4.27
2022-11-11 12:35:43.3830,2.02,-1.82,-5.56,6.18
2022-11-11 12:35:43.3870,3.2,-0.59,-4.76,5.76
2022-11-11 12:35:43.3980,4.05,0.79,-1.99,4.58
2022-11-11 12:35:43.4020,4.18,0.91,-1.24,4.45
2022-11-11 12:35:43.4140,3.94,0.0,-1.78,4.32
2022-11-11 12:35:43.4180,3.56,-0.53,-1.66,3.96
2022-11-11 12:35:43.4300,3.01,-0.01,-0.88,3.13
2022-11-11 12:35:43.4330,2.08,0.93,0.23,2.29
2022-11-11 12:35:43.5140,0.91,1.69,1.28,2.3
2022-11-11 12:35:43.5180,-0.34,2.01,1.87,2.76
2022-11-11 12:35:43.5320,-1.7,1.73,2.03,3.16
2022-11-11 12:35:43.5360,-2.83,0.93,1.39,3.28
2022-11-11 12:35:43.5480,-3.23,-0.21,-0.09,3.23
2022-11-11 12:35:43.5520,-2.52,-0.99,-0.93,2.86
2022-11-11 12:35:43.5630,-1.14,-1.1,-1.22,1.99
2022-11-11 12:35:43.5670,0.09,-1.06,-1.6,1.92
2022-11-11 12:35:43.5800,0.98,-1.01,-1.74,2.23
2022-11-11 12:35:43.5830,2.3,-0.83,-1.4,2.81
2022-11-11 12:35:43.6650,3.03,-0.4,-0.64,3.12
2022-11-11 12:35:43.6690,2.33,0.07,-0.24,2.34
2022-11-11 12:35:43.6820,1.04,0.42,-0.09,1.12
2022-11-11 12:35:43.6860,-0.41,0.52,0.34,0.74
2022-11-11 12:35:43.6980,-1.83,0.38,0.34,1.89
2022-11-11 12:35:43.7020,-2.75,0.12,-0.3,2.76
2022-11-11 12:35:43.7130,-2.79,-0.11,-0.74,2.88
2022-11-11 12:35:43.7170,-1.99,-0.12,-1.22,2.33
2022-11-11 12:35:43.7300,-1.24,-0.15,-1.62,2.04
2022-11-11 12:35:43.7330,-0.86,-0.22,-1.69,1.9
2022-11-11 12:35:43.8150,-0.32,-0.16,-1.41,1.45
2022-11-11 12:35:43.8190,0.17,0.12,-0.89,0.91
2022-11-11 12:35:43.8320,0.32,0.42,-0.58,0.78
2022-11-11 12:35:43.8360,0.06,0.59,-0.55,0.8
2022-11-11 12:35:43.8480,-0.59,0.59,-0.62,1.03
2022-11-11 12:35:43.8520,-1.22,0.6,-0.39,1.41
2022-11-11 12:35:43.8630,-1.59,0.66,-0.3,1.74
2022-11-11 12:35:43.8670,-1.66,0.53,-0.26,1.76
2022-11-11 12:35:43.8800,-1.32,0.46,-0.14,1.4
2022-11-11 12:35:43.8830,-0.86,0.8,-0.28,1.2
2022-11-11 12:35:43.9650,-0.52,1.23,-0.83,1.57
2022-11-11 12:35:43.9690,-0.48,1.64,-1.12,2.04
2022-11-11 12:35:43.9820,-0.55,1.93,-1.46,2.48
2022-11-11 12:35:43.9860,-0.64,2.04,-1.29,2.49
2022-11-11 12:35:43.9980,-0.84,2.25,-0.65,2.48
2022-11-11 12:35:44.0020,-1.41,2.22,-0.85,2.76
2022-11-11 12:35:44.0130,-2.1,2.21,-0.52,3.09
2022-11-11 12:35:44.0170,-2.5,2.53,-0.44,3.58
2022-11-11 12:35:44.0300,-2.69,2.83,-0.46,3.93
2022-11-11 12:35:44.0330,-2.93,3.13,-0.29,4.29
2022-11-11 12:35:44.1160,-3.3,3.32,-0.57,4.71
2022-11-11 12:35:44.1200,-3.85,3.5,-0.57,5.23
2022-11-11 12:35:44.1320,-4.27,3.95,-0.53,5.84
2022-11-11 12:35:44.1350,-4.9,4.48,-0.98,6.71
2022-11-11 12:35:44.1480,-5.67,5.31,-0.9,7.82
2022-11-11 12:35:44.1520,-6.63,6.38,-0.8,9.23
2022-11-11 12:35:44.1630,-7.77,7.07,-0.93,10.54
2022-11-11 12:35:44.1670,-8.8,7.33,-0.84,11.48
2022-11-11 12:35:44.1800,-9.73,7.08,-0.78,12.05
2022-11-11 12:35:44.1830,-10.66,5.99,-0.97,12.26
2022-11-11 12:35:44.2670,-11.54,4.28,-1.3,12.37
2022-11-11 12:35:44.2710,-11.0,3.29,-1.7,11.6
2022-11-11 12:35:44.2820,-8.63,3.61,-3.27,9.9
2022-11-11 12:35:44.2860,-6.69,4.49,-4.15,9.06
2022-11-11 12:35:44.2980,-6.47,5.66,-3.59,9.31
2022-11-11 12:35:44.3020,-7.07,7.03,-3.08,10.43
2022-11-11 12:35:44.3130,-6.02,7.88,-2.53,10.23
2022-11-11 12:35:44.3170,-3.29,7.39,-2.76,8.54
2022-11-11 12:35:44.3300,-0.7,5.15,-3.82,6.45
2022-11-11 12:35:44.3330,-0.56,1.51,-4.59,4.86
2022-11-11 12:35:44.4180,-2.17,-1.41,-4.76,5.41
2022-11-11 12:35:44.4220,-3.07,-2.78,-4.3,5.97
2022-11-11 12:35:44.4330,-4.41,-3.6,-4.22,7.08
2022-11-11 12:35:44.4360,-6.72,-4.39,-3.7,8.83
2022-11-11 12:35:44.4480,-8.69,-5.1,-2.41,10.36
2022-11-11 12:35:44.4520,-8.21,-5.26,-0.66,9.77
2022-11-11 12:35:44.4640,-5.63,-4.77,0.41,7.39
2022-11-11 12:35:44.4670,-3.56,-4.45,0.41,5.71
2022-11-11 12:35:44.4800,-3.19,-4.8,0.09,5.76
2022-11-11 12:35:44.4830,-4.1,-5.45,-0.27,6.82
2022-11-11 12:35:44.5700,-4.81,-6.02,-0.69,7.73
2022-11-11 12:35:44.5740,-5.44,-6.51,-1.14,8.55
2022-11-11 12:35:44.5820,-6.12,-6.98,-1.56,9.41
2022-11-11 12:35:44.5860,-6.12,-7.08,-1.66,9.5
2022-11-11 12:35:44.5980,-4.99,-6.24,-0.91,8.04
2022-11-11 12:35:44.6020,-3.61,-4.6,0.27,5.85
2022-11-11 12:35:44.6140,-3.13,-3.0,0.79,4.4
2022-11-11 12:35:44.6170,-3.11,-1.7,0.25,3.55
2022-11-11 12:35:44.6300,-2.07,-0.46,-0.27,2.13
2022-11-11 12:35:44.6340,-0.09,0.61,-0.68,0.91
2022-11-11 12:35:44.7210,1.95,1.35,-1.28,2.69
2022-11-11 12:35:44.7250,3.48,2.02,-1.54,4.3
2022-11-11 12:35:44.7320,4.47,2.78,-1.86,5.58
2022-11-11 12:35:44.7360,4.98,3.72,-2.52,6.7
2022-11-11 12:35:44.7480,5.3,4.92,-3.14,7.88
2022-11-11 12:35:44.7520,6.11,6.44,-3.46,9.52
2022-11-11 12:35:44.7640,7.22,7.96,-3.63,11.34
2022-11-11 12:35:44.7670,7.94,9.23,-3.71,12.72
2022-11-11 12:35:44.7800,8.4,10.1,-3.76,13.66
2022-11-11 12:35:44.7830,9.37,10.51,-3.93,14.61
2022-11-11 12:35:44.8740,11.42,10.38,-4.42,16.05
2022-11-11 12:35:44.8770,13.99,9.57,-4.28,17.48
2022-11-11 12:35:44.8820,15.52,7.28,-3.25,17.44
2022-11-11 12:35:44.8860,15.83,4.32,-2.6,16.61
2022-11-11 12:35:44.8980,15.03,2.77,-2.19,15.43
2022-11-11 12:35:44.9020,13.18,2.87,-1.78,13.6
2022-11-11 12:35:44.9140,11.79,3.01,-1.38,12.24
2022-11-11 12:35:44.9170,10.73,2.7,-1.14,11.12
2022-11-11 12:35:44.9300,9.19,2.39,-0.89,9.53
2022-11-11 12:35:44.9360,6.5,2.48,-0.64,6.98
2022-11-11 12:35:44.9420,0.86,3.03,0.36,3.17
2022-11-11 12:35:45.0300,-6.39,3.7,2.77,7.88
2022-11-11 12:35:45.0340,-12.15,3.17,4.64,13.38
2022-11-11 12:35:45.0490,-9.24,4.93,4.78,11.51
2022-11-11 12:35:45.0520,-1.69,8.0,5.87,10.06
2022-11-11 12:35:45.0650,2.77,6.29,5.0,8.49
2022-11-11 12:35:45.0680,3.84,1.63,1.14,4.32
2022-11-11 12:35:45.0800,3.09,-1.19,-2.61,4.21
2022-11-11 12:35:45.0830,3.2,-2.43,-5.27,6.62
2022-11-11 12:35:45.0970,3.72,-2.86,-7.09,8.5
2022-11-11 12:35:45.1870,4.04,-2.31,-6.72,8.17
2022-11-11 12:35:45.1910,4.26,-1.82,-3.96,6.09
2022-11-11 12:35:45.1990,4.62,-1.63,-3.06,5.77
2022-11-11 12:35:45.2020,4.94,-1.57,-3.23,6.1
2022-11-11 12:35:45.2150,5.29,-1.66,-2.66,6.14
2022-11-11 12:35:45.2190,4.05,-0.78,-1.19,4.29
2022-11-11 12:35:45.2300,2.29,0.73,0.91,2.57
2022-11-11 12:35:45.2330,0.58,2.01,2.53,3.28
2022-11-11 12:35:45.2470,-1.37,2.63,2.76,4.05
2022-11-11 12:35:45.2500,-3.24,2.28,2.05,4.46
2022-11-11 12:35:45.3420,-4.5,1.29,0.78,4.74
2022-11-11 12:35:45.3470,-5.1,0.29,-0.81,5.17
2022-11-11 12:35:45.3510,-4.28,-0.5,-1.85,4.68
2022-11-11 12:35:45.3650,-1.71,-0.9,-2.34,3.03
2022-11-11 12:35:45.3680,1.25,-1.34,-2.24,2.89
2022-11-11 12:35:45.3800,3.85,-1.44,-1.53,4.38
2022-11-11 12:35:45.3830,4.09,-0.75,-0.89,4.25
2022-11-11 12:35:45.3970,2.35,0.44,-0.37,2.41
2022-11-11 12:35:45.4000,0.72,1.21,0.09,1.41
2022-11-11 12:35:45.4130,-0.58,1.06,0.16,1.21
2022-11-11 12:35:45.5050,-2.28,0.45,-0.29,2.34
2022-11-11 12:35:45.5090,-3.51,0.03,-0.12,3.51
2022-11-11 12:35:45.5160,-3.06,0.16,0.07,3.06
2022-11-11 12:35:45.5190,-1.62,0.25,-0.03,1.63
2022-11-11 12:35:45.5310,-0.82,0.01,-0.16,0.83
2022-11-11 12:35:45.5350,-0.3,-0.19,-0.19,0.4
2022-11-11 12:35:45.5470,0.37,-0.05,-0.35,0.51
2022-11-11 12:35:45.5500,0.89,0.36,-0.55,1.1
2022-11-11 12:35:45.5640,0.96,0.83,-0.68,1.43
2022-11-11 12:35:45.5670,0.51,1.01,-0.88,1.43
2022-11-11 12:35:45.6600,0.03,0.96,-0.63,1.14
2022-11-11 12:35:45.6650,-0.51,0.89,-0.37,1.09
2022-11-11 12:35:45.6690,-0.68,0.92,-0.66,1.32
2022-11-11 12:35:45.6810,-0.92,1.04,-0.42,1.45
2022-11-11 12:35:45.6850,-1.19,1.37,-0.49,1.87
2022-11-11 12:35:45.6970,-1.28,1.44,-1.52,2.45
2022-11-11 12:35:45.7000,-1.42,1.5,-1.74,2.7
2022-11-11 12:35:45.7130,-1.44,2.01,-1.79,3.05
2022-11-11 12:35:45.7170,-1.53,2.36,-1.84,3.36
2022-11-11 12:35:45.7300,-1.7,2.8,-1.35,3.54
2022-11-11 12:35:45.8230,-1.91,3.27,-1.11,3.94
2022-11-11 12:35:45.8270,-2.4,3.62,-0.81,4.41
2022-11-11 12:35:45.8320,-2.98,4.0,-0.48,5.01
2022-11-11 12:35:45.8360,-3.72,4.15,-0.51,5.59
2022-11-11 12:35:45.8480,-4.48,4.04,-0.63,6.06
2022-11-11 12:35:45.8520,-5.17,4.01,-0.74,6.58
2022-11-11 12:35:45.8640,-5.77,4.14,-0.98,7.16
2022-11-11 12:35:45.8670,-6.23,4.55,-0.87,7.76
2022-11-11 12:35:45.8800,-6.85,5.19,-0.93,8.64
2022-11-11 12:35:45.8830,-8.14,5.87,-0.93,10.07
2022-11-11 12:35:45.9770,-9.32,6.58,-0.65,11.42
2022-11-11 12:35:45.9830,-9.93,6.98,-0.19,12.13
2022-11-11 12:35:45.9860,-10.31,6.57,-0.16,12.22
2022-11-11 12:35:45.9980,-10.14,5.49,-1.1,11.58
2022-11-11 12:35:46.0020,-9.39,4.59,-2.43,10.73
2022-11-11 12:35:46.0130,-8.02,4.54,-4.45,10.23
2022-11-11 12:35:46.0170,-6.67,5.03,-5.42,9.95
2022-11-11 12:35:46.0300,-6.72,5.82,-4.74,10.07
2022-11-11 12:35:46.0340,-7.43,6.8,-3.43,10.64
2022-11-11 12:35:46.0470,-6.0,7.84,-1.86,10.04
2022-11-11 12:35:46.1410,-2.53,7.96,-2.43,8.69
2022-11-11 12:35:46.1460,-0.25,5.62,-3.75,6.76
2022-11-11 12:35:46.1510,-2.76,1.36,-4.15,5.16
2022-11-11 12:35:46.1650,-5.65,-1.7,-3.79,7.01
2022-11-11 12:35:46.1690,-6.8,-3.29,-3.41,8.28
2022-11-11 12:35:46.1800,-7.7,-4.59,-2.08,9.2
2022-11-11 12:35:46.1840,-7.82,-5.58,-0.82,9.64
2022-11-11 12:35:46.1970,-6.91,-5.9,0.21,9.08
2022-11-11 12:35:46.2000,-5.9,-5.44,0.63,8.04
2022-11-11 12:35:46.2130,-5.69,-5.16,0.42,7.69
2022-11-11 12:35:46.3080,-6.14,-5.49,0.44,8.24
2022-11-11 12:35:46.3120,-6.35,-5.81,0.62,8.62
2022-11-11 12:35:46.3170,-6.1,-5.96,0.7,8.55
2022-11-11 12:35:46.3320,-6.0,-6.08,0.83,8.58
2022-11-11 12:35:46.3350,-6.06,-6.11,0.79,8.64
2022-11-11 12:35:46.3470,-6.1,-6.03,0.36,8.58
2022-11-11 12:35:46.3500,-6.02,-5.66,-0.02,8.26
2022-11-11 12:35:46.3640,-5.19,-4.78,0.05,7.05
2022-11-11 12:35:46.3670,-3.87,-3.47,1.05,5.3
2022-11-11 12:35:46.3800,-2.76,-1.88,2.21,4.0
2022-11-11 12:35:46.4760,-2.1,-0.25,2.24,3.08
2022-11-11 12:35:46.4800,-1.32,1.25,1.46,2.33
2022-11-11 12:35:46.4850,0.2,2.69,0.84,2.82
2022-11-11 12:35:46.4980,2.03,3.83,0.17,4.33
2022-11-11 12:35:46.5020,3.27,4.58,-0.15,5.62
2022-11-11 12:35:46.5140,3.45,5.4,-0.33,6.41
2022-11-11 12:35:46.5170,3.33,6.68,-0.63,7.49
2022-11-11 12:35:46.5300,3.87,8.32,-1.01,9.23
2022-11-11 12:35:46.5330,5.18,10.2,-1.63,11.55
2022-11-11 12:35:46.5470,6.77,11.74,-2.3,13.74
2022-11-11 12:35:46.6440,8.38,12.33,-2.6,15.13
2022-11-11 12:35:46.6480,9.82,11.92,-3.02,15.73
2022-11-11 12:35:46.6660,11.5,10.95,-3.63,16.28
2022-11-11 12:35:46.6690,13.42,9.11,-3.93,16.68
2022-11-11 12:35:46.6820,15.0,6.22,-3.23,16.55
2022-11-11 12:35:46.6850,16.15,3.64,-2.49,16.74
2022-11-11 12:35:46.6970,16.59,2.66,-2.26,16.95
2022-11-11 12:35:46.7000,15.73,3.0,-2.16,16.15
2022-11-11 12:35:46.7140,13.03,2.49,-2.29,13.46
2022-11-11 12:35:46.7170,10.32,1.85,-2.53,10.78
2022-11-11 12:35:46.8150,9.17,1.47,-2.86,9.71
2022-11-11 12:35:46.8180,8.72,0.91,-3.27,9.35
2022-11-11 12:35:46.8320,7.26,0.54,-3.96,8.28
2022-11-11 12:35:46.8360,1.6,0.98,-3.87,4.3
2022-11-11 12:35:46.8480,-6.11,2.18,-0.32,6.49
2022-11-11 12:35:46.8520,-10.85,2.97,2.52,11.52
2022-11-11 12:35:46.8630,-6.16,7.78,2.28,10.18
2022-11-11 12:35:46.8670,1.01,12.3,4.51,13.13
2022-11-11 12:35:46.8800,5.09,10.92,5.71,13.33
2022-11-11 12:35:46.8840,4.61,4.37,1.51,6.52
2022-11-11 12:35:46.9820,2.93,-0.01,-0.58,2.98
2022-11-11 12:35:46.9860,2.98,-2.06,-1.45,3.9
2022-11-11 12:35:46.9990,4.0,-3.22,-2.86,5.87
2022-11-11 12:35:47.0030,4.58,-3.18,-3.15,6.4
2022-11-11 12:35:47.0150,3.24,-2.08,-2.74,4.72
2022-11-11 12:35:47.0190,0.94,-1.11,-2.69,3.05
2022-11-11 12:35:47.0310,-0.3,-1.2,-2.76,3.02
2022-11-11 12:35:47.0350,0.21,-1.77,-3.27,3.72
2022-11-11 12:35:47.0480,2.08,-2.02,-2.78,4.01
2022-11-11 12:35:47.0510,3.67,-0.86,-1.41,4.02
2022-11-11 12:35:47.1510,3.52,0.85,-0.29,3.63
2022-11-11 12:35:47.1550,1.67,1.95,0.4,2.59
2022-11-11 12:35:47.1660,-0.29,2.4,1.09,2.65
2022-11-11 12:35:47.1690,-1.36,2.47,2.04,3.48
2022-11-11 12:35:47.1820,-1.97,1.96,2.04,3.44
2022-11-11 12:35:47.1860,-2.33,0.82,0.97,2.65
2022-11-11 12:35:47.1970,-1.85,-0.26,-0.28,1.88
2022-11-11 12:35:47.2000,-0.34,-0.97,-1.21,1.58
2022-11-11 12:35:47.2130,1.36,-1.36,-1.38,2.36
2022-11-11 12:35:47.2170,2.17,-1.25,-1.11,2.73
2022-11-11 12:35:47.3170,1.94,-0.75,-0.98,2.29
2022-11-11 12:35:47.3210,1.19,-0.19,-0.42,1.27
2022-11-11 12:35:47.3320,0.07,0.16,-0.01,0.17
2022-11-11 12:35:47.3360,-1.17,0.26,-0.31,1.23
2022-11-11 12:35:47.3490,-2.14,0.35,-0.43,2.21
2022-11-11 12:35:47.3520,-2.7,0.53,-0.78,2.85
2022-11-11 12:35:47.3640,-2.21,0.61,-1.1,2.54
2022-11-11 12:35:47.3670,-1.06,0.51,-1.1,1.61
2022-11-11 12:35:47.3800,-0.25,0.15,-1.08,1.11
2022-11-11 12:35:47.3830,0.08,-0.12,-0.81,0.82
2022-11-11 12:35:47.4840,0.01,0.08,-0.65,0.65
2022-11-11 12:35:47.4880,-0.3,0.53,-0.47,0.76
2022-11-11 12:35:47.4990,-0.63,0.95,-0.41,1.21
2022-11-11 12:35:47.5030,-0.84,1.12,-0.6,1.52
2022-11-11 12:35:47.5150,-1.02,1.13,-0.68,1.66
2022-11-11 12:35:47.5190,-1.04,1.35,-0.71,1.84
2022-11-11 12:35:47.5300,-0.99,1.64,-1.01,2.16
2022-11-11 12:35:47.5340,-1.08,1.67,-1.61,2.55
2022-11-11 12:35:47.5470,-1.28,1.82,-1.5,2.68
2022-11-11 12:35:47.5500,-1.35,2.18,-2.13,3.33
2022-11-11 12:35:47.6520,-1.57,2.35,-2.26,3.61
2022-11-11 12:35:47.6560,-1.93,2.6,-1.95,3.77
2022-11-11 12:35:47.6660,-2.5,2.69,-1.19,3.86
2022-11-11 12:35:47.6700,-2.91,2.81,-0.3,4.05
2022-11-11 12:35:47.6820,-3.38,3.0,0.28,4.52
2022-11-11 12:35:47.6850,-3.92,3.19,0.61,5.09
2022-11-11 12:35:47.6970,-4.32,3.38,0.85,5.55
2022-11-11 12:35:47.7010,-4.75,3.58,0.84,6.0
2022-11-11 12:35:47.7130,-5.43,3.68,0.43,6.57
2022-11-11 12:35:47.7170,-6.37,3.89,0.15,7.46
2022-11-11 12:35:47.8200,-7.43,4.61,0.03,8.74
2022-11-11 12:35:47.8240,-8.42,5.72,-0.21,10.18
2022-11-11 12:35:47.8320,-8.9,6.77,-0.17,11.18
2022-11-11 12:35:47.8360,-9.15,7.23,-0.45,11.67
2022-11-11 12:35:47.8490,-9.49,6.6,-1.53,11.66
2022-11-11 12:35:47.8520,-9.79,5.17,-2.65,11.38
2022-11-11 12:35:47.8630,-9.42,3.88,-3.45,10.75
2022-11-11 12:35:47.8670,-8.18,3.57,-4.46,9.97
2022-11-11 12:35:47.8800,-6.8,4.28,-4.72,9.31
2022-11-11 12:35:47.8840,-6.4,5.25,-4.14,9.25
2022-11-11 12:35:47.9870,-6.47,5.85,-3.75,9.49
2022-11-11 12:35:47.9910,-5.34,5.93,-2.49,8.35
2022-11-11 12:35:47.9990,-2.82,6.56,-1.37,7.27
2022-11-11 12:35:48.0030,0.02,6.45,-3.15,7.17
2022-11-11 12:35:48.0150,-0.65,3.79,-4.62,6.01
2022-11-11 12:35:48.0190,-4.32,0.5,-4.36,6.15
2022-11-11 12:35:48.0310,-5.76,-1.16,-3.95,7.07
2022-11-11 12:35:48.0340,-5.92,-2.26,-4.06,7.52
2022-11-11 12:35:48.0470,-7.04,-3.44,-3.32,8.5
2022-11-11 12:35:48.0500,-9.2,-4.57,-1.97,10.45
2022-11-11 12:35:48.1550,-10.5,-5.45,-0.49,11.84
2022-11-11 12:35:48.1580,-8.47,-5.23,0.14,9.95
2022-11-11 12:35:48.1660,-5.46,-4.94,0.48,7.37
2022-11-11 12:35:48.1700,-4.17,-5.47,0.36,6.88
2022-11-11 12:35:48.1820,-4.39,-5.92,0.28,7.37
2022-11-11 12:35:48.1850,-4.65,-5.88,0.31,7.5
2022-11-11 12:35:48.1970,-4.86,-5.83,0.22,7.59
2022-11-11 12:35:48.2000,-5.58,-5.9,0.02,8.12
2022-11-11 12:35:48.2140,-6.05,-5.68,-0.18,8.3
2022-11-11 12:35:48.2170,-5.73,-4.99,-0.14,7.59
2022-11-11 12:35:48.3220,-4.9,-3.82,0.5,6.23
2022-11-11 12:35:48.3250,-3.72,-2.41,1.62,4.71
2022-11-11 12:35:48.3330,-2.54,-1.04,2.14,3.48
2022-11-11 12:35:48.3360,-1.73,0.4,2.05,2.71
2022-11-11 12:35:48.3480,-0.59,2.02,1.71,2.71
2022-11-11 12:35:48.3510,1.09,3.64,1.52,4.09
2022-11-11 12:35:48.3640,2.32,4.8,1.41,5.51
2022-11-11 12:35:48.3670,3.01,5.55,0.76,6.35
2022-11-11 12:35:48.3800,3.74,6.41,-0.41,7.43
2022-11-11 12:35:48.3840,4.34,7.1,-1.58,8.47
2022-11-11 12:35:48.4940,4.89,7.64,-2.46,9.39
2022-11-11 12:35:48.4980,5.74,8.69,-2.94,10.82
2022-11-11 12:35:48.5160,7.41,10.26,-3.38,13.09
2022-11-11 12:35:48.5190,9.74,11.56,-4.22,15.69
2022-11-11 12:35:48.5320,12.52,11.96,-5.24,18.09
2022-11-11 12:35:48.5360,15.54,10.63,-6.08,19.78
2022-11-11 12:35:48.5470,17.92,7.81,-5.35,20.26
2022-11-11 12:35:48.5500,18.49,4.4,-3.47,19.32
2022-11-11 12:35:48.5640,16.27,2.38,-2.74,16.66
2022-11-11 12:35:48.5670,13.4,2.75,-3.28,14.06
2022-11-11 12:35:48.6750,12.21,2.91,-3.95,13.15
2022-11-11 12:35:48.6800,11.18,2.27,-4.25,12.17
2022-11-11 12:35:48.6850,10.11,1.59,-4.28,11.09
2022-11-11 12:35:48.6980,9.23,1.48,-4.22,10.25
2022-11-11 12:35:48.7020,7.59,1.8,-4.31,8.91
2022-11-11 12:35:48.7140,1.82,2.31,-2.77,4.03
2022-11-11 12:35:48.7170,-6.05,3.47,1.64,7.16
2022-11-11 12:35:48.7300,-11.42,5.04,4.62,13.31
2022-11-11 12:35:48.7340,-6.95,8.98,5.0,12.4
2022-11-11 12:35:48.7470,0.9,10.6,5.13,11.81
2022-11-11 12:35:48.8570,4.78,6.33,4.36,9.05
2022-11-11 12:35:48.8600,3.75,0.4,0.42,3.79
2022-11-11 12:35:48.8660,3.27,-2.49,-2.19,4.65
2022-11-11 12:35:48.8690,4.21,-3.24,-3.16,6.18
2022-11-11 12:35:48.8820,3.92,-2.39,-2.89,5.42
2022-11-11 12:35:48.8850,2.44,-1.01,-2.64,3.73
2022-11-11 12:35:48.8970,1.57,-0.52,-3.21,3.61
2022-11-11 12:35:48.9000,1.37,-0.8,-3.31,3.67
2022-11-11 12:35:48.9140,1.17,-1.68,-2.92,3.56
2022-11-11 12:35:48.9170,1.47,-2.13,-3.48,4.33
2022-11-11 12:35:49.0280,1.66,-2.03,-3.56,4.42
2022-11-11 12:35:49.0320,1.38,-1.54,-3.33,3.91
2022-11-11 12:35:49.0490,0.8,-0.77,-2.24,2.5
2022-11-11 12:35:49.0520,0.53,0.38,0.12,0.66
2022-11-11 12:35:49.0650,0.8,2.01,2.99,3.69
2022-11-11 12:35:49.0690,0.52,3.18,4.58,5.59
2022-11-11 12:35:49.0800,-0.16,3.3,3.84,5.06
2022-11-11 12:35:49.0840,-1.05,2.23,1.88,3.09
2022-11-11 12:35:49.0970,-1.98,0.33,0.07,2.0
2022-11-11 12:35:49.1000,-1.68,-1.04,-0.67,2.08
2022-11-11 12:35:49.2120,-0.3,-1.12,-0.9,1.46
2022-11-11 12:35:49.2160,1.14,-0.6,-1.68,2.11
2022-11-11 12:35:49.2330,2.44,-0.33,-1.92,3.12
2022-11-11 12:35:49.2360,3.1,-0.35,-1.13,3.31
2022-11-11 12:35:49.2490,2.34,-0.23,-0.01,2.35
2022-11-11 12:35:49.2520,0.48,0.39,0.65,0.89
2022-11-11 12:35:49.2640,-1.15,0.73,0.67,1.51
2022-11-11 12:35:49.2670,-1.75,0.68,0.25,1.89
2022-11-11 12:35:49.2810,-1.46,0.42,0.02,1.51
2022-11-11 12:35:49.2840,-0.73,0.34,-0.11,0.81
2022-11-11 12:35:49.4000,-0.06,0.37,-0.23,0.43
2022-11-11 12:35:49.4030,0.13,0.38,-0.4,0.56
2022-11-11 12:35:49.4160,-0.29,0.34,-0.58,0.73
2022-11-11 12:35:49.4190,-0.69,0.35,-0.61,0.98
2022-11-11 12:35:49.4320,-0.82,0.5,-0.8,1.24
2022-11-11 12:35:49.4360,-1.14,0.56,-1.17,1.72
2022-11-11 12:35:49.4470,-1.14,0.72,-0.97,1.66
2022-11-11 12:35:49.4500,-0.5,1.09,-0.74,1.4
2022-11-11 12:35:49.4640,-0.16,1.36,-0.77,1.57
2022-11-11 12:35:49.4670,-0.39,1.47,-1.11,1.88
2022-11-11 12:35:49.5810,-0.93,1.46,-1.39,2.22
2022-11-11 12:35:49.5850,-1.43,1.64,-1.41,2.59
2022-11-11 12:35:49.5990,-1.54,1.93,-1.72,3.0
2022-11-11 12:35:49.6030,-1.69,2.12,-1.98,3.35
2022-11-11 12:35:49.6150,-2.08,2.26,-1.84,3.58
2022-11-11 12:35:49.6190,-2.32,2.46,-1.58,3.73
2022-11-11 12:35:49.6300,-2.6,2.4,-1.48,3.83
2022-11-11 12:35:49.6340,-2.84,2.55,-1.25,4.01
2022-11-11 12:35:49.6470,-3.13,2.79,-1.27,4.38
2022-11-11 12:35:49.6500,-3.52,3.06,-1.3,4.84
2022-11-11 12:35:49.7650,-3.66,3.41,-1.09,5.11
2022-11-11 12:35:49.7680,-4.14,3.73,-0.78,5.62
2022-11-11 12:35:49.7830,-5.24,4.17,-0.79,6.74
2022-11-11 12:35:49.7860,-6.62,4.84,-1.21,8.28
2022-11-11 12:35:49.7990,-7.71,5.66,-1.58,9.69
2022-11-11 12:35:49.8020,-8.52,6.43,-1.83,10.82
2022-11-11 12:35:49.8140,-9.05,6.92,-2.12,11.58
2022-11-11 12:35:49.8170,-9.17,6.99,-2.4,11.77
2022-11-11 12:35:49.8300,-9.16,6.7,-2.55,11.63
2022-11-11 12:35:49.8330,-9.48,5.86,-2.84,11.5
2022-11-11 12:35:49.9510,-8.83,4.73,-3.21,10.51
2022-11-11 12:35:49.9550,-6.96,3.99,-4.69,9.29
2022-11-11 12:35:49.9660,-4.87,3.98,-5.67,8.46
2022-11-11 12:35:49.9700,-4.5,4.73,-4.75,8.07
2022-11-11 12:35:49.9820,-4.96,5.33,-3.82,8.22
2022-11-11 12:35:49.9860,-4.26,5.57,-2.1,7.32
2022-11-11 12:35:49.9970,-2.54,5.32,-2.42,6.37
2022-11-11 12:35:50.0010,-1.07,3.63,-4.07,5.55
2022-11-11 12:35:50.0140,-2.82,0.43,-4.03,4.93
2022-11-11 12:35:50.0170,-6.49,-2.28,-3.17,7.57
2022-11-11 12:35:50.1350,-8.35,-3.87,-2.85,9.63
2022-11-11 12:35:50.1380,-8.67,-4.92,-2.34,10.23
2022-11-11 12:35:50.1490,-8.01,-5.35,-1.42,9.73
2022-11-11 12:35:50.1530,-7.28,-5.09,0.01,8.88
2022-11-11 12:35:50.1650,-6.59,-4.33,0.97,7.94
2022-11-11 12:35:50.1690,-5.77,-4.2,1.05,7.21
2022-11-11 12:35:50.1810,-5.55,-5.3,0.56,7.69
2022-11-11 12:35:50.1840,-6.0,-6.52,-0.05,8.86
2022-11-11 12:35:50.1970,-6.03,-7.03,-0.37,9.26
2022-11-11 12:35:50.2010,-5.25,-7.0,-0.66,8.77
2022-11-11 12:35:50.3180,-4.71,-6.79,-0.9,8.31
2022-11-11 12:35:50.3230,-4.83,-6.51,-1.04,8.17
2022-11-11 12:35:50.3330,-4.75,-6.16,-1.4,7.9
2022-11-11 12:35:50.3360,-4.24,-5.37,-0.7,6.87
2022-11-11 12:35:50.3480,-3.31,-3.66,1.24,5.08
2022-11-11 12:35:50.3520,-2.4,-1.43,2.57,3.79
2022-11-11 12:35:50.3640,-1.92,0.44,1.93,2.75
2022-11-11 12:35:50.3670,-1.06,2.08,0.98,2.53
2022-11-11 12:35:50.3800,0.54,3.54,0.78,3.66
2022-11-11 12:35:50.3840,2.21,4.38,0.13,4.9
2022-11-11 12:35:50.5040,3.23,4.68,-0.52,5.71
2022-11-11 12:35:50.5080,3.11,5.13,-0.84,6.05
2022-11-11 12:35:50.5160,2.91,6.4,-1.31,7.15
2022-11-11 12:35:50.5190,3.3,8.07,-1.56,8.85
2022-11-11 12:35:50.5320,4.15,8.86,-2.15,10.01
2022-11-11 12:35:50.5350,5.52,8.99,-2.96,10.95
2022-11-11 12:35:50.5470,7.31,9.34,-3.86,12.47
2022-11-11 12:35:50.5510,9.38,10.1,-4.46,14.48
2022-11-11 12:35:50.5640,11.53,10.23,-4.82,16.15
2022-11-11 12:35:50.5670,13.35,9.14,-4.81,16.87
2022-11-11 12:35:50.6890,14.16,6.81,-3.97,16.2
2022-11-11 12:35:50.6920,13.76,4.19,-2.88,14.66
2022-11-11 12:35:50.6990,13.0,3.34,-2.02,13.57
2022-11-11 12:35:50.7030,12.89,3.4,-1.42,13.4
2022-11-11 12:35:50.7150,12.83,3.21,-1.41,13.3
2022-11-11 12:35:50.7190,11.65,2.55,-1.55,12.02
2022-11-11 12:35:50.7300,9.87,1.67,-1.81,10.17
2022-11-11 12:35:50.7340,8.78,1.16,-1.8,9.03
2022-11-11 12:35:50.7470,8.43,1.18,-1.3,8.61
2022-11-11 12:35:50.7500,7.44,1.55,-0.93,7.65
2022-11-11 12:35:50.8740,2.92,1.94,-0.78,3.59
2022-11-11 12:35:50.8780,-5.13,2.85,1.88,6.16
2022-11-11 12:35:50.8830,-12.64,3.42,4.54,13.85
2022-11-11 12:35:50.8980,-12.04,4.48,4.57,13.63
2022-11-11 12:35:50.9020,-2.78,7.87,5.01,9.73
2022-11-11 12:35:50.9140,3.24,8.24,4.93,10.13
2022-11-11 12:35:50.9170,4.72,4.07,1.91,6.51
2022-11-11 12:35:50.9300,3.12,0.06,-0.43,3.15
2022-11-11 12:35:50.9340,2.65,-1.85,-2.58,4.13
2022-11-11 12:35:50.9470,3.63,-2.52,-4.61,6.38
2022-11-11 12:35:51.0700,4.46,-2.22,-5.98,7.78
2022-11-11 12:35:51.0740,4.15,-1.06,-4.81,6.44
2022-11-11 12:35:51.0830,3.22,-0.41,-2.74,4.24
2022-11-11 12:35:51.0860,3.03,-0.59,-2.27,3.83
2022-11-11 12:35:51.0980,2.98,-1.03,-1.5,3.49
2022-11-11 12:35:51.1020,3.39,-1.03,-1.17,3.73
2022-11-11 12:35:51.1140,3.37,-0.44,-1.31,3.64
2022-11-11 12:35:51.1170,2.46,0.24,-1.06,2.68
2022-11-11 12:35:51.1300,1.07,0.65,-0.6,1.38
2022-11-11 12:35:51.1340,-0.48,0.65,0.16,0.82
2022-11-11 12:35:51.2580,-1.63,0.59,1.02,2.01
2022-11-11 12:35:51.2620,-1.54,1.21,1.98,2.78
2022-11-11 12:35:51.2670,-1.03,1.81,1.76,2.72
2022-11-11 12:35:51.2820,-0.57,1.42,0.07,1.53
2022-11-11 12:35:51.2850,-0.26,0.25,-1.13,1.18
2022-11-11 12:35:51.2970,0.07,-0.81,-1.47,1.67
2022-11-11 12:35:51.3010,0.58,-1.16,-1.4,1.9
2022-11-11 12:35:51.3140,0.56,-0.88,-1.22,1.6
2022-11-11 12:35:51.3170,-0.11,-0.45,-1.55,1.61
2022-11-11 12:35:51.3300,-0.58,-0.41,-1.7,1.84
2022-11-11 12:35:51.4550,-0.75,-0.46,-1.22,1.5
2022-11-11 12:35:51.4590,-1.16,-0.25,-0.29,1.22
2022-11-11 12:35:51.4660,-1.58,0.29,0.51,1.68
2022-11-11 12:35:51.4700,-1.4,0.75,0.97,1.86
2022-11-11 12:35:51.4820,-0.88,0.74,0.74,1.36
2022-11-11 12:35:51.4860,-0.41,0.52,0.57,0.87
2022-11-11 12:35:51.4970,-0.27,0.29,0.25,0.46
2022-11-11 12:35:51.5010,-0.32,0.05,-0.2,0.38
2022-11-11 12:35:51.5140,-0.18,0.07,-0.57,0.6
2022-11-11 12:35:51.5170,-0.01,0.19,-0.77,0.79
2022-11-11 12:35:51.6420,-0.14,0.26,-0.75,0.8
2022-11-11 12:35:51.6480,-0.42,0.29,-0.74,0.89
2022-11-11 12:35:51.6530,-0.7,0.28,-0.59,0.95
2022-11-11 12:35:51.6650,-0.7,0.47,-0.29,0.89
2022-11-11 12:35:51.6680,-0.74,0.58,-0.01,0.94
2022-11-11 12:35:51.6800,-0.81,0.57,-0.01,0.99
2022-11-11 12:35:51.6830,-0.6,0.57,-0.42,0.92
2022-11-11 12:35:51.6970,-0.49,0.62,-0.93,1.22
2022-11-11 12:35:51.7000,-0.49,0.77,-1.31,1.59
2022-11-11 12:35:51.7140,-0.32,1.02,-1.33,1.7
2022-11-11 12:35:51.8400,-0.26,1.34,-1.14,1.77
2022-11-11 12:35:51.8430,-0.44,1.4,-1.06,1.81
2022-11-11 12:35:51.8500,-0.92,1.29,-0.44,1.64
2022-11-11 12:35:51.8530,-1.46,1.24,-0.38,1.95
2022-11-11 12:35:51.8650,-2.05,1.21,-0.42,2.41
2022-11-11 12:35:51.8690,-2.11,1.44,-0.8,2.67
2022-11-11 12:35:51.8800,-1.98,1.77,-0.52,2.7
2022-11-11 12:35:51.8840,-1.61,2.33,-0.38,2.85
2022-11-11 12:35:51.8970,-1.56,2.45,-0.83,3.02
2022-11-11 12:35:51.9010,-1.78,2.48,-0.93,3.19
2022-11-11 12:35:52.0280,-2.08,2.69,-1.17,3.59
2022-11-11 12:35:52.0330,-2.37,3.18,-1.31,4.17
2022-11-11 12:35:52.0500,-2.93,3.97,-1.46,5.14
2022-11-11 12:35:52.0540,-3.78,4.77,-1.49,6.26
2022-11-11 12:35:52.0660,-4.66,5.43,-1.44,7.29
2022-11-11 12:35:52.0690,-5.47,5.82,-1.34,8.09
2022-11-11 12:35:52.0810,-6.13,5.99,-1.09,8.63
2022-11-11 12:35:52.0840,-6.62,6.11,-0.79,9.04
2022-11-11 12:35:52.0970,-7.53,5.95,-0.95,9.64
2022-11-11 12:35:52.1010,-8.66,5.29,-1.18,10.21
2022-11-11 12:35:52.2270,-9.37,4.37,-1.09,10.39
2022-11-11 12:35:52.2320,-9.3,3.48,-1.77,10.08
2022-11-11 12:35:52.2360,-8.44,2.81,-2.54,9.25
2022-11-11 12:35:52.2490,-6.81,2.77,-2.99,7.93
2022-11-11 12:35:52.2520,-4.64,3.51,-2.43,6.3
2022-11-11 12:35:52.2640,-2.85,4.58,-2.12,5.79
2022-11-11 12:35:52.2670,-1.71,4.72,-3.01,5.85
2022-11-11 12:35:52.2810,-2.59,2.87,-4.36,5.82
2022-11-11 12:35:52.2840,-5.1,-0.09,-5.53,7.52
2022-11-11 12:35:52.2970,-6.97,-2.28,-5.55,9.19
2022-11-11 12:35:52.4220,-7.35,-3.4,-4.59,9.3
2022-11-11 12:35:52.4250,-6.14,-3.78,-3.23,7.9
2022-11-11 12:35:52.4330,-4.96,-3.9,-1.83,6.56
2022-11-11 12:35:52.4360,-4.82,-4.05,-0.9,6.35
2022-11-11 12:35:52.4490,-4.88,-4.06,-0.73,6.38
2022-11-11 12:35:52.4520,-4.8,-3.87,-0.77,6.21
2022-11-11 12:35:52.4640,-5.18,-3.73,-0.7,6.42
2022-11-11 12:35:52.4670,-5.7,-3.98,-1.01,7.02
2022-11-11 12:35:52.4810,-5.9,-4.51,-1.4,7.55
2022-11-11 12:35:52.4840,-5.51,-4.96,-1.72,7.61
2022-11-11 12:35:52.6100,-4.64,-4.84,-1.68,6.91
2022-11-11 12:35:52.6140,-4.04,-4.03,-1.25,5.84
2022-11-11 12:35:52.6190,-3.81,-2.81,-0.87,4.81
2022-11-11 12:35:52.6320,-3.48,-1.4,-0.45,3.77
2022-11-11 12:35:52.6360,-2.99,0.04,-0.3,3.0
2022-11-11 12:35:52.6470,-2.41,1.42,-0.28,2.81
2022-11-11 12:35:52.6510,-1.37,2.52,-0.54,2.91
2022-11-11 12:35:52.6640,-0.15,3.09,-1.12,3.29
2022-11-11 12:35:52.6670,0.38,3.15,-2.08,3.79
2022-11-11 12:35:52.6800,0.38,3.09,-3.4,4.61
2022-11-11 12:35:52.8060,0.46,3.05,-4.9,5.79
2022-11-11 12:35:52.8100,1.08,3.09,-6.63,7.39
2022-11-11 12:35:52.8160,2.09,3.25,-8.14,9.01
2022-11-11 12:35:52.8200,3.26,3.49,-9.18,10.34
2022-11-11 12:35:52.8320,4.41,3.75,-10.16,11.69
2022-11-11 12:35:52.8350,5.11,3.86,-10.84,12.59
2022-11-11 12:35:52.8470,5.58,3.68,-11.46,13.26
2022-11-11 12:35:52.8500,6.03,3.02,-12.12,13.86
2022-11-11 12:35:52.8640,6.24,1.89,-12.67,14.24
2022-11-11 12:35:52.8670,6.53,0.51,-13.3,14.82
2022-11-11 12:35:52.9910,6.92,-0.85,-13.99,15.63
2022-11-11 12:35:52.9950,7.23,-2.05,-14.06,15.94
2022-11-11 12:35:53.0000,7.77,-2.92,-13.6,15.93
2022-11-11 12:35:53.0030,8.62,-3.16,-12.52,15.52
2022-11-11 12:35:53.0150,9.33,-2.73,-11.09,14.74
2022-11-11 12:35:53.0190,9.35,-1.74,-9.84,13.68
2022-11-11 12:35:53.0310,8.09,-0.49,-7.87,11.29
2022-11-11 12:35:53.0340,7.55,1.0,-4.85,9.02
2022-11-11 12:35:53.0470,10.38,3.43,-2.46,11.2
2022-11-11 12:35:53.0510,12.64,5.05,-2.22,13.79
2022-11-11 12:35:53.1740,8.61,3.89,0.04,9.44
2022-11-11 12:35:53.1780,-0.34,2.37,2.47,3.43
2022-11-11 12:35:53.1830,-7.82,1.77,2.14,8.29
2022-11-11 12:35:53.1860,-10.62,0.85,2.1,10.85
2022-11-11 12:35:53.1980,-6.54,0.89,3.61,7.52
2022-11-11 12:35:53.2020,-1.78,1.09,2.83,3.51
2022-11-11 12:35:53.2140,0.85,0.82,0.53,1.29
2022-11-11 12:35:53.2180,1.73,0.32,-1.21,2.13
2022-11-11 12:35:53.2300,1.39,-0.49,-1.6,2.17
2022-11-11 12:35:53.2340,2.02,-0.82,-1.48,2.63
2022-11-11 12:35:53.3560,3.15,-1.23,-1.57,3.72
2022-11-11 12:35:53.3600,2.83,-1.46,-1.2,3.4
2022-11-11 12:35:53.3660,1.3,-0.97,-1.11,1.96
2022-11-11 12:35:53.3700,0.26,-0.11,-1.42,1.44
2022-11-11 12:35:53.3820,-0.32,0.58,-1.33,1.48
2022-11-11 12:35:53.3860,-0.95,1.02,-0.73,1.57
2022-11-11 12:35:53.3980,-1.16,1.26,-0.27,1.73
2022-11-11 12:35:53.4020,-0.85,1.13,-0.32,1.44
2022-11-11 12:35:53.4150,-0.29,0.66,-0.62,0.95
2022-11-11 12:35:53.4190,0.17,0.12,-0.67,0.7
2022-11-11 12:35:53.5420,0.4,-0.23,-0.59,0.74
2022-11-11 12:35:53.5470,0.49,-0.33,-0.67,0.89
2022-11-11 12:35:53.5520,0.41,-0.28,-0.44,0.66
2022-11-11 12:35:53.5650,0.39,-0.14,-0.36,0.54
2022-11-11 12:35:53.5690,0.26,-0.12,-0.86,0.9
2022-11-11 12:35:53.5810,-0.09,-0.25,-1.44,1.46
2022-11-11 12:35:53.5840,-0.58,-0.46,-1.58,1.74
2022-11-11 12:35:53.5980,-1.16,-0.53,-1.16,1.72
2022-11-11 12:35:53.6010,-1.58,-0.22,-0.8,1.78
2022-11-11 12:35:53.6140,-1.69,0.27,-0.23,1.72
2022-11-11 12:35:53.7360,-1.72,0.58,-0.36,1.85
2022-11-11 12:35:53.7400,-1.41,0.46,-0.88,1.72
2022-11-11 12:35:53.7490,-0.83,0.33,-0.54,1.04
2022-11-11 12:35:53.7530,-0.41,0.4,-0.77,0.95
2022-11-11 12:35:53.7650,-0.13,0.23,-1.09,1.12
2022-11-11 12:35:53.7690,0.04,0.04,-0.75,0.75
2022-11-11 12:35:53.7810,0.32,0.02,-0.39,0.5
2022-11-11 12:35:53.7840,0.39,0.14,0.21,0.46
2022-11-11 12:35:53.7970,-0.33,0.31,0.86,0.97
2022-11-11 12:35:53.8010,-1.07,0.32,1.02,1.51
2022-11-11 12:35:53.9200,-1.42,0.24,0.61,1.56
2022-11-11 12:35:53.9240,-1.57,0.21,-0.25,1.6
2022-11-11 12:35:53.9330,-0.96,0.34,-0.69,1.23
2022-11-11 12:35:53.9360,0.23,0.6,-0.85,1.06
2022-11-11 12:35:53.9490,0.88,0.61,-1.53,1.86
2022-11-11 12:35:53.9520,1.23,0.49,-1.41,1.93
2022-11-11 12:35:53.9640,0.94,0.39,-1.04,1.45
2022-11-11 12:35:53.9670,0.17,0.26,-0.19,0.36
2022-11-11 12:35:53.9810,-0.61,0.25,0.64,0.91
2022-11-11 12:35:53.9840,-1.36,0.24,0.55,1.48
2022-11-11 12:35:54.1070,-1.85,0.19,0.07,1.86
2022-11-11 12:35:54.1100,-1.55,0.43,-0.32,1.64
2022-11-11 12:35:54.1160,-0.8,0.75,-0.76,1.33
2022-11-11 12:35:54.1200,-0.02,0.86,-0.9,1.24
2022-11-11 12:35:54.1320,0.64,0.98,-0.86,1.45
2022-11-11 12:35:54.1350,0.66,0.94,-1.01,1.52
2022-11-11 12:35:54.1470,-0.18,0.83,-0.31,0.9
2022-11-11 12:35:54.1510,-1.07,0.83,0.14,1.36
2022-11-11 12:35:54.1640,-1.89,0.52,0.11,1.96
2022-11-11 12:35:54.1670,-2.5,0.4,-0.03,2.53
2022-11-11 12:35:54.2830,-2.95,0.52,-0.91,3.13
2022-11-11 12:35:54.2870,-2.71,0.83,-1.56,3.23
2022-11-11 12:35:54.3000,-2.17,1.36,-2.19,3.36
2022-11-11 12:35:54.3030,-1.93,1.83,-2.89,3.92
2022-11-11 12:35:54.3150,-2.05,2.26,-3.41,4.57
2022-11-11 12:35:54.3190,-2.4,2.82,-3.72,5.24
2022-11-11 12:35:54.3310,-2.71,3.57,-3.65,5.78
2022-11-11 12:35:54.3340,-3.14,4.25,-3.63,6.41
2022-11-11 12:35:54.3470,-3.7,4.75,-3.29,6.86
2022-11-11 12:35:54.3510,-4.25,5.12,-2.79,7.21
2022-11-11 12:35:54.4700,-4.7,5.34,-2.62,7.58
2022-11-11 12:35:54.4740,-5.17,5.26,-2.82,7.89
2022-11-11 12:35:54.4830,-5.63,4.91,-3.2,8.12
2022-11-11 12:35:54.4870,-5.85,4.54,-3.49,8.18
2022-11-11 12:35:54.4990,-5.66,4.22,-4.02,8.12
2022-11-11 12:35:54.5040,-4.9,3.84,-4.48,7.66
2022-11-11 12:35:54.5150,-4.08,3.61,-4.42,7.01
2022-11-11 12:35:54.5180,-3.88,3.59,-4.27,6.79
2022-11-11 12:35:54.5310,-4.26,3.3,-4.48,7.0
2022-11-11 12:35:54.5350,-4.06,2.51,-4.79,6.76
2022-11-11 12:35:56.3140,-2.87,1.5,-5.19,6.11
2022-11-11 12:35:56.3280,-0.8,0.37,-5.88,5.94
2022-11-11 12:35:56.3430,1.24,-0.84,-6.48,6.65
2022-11-11 12:35:56.3540,0.13,-2.01,-5.91,6.24
2022-11-11 12:35:56.3640,-4.11,-2.54,-5.33,7.19
2022-11-11 12:35:56.3740,-6.07,-2.4,-5.68,8.65
2022-11-11 12:35:56.3850,-5.76,-2.57,-5.84,8.59
2022-11-11 12:35:56.3950,-5.29,-2.62,-5.86,8.31
2022-11-11 12:35:56.4050,-4.53,-2.7,-6.54,8.4
2022-11-11 12:35:56.4170,-4.14,-3.32,-6.31,8.24
2022-11-11 12:35:56.4470,-3.86,-3.55,-5.61,7.67
2022-11-11 12:35:56.4590,-3.24,-3.3,-5.08,6.86
2022-11-11 12:35:56.4700,-2.76,-3.19,-4.54,6.19
2022-11-11 12:35:56.4810,-2.85,-3.3,-4.21,6.06
2022-11-11 12:35:56.4910,-3.2,-3.42,-3.96,6.13
2022-11-11 12:35:56.5020,-3.37,-3.38,-3.57,5.96
2022-11-11 12:35:56.5120,-3.23,-3.24,-3.49,5.75
2022-11-11 12:35:57.3290,-2.84,-3.22,-3.87,5.78
2022-11-11 12:35:57.3910,-2.58,-3.34,-4.34,6.05
2022-11-11 12:35:57.4150,-2.19,-3.14,-4.37,5.8
2022-11-11 12:35:57.4860,-1.45,-2.64,-3.92,4.94
2022-11-11 12:35:57.5080,-0.78,-2.04,-3.08,3.77
2022-11-11 12:35:57.5230,-0.48,-1.45,-2.22,2.69
2022-11-11 12:35:57.5380,-0.48,-0.96,-1.82,2.11
2022-11-11 12:35:57.5530,-0.52,-0.54,-2.05,2.18
2022-11-11 12:35:57.5940,-0.09,-0.24,-2.47,2.48
2022-11-11 12:35:57.6440,0.83,-0.01,-2.85,2.96
2022-11-11 12:35:57.7720,1.78,0.34,-3.71,4.12
2022-11-11 12:35:57.7910,2.36,0.92,-4.61,5.26
2022-11-11 12:35:57.8430,2.36,1.65,-4.87,5.65
2022-11-11 12:35:57.8750,2.46,2.65,-4.72,5.94
2022-11-11 12:35:57.8870,3.51,3.74,-4.28,6.68
2022-11-11 12:35:57.9020,5.14,4.13,-3.88,7.65
2022-11-11 12:35:57.9130,6.41,3.85,-3.75,8.36
2022-11-11 12:35:57.9320,7.19,3.51,-3.72,8.82
2022-11-11 12:35:57.9430,7.78,3.37,-3.53,9.18
2022-11-11 12:35:57.9550,8.36,3.47,-3.37,9.65
2022-11-11 12:35:58.0060,8.95,3.61,-3.22,10.17
2022-11-11 12:35:58.0190,9.39,3.73,-3.09,10.56
2022-11-11 12:35:58.0350,9.7,3.93,-3.01,10.89
2022-11-11 12:35:58.0730,10.02,4.29,-2.86,11.26
2022-11-11 12:35:58.0900,10.17,4.33,-2.53,11.33
2022-11-11 12:35:58.1010,10.29,3.57,-2.17,11.1
2022-11-11 12:35:58.1110,10.77,2.42,-1.83,11.18
2022-11-11 12:35:58.1490,11.28,1.57,-1.52,11.48
2022-11-11 12:35:58.1590,10.89,1.18,-1.19,11.01
2022-11-11 12:35:58.1700,9.03,1.65,-0.84,9.21
2022-11-11 12:35:58.1810,5.11,2.74,-1.23,5.92
2022-11-11 12:35:58.2140,-0.59,3.87,0.49,3.94
2022-11-11 12:35:58.2250,-5.8,5.61,2.71,8.51
2022-11-11 12:35:58.2540,-6.65,7.92,3.55,10.93
2022-11-11 12:35:58.2650,-2.13,7.34,3.69,8.48
2022-11-11 12:35:58.2750,0.33,2.91,2.9,4.12
2022-11-11 12:35:58.2860,0.39,-1.08,1.06,1.56
2022-11-11 12:35:58.2960,0.52,-3.11,-0.03,3.15
2022-11-11 12:35:58.3060,0.78,-3.49,-1.14,3.75
2022-11-11 12:35:58.3150,1.7,-2.59,-2.33,3.87
2022-11-11 12:35:58.3260,2.55,-0.84,-2.61,3.74
2022-11-11 12:35:58.3360,2.64,0.47,-2.47,3.64
2022-11-11 12:35:58.3460,2.7,0.84,-2.67,3.88
2022-11-11 12:35:58.3780,3.17,0.73,-2.61,4.17
2022-11-11 12:35:58.4060,3.64,0.41,-2.15,4.24
2022-11-11 12:35:58.4180,3.59,0.29,-1.63,3.95
2022-11-11 12:35:58.4330,2.78,0.54,-0.97,2.99
2022-11-11 12:35:58.4520,1.65,0.79,-0.28,1.85
2022-11-11 12:35:58.4630,0.32,0.78,0.36,0.91
2022-11-11 12:35:58.4730,-1.19,0.56,0.82,1.54
2022-11-11 12:35:58.4830,-2.38,0.21,0.91,2.55
2022-11-11 12:35:58.4930,-2.95,-0.17,0.55,3.0
2022-11-11 12:35:58.5030,-2.96,-0.58,-0.09,3.01
2022-11-11 12:35:58.5320,-2.24,-1.02,-1.0,2.65
2022-11-11 12:35:58.5420,-0.74,-1.12,-1.72,2.18
2022-11-11 12:35:58.5520,0.6,-0.77,-1.76,2.01
2022-11-11 12:35:58.5620,1.19,-0.31,-1.68,2.08
2022-11-11 12:35:58.5720,1.29,-0.03,-1.31,1.83
2022-11-11 12:35:58.5820,1.08,0.16,-0.73,1.31
2022-11-11 12:35:58.5920,0.36,0.28,-0.38,0.59
2022-11-11 12:35:58.6010,-0.92,0.14,-0.01,0.93
2022-11-11 12:35:58.6110,-2.16,-0.11,0.09,2.16
2022-11-11 12:35:58.6210,-2.66,-0.22,0.1,2.67
2022-11-11 12:35:58.6510,-2.03,0.06,0.48,2.08
2022-11-11 12:35:58.6610,-1.05,0.43,0.35,1.18
2022-11-11 12:35:58.6740,-0.57,0.34,-0.17,0.68
2022-11-11 12:35:58.6840,-0.29,0.14,-0.62,0.69
2022-11-11 12:35:58.6940,0.12,0.0,-0.9,0.9
2022-11-11 12:35:58.7040,0.53,-0.02,-0.62,0.81
2022-11-11 12:35:58.7150,0.33,0.35,-0.35,0.59
2022-11-11 12:35:58.7250,-0.06,0.81,-0.26,0.85
2022-11-11 12:35:58.7350,-0.49,0.96,-0.25,1.1
2022-11-11 12:35:58.7440,-0.69,0.85,-0.25,1.12
2022-11-11 12:35:58.7730,-0.71,0.72,-0.28,1.04
2022-11-11 12:35:58.7830,-0.83,0.77,-0.35,1.18
2022-11-11 12:35:58.7930,-0.93,0.9,-0.62,1.43
2022-11-11 12:35:58.8030,-0.82,0.97,-0.75,1.47
2022-11-11 12:35:58.8130,-0.64,0.95,-0.65,1.31
2022-11-11 12:35:58.8240,-0.57,1.03,-0.64,1.33
2022-11-11 12:35:58.8340,-0.72,1.18,-0.88,1.63
2022-11-11 12:35:58.8440,-1.17,1.38,-0.59,1.9
2022-11-11 12:35:58.8540,-1.48,1.76,-0.47,2.34
2022-11-11 12:35:58.8640,-1.58,2.1,-0.57,2.68
2022-11-11 12:35:58.8920,-1.82,2.42,-0.47,3.06
2022-11-11 12:35:58.9020,-2.03,2.89,-0.41,3.55
2022-11-11 12:35:58.9120,-2.41,3.24,-0.85,4.12
2022-11-11 12:35:58.9220,-2.98,3.48,-1.05,4.7
2022-11-11 12:35:58.9320,-3.36,3.91,-1.08,5.26
2022-11-11 12:35:58.9420,-3.67,4.36,-1.14,5.81
2022-11-11 12:35:58.9520,-4.01,4.91,-0.86,6.39
2022-11-11 12:35:58.9620,-4.54,5.6,-0.8,7.25
2022-11-11 12:35:58.9720,-5.84,6.04,-1.4,8.51
2022-11-11 12:35:58.9820,-7.36,6.16,-1.56,9.72
2022-11-11 12:35:59.0120,-8.52,6.17,-1.4,10.61
2022-11-11 12:35:59.0220,-9.58,5.97,-1.48,11.38
2022-11-11 12:35:59.0350,-10.2,5.71,-2.02,11.86
2022-11-11 12:35:59.0470,-11.08,5.23,-2.77,12.56
2022-11-11 12:35:59.0570,-11.93,4.44,-2.77,13.02
2022-11-11 12:35:59.0680,-11.16,3.92,-2.38,12.06
2022-11-11 12:35:59.0790,-9.09,3.89,-2.62,10.22
2022-11-11 12:35:59.0900,-6.32,4.36,-4.05,8.68
2022-11-11 12:35:59.1000,-4.64,5.38,-4.43,8.37
2022-11-11 12:35:59.1120,-4.65,5.98,-4.64,8.88
2022-11-11 12:35:59.1430,-4.74,5.57,-4.43,8.55
2022-11-11 12:35:59.1550,-4.02,4.86,-2.69,6.85
2022-11-11 12:35:59.1650,-2.33,4.56,-1.68,5.38
2022-11-11 12:35:59.1760,-0.61,3.62,-3.13,4.82
2022-11-11 12:36:15.1930,-1.76,1.02,-3.39,3.95
2022-11-11 12:36:15.1950,-4.94,-1.44,-2.67,5.79
2022-11-11 12:36:15.1980,-6.06,-2.68,-3.06,7.29
2022-11-11 12:36:15.2000,-6.75,-3.67,-2.83,8.18
2022-11-11 12:36:15.2020,-7.69,-4.35,-2.09,9.07
2022-11-11 12:36:15.2060,-8.38,-5.35,-0.91,9.98
2022-11-11 12:36:15.2600,-7.88,-5.87,0.21,9.82
2022-11-11 12:36:15.2620,-5.85,-5.38,0.76,7.98
2022-11-11 12:36:15.2710,-4.21,-5.24,0.47,6.73
2022-11-11 12:36:15.2750,-4.03,-5.86,-0.4,7.12
2022-11-11 12:36:15.2780,-4.8,-6.43,-0.71,8.05
2022-11-11 12:36:15.2830,-5.37,-6.74,-0.75,8.65
2022-11-11 12:36:15.2880,-5.36,-6.89,-0.78,8.76
2022-11-11 12:36:15.2920,-5.0,-6.73,-0.88,8.43
2022-11-11 12:36:15.2960,-4.44,-6.23,-1.47,7.79
2022-11-11 12:36:15.3110,-3.91,-5.33,-1.43,6.76
2022-11-11 12:36:15.3330,-3.25,-3.94,-0.51,5.13
2022-11-11 12:36:15.3360,-2.42,-2.43,0.42,3.45
2022-11-11 12:36:15.3390,-1.85,-0.98,0.51,2.15
2022-11-11 12:36:15.3440,-1.14,0.65,0.08,1.31
2022-11-11 12:36:15.3490,0.4,2.28,-0.3,2.33
2022-11-11 12:36:15.3600,2.23,3.64,-0.79,4.34
2022-11-11 12:36:15.3640,3.09,4.57,-0.76,5.56
2022-11-11 12:36:15.3750,2.99,5.41,-0.61,6.21
2022-11-11 12:36:15.3780,3.3,6.79,-0.75,7.58
2022-11-11 12:36:15.3920,4.16,8.14,-0.97,9.19
2022-11-11 12:36:15.4140,5.54,8.8,-1.22,10.46
2022-11-11 12:36:15.4200,7.69,8.65,-2.06,11.75
2022-11-11 12:36:15.4260,9.37,8.45,-3.41,13.07
2022-11-11 12:36:15.4310,9.87,8.61,-4.25,13.76
2022-11-11 12:36:15.4420,10.54,8.83,-4.64,14.51
2022-11-11 12:36:15.4450,12.64,8.91,-5.11,16.28
2022-11-11 12:36:15.4610,15.43,7.99,-5.47,18.21
2022-11-11 12:36:15.4700,17.07,5.12,-4.81,18.45
2022-11-11 12:36:15.4780,17.07,1.82,-3.96,17.61
2022-11-11 12:36:15.4860,15.24,1.11,-3.63,15.7
2022-11-11 12:36:15.5170,13.1,2.01,-3.08,13.6
2022-11-11 12:36:15.5210,11.67,2.72,-2.36,12.21
2022-11-11 12:36:15.5260,10.27,3.2,-1.38,10.84
2022-11-11 12:36:15.5300,8.45,3.01,-0.49,8.98
2022-11-11 12:36:15.5420,5.75,2.77,-0.59,6.4
2022-11-11 12:36:15.5450,-0.03,2.88,-0.65,2.95
2022-11-11 12:36:15.5580,-7.99,3.43,1.54,8.83
2022-11-11 12:36:15.5620,-13.78,4.5,3.23,14.85
2022-11-11 12:36:15.5750,-8.38,8.37,4.07,12.52
2022-11-11 12:36:15.5790,-0.8,10.89,6.45,12.68
2022-11-11 12:36:15.6040,2.47,7.21,5.36,9.31
2022-11-11 12:36:15.6090,2.26,1.64,1.47,3.15
2022-11-11 12:36:15.6180,1.68,-1.67,-0.27,2.38
2022-11-11 12:36:15.6250,1.85,-3.7,-2.44,4.8
2022-11-11 12:36:15.6280,3.08,-4.43,-5.77,7.89
2022-11-11 12:36:15.6420,5.0,-3.45,-6.34,8.78
2022-11-11 12:36:15.6470,6.34,-1.01,-4.18,7.66
2022-11-11 12:36:15.6590,6.2,0.32,-3.16,6.96
2022-11-11 12:36:15.6630,4.38,0.05,-3.06,5.34
2022-11-11 12:36:15.6760,2.48,-0.41,-2.64,3.64
2022-11-11 12:36:15.7030,1.88,-0.34,-2.11,2.84
2022-11-11 12:36:15.7090,1.72,0.21,-1.03,2.01
2022-11-11 12:36:15.7150,1.31,0.94,0.5,1.68
2022-11-11 12:36:15.7250,0.06,1.4,1.41,1.98
2022-11-11 12:36:15.7300,-1.78,1.33,1.84,2.88
2022-11-11 12:36:15.7430,-3.31,0.97,2.03,4.0
2022-11-11 12:36:15.7480,-3.78,0.51,1.29,4.02
2022-11-11 12:36:15.7590,-3.35,-0.29,-0.28,3.37
2022-11-11 12:36:15.7630,-1.96,-1.12,-1.42,2.66
2022-11-11 12:36:15.7750,0.13,-1.27,-1.66,2.09
2022-11-11 12:36:15.8250,1.94,-0.98,-1.52,2.65
2022-11-11 12:36:15.8330,2.35,-0.63,-1.4,2.8
2022-11-11 12:36:15.8380,1.71,-0.49,-1.17,2.12
2022-11-11 12:36:15.8430,1.2,-0.24,-0.51,1.32
2022-11-11 12:36:15.8520,0.35,0.09,0.12,0.38
2022-11-11 12:36:15.8560,-0.94,0.4,0.57,1.16
2022-11-11 12:36:15.8670,-2.06,0.64,0.95,2.35
2022-11-11 12:36:15.8710,-2.17,0.76,0.82,2.44
2022-11-11 12:36:15.8840,-1.39,0.67,0.21,1.55
2022-11-11 12:36:15.8890,-0.44,0.44,-0.23,0.66
2022-11-11 12:36:15.9120,0.54,0.13,-0.75,0.93
2022-11-11 12:36:15.9170,1.15,-0.15,-1.01,1.53
2022-11-11 12:36:15.9220,0.86,-0.19,-1.0,1.33
2022-11-11 12:36:15.9350,0.04,0.09,-0.78,0.78
2022-11-11 12:36:15.9380,-0.85,0.54,-0.52,1.13
2022-11-11 12:36:15.9500,-1.48,0.93,-0.25,1.76
2022-11-11 12:36:15.9540,-1.56,1.25,-0.08,2.0
2022-11-11 12:36:15.9670,-1.1,1.39,-0.38,1.81
2022-11-11 12:36:15.9710,-0.7,1.16,-0.56,1.46
2022-11-11 12:36:15.9830,-0.34,1.17,-0.5,1.31
2022-11-11 12:36:16.0050,-0.31,1.4,-0.99,1.74
2022-11-11 12:36:16.0090,-0.82,1.61,-1.25,2.19
2022-11-11 12:36:16.0180,-1.25,2.04,-1.48,2.81
2022-11-11 12:36:16.0230,-1.66,2.34,-1.88,3.43
2022-11-11 12:36:16.0330,-2.26,2.71,-1.21,3.73
2022-11-11 12:36:16.0360,-2.48,3.19,-1.0,4.16
2022-11-11 12:36:16.0490,-2.76,3.42,-0.62,4.43
2022-11-11 12:36:16.0520,-3.12,3.74,-0.34,4.88
2022-11-11 12:36:16.0660,-3.65,4.0,0.04,5.41
2022-11-11 12:36:16.0690,-4.05,4.29,0.73,5.94
2022-11-11 12:36:16.0890,-4.36,4.47,0.82,6.29
2022-11-11 12:36:16.0930,-4.6,4.59,1.13,6.59
2022-11-11 12:36:16.1010,-5.13,4.68,1.12,7.03
2022-11-11 12:36:16.1050,-6.25,4.59,1.02,7.82
2022-11-11 12:36:16.1170,-7.85,4.63,0.89,9.15
2022-11-11 12:36:16.1200,-9.53,4.91,0.3,10.72
2022-11-11 12:36:16.1320,-10.64,5.3,-0.37,11.89
2022-11-11 12:36:16.1360,-11.22,5.65,-1.47,12.64
2022-11-11 12:36:16.1490,-11.12,5.77,-3.52,13.01
2022-11-11 12:36:16.1530,-11.04,5.19,-5.33,13.31
2022-11-11 12:36:16.1720,-10.25,4.71,-4.4,12.1
2022-11-11 12:36:16.1760,-8.45,5.32,-3.85,10.7
2022-11-11 12:36:16.1840,-6.76,6.44,-4.95,10.56
2022-11-11 12:36:16.1880,-6.41,6.66,-5.88,10.95
2022-11-11 12:36:16.2000,-6.82,6.05,-5.9,10.85
2022-11-11 12:36:16.2030,-6.21,5.71,-4.04,9.35
2022-11-11 12:36:16.2160,-4.2,6.0,-1.46,7.46
2022-11-11 12:36:16.2190,-0.89,6.24,-2.1,6.64
2022-11-11 12:36:16.2330,1.08,4.66,-3.39,5.86
2022-11-11 12:36:16.2360,-2.05,1.33,-3.3,4.1
2022-11-11 12:36:16.2560,-5.51,-1.21,-3.58,6.68
2022-11-11 12:36:16.2600,-6.8,-2.78,-3.28,8.04
2022-11-11 12:36:16.2670,-7.05,-4.35,-2.17,8.56
2022-11-11 12:36:16.2710,-7.41,-5.99,-0.21,9.53
2022-11-11 12:36:16.2840,-6.65,-6.43,0.79,9.28
2022-11-11 12:36:16.2870,-5.45,-6.22,0.79,8.3
2022-11-11 12:36:16.2990,-5.66,-6.42,0.82,8.59
2022-11-11 12:36:16.3030,-6.22,-6.4,0.93,8.97
2022-11-11 12:36:16.3160,-6.03,-6.24,0.95,8.72
2022-11-11 12:36:16.3200,-5.44,-6.55,0.79,8.55
2022-11-11 12:36:16.3410,-5.49,-6.98,1.01,8.93
2022-11-11 12:36:16.3440,-6.13,-6.92,0.89,9.28
2022-11-11 12:36:16.3510,-6.45,-6.57,0.21,9.2
2022-11-11 12:36:16.3550,-5.88,-5.93,0.13,8.35
2022-11-11 12:36:16.3670,-4.47,-4.55,1.28,6.5
2022-11-11 12:36:16.3710,-3.04,-2.71,2.64,4.85
2022-11-11 12:36:16.3830,-2.44,-1.04,2.62,3.72
2022-11-11 12:36:16.3870,-2.1,0.53,1.78,2.8
2022-11-11 12:36:16.3990,-0.84,2.29,1.14,2.69
2022-11-11 12:36:16.4030,1.39,4.0,0.63,4.28
2022-11-11 12:36:16.4230,3.72,5.24,-0.35,6.43
2022-11-11 12:36:16.4260,4.82,6.03,-0.81,7.76
2022-11-11 12:36:16.4340,5.02,6.93,-0.9,8.6
2022-11-11 12:36:16.4370,5.33,8.13,-1.12,9.78
2022-11-11 12:36:16.4500,6.05,9.18,-1.51,11.09
2022-11-11 12:36:16.4530,7.12,9.56,-2.23,12.12
2022-11-11 12:36:16.4660,8.75,9.81,-3.4,13.57
2022-11-11 12:36:16.4690,10.78,10.2,-4.65,15.55
2022-11-11 12:36:16.4830,12.51,10.17,-5.67,17.09
2022-11-11 12:36:16.4860,14.01,9.38,-6.7,18.14
2022-11-11 12:36:16.5070,15.52,7.55,-6.75,18.53
2022-11-11 12:36:16.5100,16.98,4.63,-5.5,18.43
2022-11-11 12:36:16.5170,17.78,2.48,-4.78,18.57
2022-11-11 12:36:16.5210,16.97,1.93,-4.79,17.73
2022-11-11 12:36:16.5340,15.6,1.81,-4.38,16.3
2022-11-11 12:36:16.5370,14.1,1.6,-3.75,14.67
2022-11-11 12:36:16.5490,12.18,1.57,-2.93,12.62
2022-11-11 12:36:16.5530,9.99,1.69,-1.74,10.28
2022-11-11 12:36:16.5660,4.85,2.21,-0.02,5.32
2022-11-11 12:36:16.5700,-5.93,3.7,3.06,7.63
2022-11-11 12:36:16.5910,-16.33,6.19,4.56,18.04
2022-11-11 12:36:16.5940,-15.92,9.41,5.46,19.28
2022-11-11 12:36:16.6010,-4.79,13.3,5.97,15.34
2022-11-11 12:36:16.6050,1.79,10.81,6.94,12.97
2022-11-11 12:36:16.6170,3.08,2.78,2.44,4.81
2022-11-11 12:36:16.6200,1.85,-2.6,-0.64,3.25
2022-11-11 12:36:16.6330,0.95,-5.34,-1.66,5.67
2022-11-11 12:36:16.6360,1.13,-6.33,-4.55,7.87
2022-11-11 12:36:16.6490,3.07,-5.47,-7.83,10.03
2022-11-11 12:36:16.6530,5.7,-3.07,-8.45,10.64
2022-11-11 12:36:16.6750,7.91,-0.08,-5.92,9.88
2022-11-11 12:36:16.6780,8.2,1.25,-4.2,9.29
2022-11-11 12:36:16.6840,6.16,0.96,-4.23,7.53
2022-11-11 12:36:16.6880,3.97,0.56,-3.08,5.05
2022-11-11 12:36:16.7000,3.25,0.6,-1.13,3.49
2022-11-11 12:36:16.7040,2.58,1.16,0.77,2.93
2022-11-11 12:36:16.7160,0.84,1.44,1.63,2.33
2022-11-11 12:36:16.7200,-1.68,1.27,2.26,3.08
2022-11-11 12:36:16.7330,-4.24,0.96,2.64,5.08
2022-11-11 12:36:16.7360,-6.36,0.44,2.06,6.69
2022-11-11 12:36:16.7580,-7.1,-0.26,0.74,7.14
2022-11-11 12:36:16.7610,-5.28,-0.86,-0.69,5.39
2022-11-11 12:36:16.7670,-2.02,-1.25,-1.59,2.85
2022-11-11 12:36:16.7710,0.77,-1.74,-2.06,2.8
2022-11-11 12:36:16.7830,2.94,-2.08,-2.1,4.16
2022-11-11 12:36:16.7870,4.61,-1.4,-1.22,4.96
2022-11-11 12:36:16.7990,4.35,-0.16,-0.52,4.38
2022-11-11 12:36:16.8030,2.73,0.79,0.05,2.84
2022-11-11 12:36:16.8160,1.48,1.43,0.74,2.18
2022-11-11 12:36:16.8200,0.21,1.55,0.84,1.77
2022-11-11 12:36:16.8420,-1.15,1.31,0.81,1.92
2022-11-11 12:36:16.8450,-1.96,1.12,0.66,2.35
2022-11-11 12:36:16.8510,-2.13,0.77,0.04,2.26
2022-11-11 12:36:16.8540,-1.7,0.22,-0.22,1.72
2022-11-11 12:36:16.8670,-0.69,-0.27,-0.59,0.94
2022-11-11 12:36:16.8700,0.11,-0.58,-0.46,0.74
2022-11-11 12:36:16.8830,0.23,-0.26,-0.44,0.56
2022-11-11 12:36:16.8860,-0.13,0.31,-0.7,0.77
2022-11-11 12:36:16.8990,-0.48,0.83,-0.73,1.2
2022-11-11 12:36:16.9030,-0.37,1.2,-0.68,1.42
2022-11-11 12:36:16.9260,-0.22,1.28,-0.81,1.53
2022-11-11 12:36:16.9310,-0.58,1.2,-1.08,1.71
2022-11-11 12:36:16.9360,-1.09,1.34,-1.15,2.07
2022-11-11 12:36:16.9500,-1.5,1.87,-1.09,2.63
2022-11-11 12:36:16.9540,-1.77,2.15,-1.17,3.02
2022-11-11 12:36:16.9660,-1.85,2.22,-0.77,2.99
2022-11-11 12:36:16.9700,-1.67,2.39,-0.82,3.02
2022-11-11 12:36:16.9830,-1.8,2.62,-1.17,3.38
2022-11-11 12:36:16.9860,-2.29,3.01,-0.74,3.85
2022-11-11 12:36:16.9990,-2.37,3.76,-0.32,4.45
2022-11-11 12:36:17.0230,-2.57,4.15,-0.44,4.9
2022-11-11 12:36:17.0260,-2.9,4.4,-0.25,5.27
2022-11-11 12:36:17.0340,-3.36,4.46,-0.07,5.58
2022-11-11 12:36:17.0380,-3.95,4.29,-0.22,5.83
2022-11-11 12:36:17.0500,-4.59,4.07,-0.18,6.13
2022-11-11 12:36:17.0540,-5.26,4.04,-0.14,6.63
2022-11-11 12:36:17.0660,-6.31,3.98,-0.1,7.46
2022-11-11 12:36:17.0700,-8.02,3.98,-0.22,8.95
2022-11-11 12:36:17.0830,-9.88,4.2,-0.56,10.75
2022-11-11 12:36:17.0860,-10.81,4.75,-0.72,11.82
2022-11-11 12:36:17.1120,-11.06,5.33,-1.1,12.32
2022-11-11 12:36:17.1190,-10.88,5.54,-2.21,12.4
2022-11-11 12:36:17.1220,-10.47,5.12,-3.63,12.2
2022-11-11 12:36:17.1340,-9.47,4.64,-4.24,11.36
2022-11-11 12:36:17.1380,-7.58,4.83,-4.86,10.21
2022-11-11 12:36:17.1490,-6.58,5.67,-5.34,10.19
2022-11-11 12:36:17.1530,-6.89,6.65,-5.53,11.05
2022-11-11 12:36:17.1660,-7.31,7.25,-4.98,11.43
2022-11-11 12:36:17.1700,-6.41,7.38,-3.78,10.48
2022-11-11 12:36:17.1830,-3.76,7.51,-2.41,8.73
2022-11-11 12:36:17.2070,-0.12,6.84,-3.02,7.47
2022-11-11 12:36:17.2100,0.33,3.96,-3.58,5.34
2022-11-11 12:36:17.2170,-3.71,0.2,-3.39,5.02
2022-11-11 12:36:17.2210,-6.63,-2.35,-3.19,7.72
2022-11-11 12:36:17.2330,-8.29,-4.38,-2.93,9.82
2022-11-11 12:36:17.2370,-8.93,-6.16,-2.45,11.12
2022-11-11 12:36:17.2490,-8.01,-7.27,-1.02,10.86
2022-11-11 12:36:17.2520,-6.49,-6.68,1.06,9.37
2022-11-11 12:36:17.2660,-5.01,-5.14,1.59,7.35
2022-11-11 12:36:17.2690,-4.36,-4.73,1.05,6.51
2022-11-11 12:36:17.2930,-4.98,-5.6,0.28,7.49
2022-11-11 12:36:17.2960,-5.73,-6.6,-0.12,8.74
2022-11-11 12:36:17.3010,-5.74,-7.22,-0.27,9.22
2022-11-11 12:36:17.3040,-5.55,-7.41,-0.35,9.26
2022-11-11 12:36:17.3170,-5.59,-7.34,-0.68,9.25
2022-11-11 12:36:17.3200,-5.64,-7.15,-1.32,9.2
2022-11-11 12:36:17.3320,-4.87,-6.28,-1.63,8.11
2022-11-11 12:36:17.3360,-3.73,-4.44,-0.57,5.82
2022-11-11 12:36:17.3490,-2.46,-2.1,1.05,3.4
2022-11-11 12:36:17.3520,-1.18,0.12,1.78,2.13
2022-11-11 12:36:17.3770,0.22,2.0,1.19,2.33
2022-11-11 12:36:17.3800,2.56,3.65,0.27,4.46
2022-11-11 12:36:17.3850,4.33,4.72,-0.59,6.43
2022-11-11 12:36:17.3880,4.49,4.95,-0.99,6.75
2022-11-11 12:36:17.4000,4.79,5.56,-1.34,7.46
2022-11-11 12:36:17.4030,5.46,7.01,-1.5,9.01
2022-11-11 12:36:17.4160,5.65,8.36,-1.7,10.23
2022-11-11 12:36:17.4190,5.57,9.08,-2.39,10.91
2022-11-11 12:36:17.4320,5.97,9.39,-3.24,11.58
2022-11-11 12:36:17.4350,7.07,9.59,-3.97,12.55
2022-11-11 12:36:17.4610,9.04,9.88,-4.64,14.17
2022-11-11 12:36:17.4660,11.53,9.91,-5.16,16.05
2022-11-11 12:36:17.4700,13.74,9.13,-4.88,17.2
2022-11-11 12:36:17.4830,15.12,7.03,-3.56,17.05
2022-11-11 12:36:17.4870,15.5,4.68,-2.53,16.38
2022-11-11 12:36:17.4990,15.45,3.87,-1.81,16.02
2022-11-11 12:36:17.5020,15.11,3.79,-1.04,15.61
2022-11-11 12:36:17.5160,12.66,3.1,-0.85,13.06
2022-11-11 12:36:17.5190,9.78,2.42,-0.91,10.11
2022-11-11 12:36:17.5320,8.16,2.16,-0.83,8.48
2022-11-11 12:36:17.5590,7.15,2.3,-0.2,7.51
2022-11-11 12:36:17.5620,5.29,2.71,0.77,5.99
2022-11-11 12:36:17.5680,-0.41,2.97,1.79,3.49
2022-11-11 12:36:17.5710,-8.53,3.74,4.26,10.24
2022-11-11 12:36:17.5840,-13.52,4.65,6.35,15.64
2022-11-11 12:36:17.5880,-7.13,6.74,5.28,11.14
2022-11-11 12:36:17.6000,1.37,8.28,3.78,9.2
2022-11-11 12:36:17.6030,5.32,5.69,2.06,8.05
2022-11-11 12:36:17.6160,5.67,1.47,-0.18,5.86
2022-11-11 12:36:17.6200,4.38,-1.11,-2.1,4.98
2022-11-11 12:36:17.6480,4.36,-2.29,-4.2,6.47
2022-11-11 12:36:17.6520,5.26,-2.65,-5.9,8.33
2022-11-11 12:36:17.6680,5.81,-1.77,-5.77,8.37
2022-11-11 12:36:17.6720,5.08,-0.55,-4.28,6.66
2022-11-11 12:36:17.6840,4.03,-0.12,-3.11,5.09
2022-11-11 12:36:17.6880,2.76,-0.39,-1.78,3.3
2022-11-11 12:36:17.7000,2.03,-0.68,-0.97,2.35
2022-11-11 12:36:17.7030,1.89,-0.2,-0.79,2.05
2022-11-11 12:36:17.7160,1.52,0.55,-0.2,1.62
2022-11-11 12:36:17.7200,0.73,1.12,0.64,1.48
2022-11-11 12:36:17.7480,-0.33,1.37,1.5,2.05
2022-11-11 12:36:17.7520,-1.47,1.4,2.01,2.85
2022-11-11 12:36:17.7680,-2.32,1.1,1.59,3.02
2022-11-11 12:36:17.7720,-2.57,0.41,0.37,2.62
2022-11-11 12:36:17.7840,-2.16,-0.28,-0.63,2.26
2022-11-11 12:36:17.7880,-1.39,-0.9,-1.31,2.11
2022-11-11 12:36:17.8000,0.04,-1.29,-1.69,2.12
2022-11-11 12:36:17.8030,1.87,-0.94,-1.43,2.53
2022-11-11 12:36:17.8160,2.55,-0.27,-1.3,2.87
2022-11-11 12:36:17.8200,1.71,0.11,-1.15,2.06
2022-11-11 12:36:17.8490,0.36,0.25,-0.76,0.87
2022-11-11 12:36:17.8530,-0.46,0.2,0.13,0.51
2022-11-11 12:36:17.8680,-0.87,0.27,1.08,1.41
2022-11-11 12:36:17.8720,-1.43,0.39,0.93,1.74
2022-11-11 12:36:17.8840,-2.01,0.35,0.58,2.12
2022-11-11 12:36:17.8880,-2.21,0.34,0.38,2.26
2022-11-11 12:36:17.9000,-1.66,0.44,-0.09,1.71
2022-11-11 12:36:17.9030,-0.56,0.4,-0.67,0.96
2022-11-11 12:36:17.9160,0.46,0.31,-1.01,1.15
2022-11-11 12:36:17.9200,0.71,0.23,-1.23,1.43
2022-11-11 12:36:17.9490,0.26,0.3,-0.87,0.95
2022-11-11 12:36:17.9530,-0.28,0.53,-0.7,0.92
2022-11-11 12:36:17.9690,-0.56,0.71,-0.45,1.01
2022-11-11 12:36:17.9720,-0.88,0.75,-0.38,1.21
2022-11-11 12:36:17.9840,-1.21,0.78,-0.69,1.59
2022-11-11 12:36:17.9880,-1.12,1.15,-0.65,1.73
2022-11-11 12:36:18.0000,-1.02,1.66,-0.98,2.18
2022-11-11 12:36:18.0030,-1.03,1.99,-1.4,2.64
2022-11-11 12:36:18.0160,-1.18,2.39,-1.28,2.95
2022-11-11 12:36:18.0190,-1.41,2.67,-1.33,3.29
2022-11-11 12:36:18.0490,-1.7,2.72,-1.47,3.52
2022-11-11 12:36:18.0530,-2.13,3.0,-0.66,3.73
2022-11-11 12:36:18.0680,-2.47,3.46,-0.76,4.31
2022-11-11 12:36:18.0720,-2.95,3.45,-0.81,4.61
2022-11-11 12:36:18.0850,-3.37,3.52,-0.56,4.9
2022-11-11 12:36:18.0880,-3.97,3.56,-0.55,5.36
2022-11-11 12:36:18.1000,-4.74,3.63,-0.69,6.01
2022-11-11 12:36:18.1030,-5.14,3.84,-0.63,6.44
2022-11-11 12:36:18.1160,-5.43,4.14,-0.66,6.86
2022-11-11 12:36:18.1200,-6.09,4.56,-0.89,7.65
2022-11-11 12:36:18.1510,-6.97,5.3,-0.96,8.8
2022-11-11 12:36:18.1550,-7.67,6.22,-1.06,9.93
2022-11-11 12:36:18.1680,-7.94,6.86,-1.26,10.56
2022-11-11 12:36:18.1720,-7.73,7.14,-1.75,10.66
2022-11-11 12:36:18.1840,-8.27,6.89,-2.84,11.13
2022-11-11 12:36:18.1880,-9.68,5.7,-4.2,11.99
2022-11-11 12:36:18.2000,-9.36,4.27,-4.77,11.33
2022-11-11 12:36:18.2030,-7.86,3.66,-5.7,10.37
2022-11-11 12:36:18.2160,-6.99,3.96,-6.03,10.04
2022-11-11 12:36:18.2190,-7.58,4.81,-5.32,10.43
2022-11-11 12:36:18.2510,-7.38,5.47,-3.57,9.85
2022-11-11 12:36:18.2540,-5.61,5.66,-1.58,8.12
2022-11-11 12:36:18.2680,-2.62,5.87,-0.77,6.47
2022-11-11 12:36:18.2720,0.51,5.09,-2.31,5.61
2022-11-11 12:36:18.2840,-0.58,1.59,-3.5,3.88
2022-11-11 12:36:18.2880,-4.91,-2.01,-3.13,6.15
2022-11-11 12:36:18.3000,-7.71,-4.46,-3.46,9.55
2022-11-11 12:36:18.3030,-8.88,-6.23,-2.82,11.2
2022-11-11 12:36:18.3160,-9.22,-7.21,-1.1,11.75
2022-11-11 12:36:18.3200,-8.73,-7.22,1.03,11.37
2022-11-11 12:36:18.3510,-6.86,-5.71,2.14,9.17
2022-11-11 12:36:18.3550,-5.23,-4.78,2.02,7.36
2022-11-11 12:36:18.3690,-5.44,-5.42,1.39,7.8
2022-11-11 12:36:18.3720,-6.18,-6.19,0.75,8.77
2022-11-11 12:36:18.3840,-6.24,-6.5,0.43,9.02
2022-11-11 12:36:18.3880,-5.89,-6.76,0.15,8.96
2022-11-11 12:36:18.4000,-5.84,-6.98,-0.19,9.1
2022-11-11 12:36:18.4030,-5.62,-6.68,-0.76,8.76
2022-11-11 12:36:18.4160,-4.92,-5.5,-0.63,7.4
2022-11-11 12:36:18.4200,-3.83,-3.76,0.47,5.38
2022-11-11 12:36:18.4510,-2.74,-1.7,2.49,4.07
2022-11-11 12:36:18.4550,-1.85,0.19,2.8,3.36
2022-11-11 12:36:18.4680,-0.69,1.84,2.08,2.86
2022-11-11 12:36:18.4720,1.19,3.27,1.61,3.83
2022-11-11 12:36:18.4850,3.22,4.22,1.31,5.46
2022-11-11 12:36:18.4880,4.16,4.67,1.45,6.42
2022-11-11 12:36:18.5000,4.32,5.27,1.4,6.95
2022-11-11 12:36:18.5030,4.4,6.53,1.16,7.95
2022-11-11 12:36:18.5160,4.16,7.92,0.8,8.98
2022-11-11 12:36:18.5200,4.0,8.78,0.16,9.64
2022-11-11 12:36:18.5520,4.76,9.24,-0.35,10.39
2022-11-11 12:36:18.5560,6.36,10.02,-1.04,11.91
2022-11-11 12:36:18.5690,8.63,11.03,-1.74,14.11
2022-11-11 12:36:18.5720,11.4,11.25,-2.55,16.21
2022-11-11 12:36:18.5850,14.22,10.42,-3.17,17.91
2022-11-11 12:36:18.5880,16.47,8.16,-2.73,18.58
2022-11-11 12:36:18.6000,17.1,4.78,-1.8,17.84
2022-11-11 12:36:18.6030,16.34,3.2,-1.39,16.7
2022-11-11 12:36:18.6160,15.24,3.4,-1.4,15.67
2022-11-11 12:36:18.6200,13.68,3.05,-1.95,14.15
2022-11-11 12:36:18.6530,12.29,2.31,-3.29,12.93
2022-11-11 12:36:18.6560,10.77,1.51,-5.53,12.2
2022-11-11 12:36:18.6680,5.55,1.0,-7.01,8.99
2022-11-11 12:36:18.6720,-3.04,1.45,-4.72,5.79
2022-11-11 12:36:18.6850,-9.85,3.53,-0.79,10.49
2022-11-11 12:36:18.6880,-6.47,6.64,2.35,9.56
2022-11-11 12:36:18.7000,1.02,9.25,5.01,10.56
2022-11-11 12:36:18.7030,3.32,7.86,5.2,9.99
2022-11-11 12:36:18.7160,0.99,2.63,3.67,4.62
2022-11-11 12:36:18.7200,-1.07,-0.85,2.15,2.54
2022-11-11 12:36:18.7540,0.21,-2.1,-0.22,2.12
2022-11-11 12:36:18.7570,2.67,-2.14,-1.71,3.82
2022-11-11 12:36:18.7680,4.25,-1.15,-2.23,4.93
2022-11-11 12:36:18.7720,3.62,0.13,-1.82,4.05
2022-11-11 12:36:18.7850,1.77,0.81,-0.97,2.17
2022-11-11 12:36:18.7880,0.69,0.63,-1.38,1.66
2022-11-11 12:36:18.8000,0.99,-0.5,-2.11,2.38
2022-11-11 12:36:18.8030,2.57,-1.27,-2.81,4.01
2022-11-11 12:36:18.8160,4.02,-0.81,-2.86,4.99
2022-11-11 12:36:18.8200,4.71,0.16,-2.09,5.15
2022-11-11 12:36:18.8550,3.7,1.01,-1.36,4.06
2022-11-11 12:36:18.8580,1.44,1.33,-0.73,2.09
2022-11-11 12:36:18.8680,-0.15,1.23,0.09,1.24
2022-11-11 12:36:18.8720,-1.36,0.88,0.6,1.72
2022-11-11 12:36:18.8850,-2.33,0.2,0.95,2.52
2022-11-11 12:36:18.8880,-2.75,-0.32,1.04,2.95
2022-11-11 12:36:18.9000,-2.53,-0.63,0.6,2.67
2022-11-11 12:36:18.9030,-1.6,-0.78,0.02,1.78
2022-11-11 12:36:18.9160,-0.51,-0.71,-0.47,0.99
2022-11-11 12:36:18.9200,0.66,-0.57,-0.83,1.2
2022-11-11 12:36:18.9560,1.71,-0.39,-0.94,1.98
2022-11-11 12:36:18.9590,2.04,-0.33,-0.99,2.29
2022-11-11 12:36:18.9690,1.6,-0.29,-0.83,1.82
2022-11-11 12:36:18.9720,0.82,-0.23,-0.84,1.19
2022-11-11 12:36:18.9850,-0.2,-0.32,-0.83,0.91
2022-11-11 12:36:18.9880,-1.37,-0.22,0.16,1.39
2022-11-11 12:36:19.0000,-2.32,0.15,0.75,2.44
2022-11-11 12:36:19.0030,-2.45,0.5,0.27,2.51
2022-11-11 12:36:19.0160,-1.7,0.77,-0.2,1.87
2022-11-11 12:36:19.0200,-0.91,0.64,-0.66,1.29
2022-11-11 12:36:19.0560,-0.51,0.32,-0.84,1.03
2022-11-11 12:36:19.0600,-0.29,0.28,-0.49,0.63
2022-11-11 12:36:19.0680,-0.13,0.32,-0.54,0.64
2022-11-11 12:36:19.0720,-0.02,0.29,-0.55,0.62
2022-11-11 12:36:19.0850,-0.21,0.41,-0.17,0.49
2022-11-11 12:36:19.0880,-0.74,0.6,-0.23,0.98
2022-11-11 12:36:19.1000,-1.33,0.69,-0.47,1.57
2022-11-11 12:36:19.1030,-1.73,0.72,-0.67,1.99
2022-11-11 12:36:19.1170,-1.69,0.78,-0.86,2.05
2022-11-11 12:36:19.1210,-1.33,0.85,-0.99,1.86
2022-11-11 12:36:19.1570,-0.89,0.98,-1.05,1.68
2022-11-11 12:36:19.1610,-0.68,1.26,-0.77,1.62
2022-11-11 12:36:19.1690,-0.81,1.63,-0.79,1.98
2022-11-11 12:36:19.1730,-1.31,1.87,-0.71,2.39
2022-11-11 12:36:19.1840,-2.01,2.05,-0.93,3.01
2022-11-11 12:36:19.1880,-2.45,2.23,-1.08,3.48
2022-11-11 12:36:19.2000,-2.67,2.55,-1.62,4.03
2022-11-11 12:36:19.2030,-2.87,3.11,-1.37,4.44
2022-11-11 12:36:19.2160,-2.82,4.0,-1.13,5.02
2022-11-11 12:36:19.2200,-2.95,4.75,-1.31,5.74
2022-11-11 12:36:19.2580,-3.36,5.61,-1.37,6.68
2022-11-11 12:36:19.2610,-4.19,6.54,-1.8,7.97
2022-11-11 12:36:19.2680,-4.97,7.35,-2.19,9.13
2022-11-11 12:36:19.2720,-5.35,7.94,-3.14,10.07
2022-11-11 12:36:19.2840,-6.38,7.98,-4.17,11.03
2022-11-11 12:36:19.2880,-7.89,7.33,-4.47,11.66
2022-11-11 12:36:19.3000,-8.28,6.47,-4.01,11.24
2022-11-11 12:36:19.3030,-7.98,5.57,-3.62,10.38
2022-11-11 12:36:19.3170,-7.96,4.63,-3.13,9.72
2022-11-11 12:36:19.3200,-7.36,3.72,-3.55,8.97
2022-11-11 12:36:19.3580,-4.74,2.78,-4.4,7.03
2022-11-11 12:36:19.3620,-1.63,2.32,-3.97,4.87
2022-11-11 12:36:19.3690,-0.96,2.48,-2.48,3.63
2022-11-11 12:36:19.3720,-2.93,2.1,-1.8,4.02
2022-11-11 12:36:19.3840,-3.82,0.58,-2.79,4.76
2022-11-11 12:36:19.3880,-4.74,-1.94,-3.43,6.16
2022-11-11 12:36:19.4000,-7.0,-4.14,-2.39,8.47
2022-11-11 12:36:19.4030,-8.1,-5.02,-0.9,9.57
2022-11-11 12:36:19.4160,-7.64,-5.27,0.15,9.28
