time,ax,ay,az,atotal
2022-11-11 12:35:21.3890,-0.14,-0.26,-0.15,0.33
2022-11-11 12:35:21.4140,0.15,-0.18,-0.15,0.27
2022-11-11 12:35:21.4160,0.28,0.02,-0.27,0.38
2022-11-11 12:35:21.4180,0.18,0.1,-0.34,0.39
2022-11-11 12:35:21.4280,0.11,0.08,-0.25,0.28
2022-11-11 12:35:21.4380,-0.03,0.03,-0.19,0.19
2022-11-11 12:35:21.4490,-0.09,-0.03,-0.09,0.13
2022-11-11 12:35:21.4580,-0.08,-0.08,0.07,0.13
2022-11-11 12:35:21.4690,-0.1,-0.03,0.16,0.19
2022-11-11 12:35:21.4790,-0.13,0.02,0.23,0.26
2022-11-11 12:35:21.4890,-0.1,0.04,0.34,0.35
2022-11-11 12:35:21.5140,-0.08,0.04,0.31,0.32
2022-11-11 12:35:21.5150,-0.09,0.01,0.21,0.22
2022-11-11 12:35:21.5180,-0.07,-0.01,0.11,0.13
2022-11-11 12:35:21.5280,-0.01,0.04,-0.03,0.05
2022-11-11 12:35:21.5380,0.03,0.07,-0.13,0.15
2022-11-11 12:35:21.5480,0.07,0.06,-0.18,0.2
2022-11-11 12:35:21.5580,0.13,0.01,-0.2,0.23
2022-11-11 12:35:21.5680,0.19,-0.05,-0.18,0.26
2022-11-11 12:35:21.5780,0.21,-0.08,-0.18,0.28
2022-11-11 12:35:21.5880,0.14,-0.12,-0.19,0.26
2022-11-11 12:35:21.6210,-0.05,-0.09,-0.09,0.13
2022-11-11 12:35:21.6220,-0.29,0.09,0.13,0.33
2022-11-11 12:35:21.6230,-0.36,0.2,0.27,0.49
2022-11-11 12:35:21.6270,-0.3,0.14,0.27,0.42
2022-11-11 12:35:21.6370,-0.17,-0.01,0.18,0.24
2022-11-11 12:35:21.6470,-0.06,-0.15,0.12,0.2
2022-11-11 12:35:21.6570,-0.07,-0.07,0.24,0.25
2022-11-11 12:35:21.6670,-0.26,0.17,0.32,0.44
2022-11-11 12:35:21.6770,-0.44,0.31,0.34,0.63
2022-11-11 12:35:21.6870,-0.38,0.23,0.26,0.51
2022-11-11 12:35:21.7200,-0.15,-0.01,0.11,0.18
2022-11-11 12:35:21.7210,0.06,-0.19,-0.04,0.2
2022-11-11 12:35:21.7230,0.09,-0.13,0.02,0.15
2022-11-11 12:35:21.7260,-0.11,0.1,0.37,0.39
2022-11-11 12:35:21.7370,-0.37,0.28,0.42,0.62
2022-11-11 12:35:21.7470,-0.42,0.15,0.26,0.51
2022-11-11 12:35:21.7560,-0.03,-0.09,0.15,0.17
2022-11-11 12:35:21.7670,0.31,-0.21,0.01,0.37
2022-11-11 12:35:21.7770,0.45,-0.12,-0.11,0.47
2022-11-11 12:35:21.7870,0.5,-0.04,-0.08,0.5
2022-11-11 12:35:21.8190,0.47,-0.07,-0.02,0.47
2022-11-11 12:35:21.8210,0.35,-0.17,0.01,0.38
2022-11-11 12:35:21.8220,0.28,-0.2,0.11,0.36
2022-11-11 12:35:21.8260,0.14,-0.1,0.16,0.23
2022-11-11 12:35:21.8360,-0.05,-0.01,0.22,0.22
2022-11-11 12:35:21.8460,-0.17,0.01,0.25,0.3
2022-11-11 12:35:21.8560,-0.1,-0.01,0.25,0.26
2022-11-11 12:35:21.8660,0.11,-0.01,0.02,0.11
2022-11-11 12:35:21.8760,0.29,0.0,-0.2,0.35
2022-11-11 12:35:21.8860,0.32,-0.02,-0.15,0.35
2022-11-11 12:35:21.9180,0.18,-0.07,0.05,0.19
2022-11-11 12:35:21.9190,0.08,-0.17,0.24,0.3
2022-11-11 12:35:21.9210,-0.02,-0.24,0.33,0.4
2022-11-11 12:35:21.9250,-0.13,-0.22,0.2,0.32
2022-11-11 12:35:21.9420,-0.07,-0.13,0.41,0.43
2022-11-11 12:35:21.9450,-0.06,0.07,0.56,0.56
2022-11-11 12:35:21.9550,-0.15,0.17,0.58,0.62
2022-11-11 12:35:21.9650,-0.24,0.14,0.48,0.55
2022-11-11 12:35:21.9750,-0.13,-0.01,0.33,0.35
2022-11-11 12:35:21.9850,0.11,-0.13,0.31,0.35
2022-11-11 12:35:21.9950,0.1,-0.13,0.09,0.18
2022-11-11 12:35:22.0220,0.08,-0.09,-0.07,0.13
2022-11-11 12:35:22.0230,0.15,-0.01,-0.02,0.15
2022-11-11 12:35:22.0250,0.07,0.07,-0.2,0.22
2022-11-11 12:35:22.0440,0.07,0.01,-0.18,0.19
2022-11-11 12:35:22.0450,0.15,-0.13,0.17,0.26
2022-11-11 12:35:22.0540,0.24,-0.12,0.28,0.38
2022-11-11 12:35:22.0650,0.4,0.0,0.14,0.42
2022-11-11 12:35:22.0750,0.51,0.01,-0.02,0.51
2022-11-11 12:35:22.0850,0.46,-0.13,-0.2,0.51
2022-11-11 12:35:22.0950,0.24,-0.19,-0.28,0.41
2022-11-11 12:35:22.1200,0.08,-0.09,-0.32,0.34
2022-11-11 12:35:22.1220,0.11,-0.02,-0.16,0.19
2022-11-11 12:35:22.1240,0.29,0.05,-0.08,0.3
2022-11-11 12:35:22.1340,0.58,0.05,-0.25,0.63
2022-11-11 12:35:22.1440,0.75,-0.03,-0.27,0.79
2022-11-11 12:35:22.1540,0.5,-0.06,-0.19,0.53
2022-11-11 12:35:22.1640,0.03,-0.08,0.16,0.18
2022-11-11 12:35:22.1740,-0.28,-0.08,0.49,0.56
2022-11-11 12:35:22.1840,-0.16,-0.06,0.47,0.5
2022-11-11 12:35:22.1940,0.2,-0.2,0.15,0.32
2022-11-11 12:35:22.2200,0.44,-0.3,0.09,0.54
2022-11-11 12:35:22.2210,0.52,-0.02,-0.07,0.52
2022-11-11 12:35:22.2230,0.54,0.29,-0.08,0.61
2022-11-11 12:35:22.2330,0.38,0.27,-0.13,0.48
2022-11-11 12:35:22.2430,0.16,0.05,-0.32,0.36
2022-11-11 12:35:22.2540,-0.17,-0.17,-0.26,0.35
2022-11-11 12:35:22.2630,-0.58,-0.23,-0.16,0.64
2022-11-11 12:35:22.2730,-0.55,-0.03,-0.03,0.55
2022-11-11 12:35:22.2830,-0.25,0.14,-0.03,0.28
2022-11-11 12:35:22.2930,-0.16,0.13,-0.06,0.21
2022-11-11 12:35:22.3200,-0.19,0.07,0.05,0.2
2022-11-11 12:35:22.3220,-0.11,0.05,-0.04,0.12
2022-11-11 12:35:22.3230,0.14,0.12,-0.08,0.2
2022-11-11 12:35:22.3330,0.33,0.32,-0.21,0.5
2022-11-11 12:35:22.3430,0.23,0.31,-0.21,0.43
2022-11-11 12:35:22.3530,-0.03,0.08,-0.06,0.1
2022-11-11 12:35:22.3620,-0.12,-0.09,-0.12,0.19
2022-11-11 12:35:22.3730,0.07,-0.16,-0.33,0.37
2022-11-11 12:35:22.3830,0.24,-0.2,-0.53,0.61
2022-11-11 12:35:22.3930,0.21,-0.19,-0.37,0.46
2022-11-11 12:35:22.4250,-0.04,-0.05,-0.01,0.06
2022-11-11 12:35:22.4270,-0.26,0.15,0.16,0.34
2022-11-11 12:35:22.4280,-0.2,0.23,0.1,0.32
2022-11-11 12:35:22.4430,0.04,0.2,-0.1,0.22
2022-11-11 12:35:22.4450,0.24,0.1,-0.32,0.41
2022-11-11 12:35:22.4520,0.43,-0.06,-0.38,0.57
2022-11-11 12:35:22.4620,0.56,-0.17,-0.39,0.7
2022-11-11 12:35:22.4720,0.54,-0.09,-0.47,0.72
2022-11-11 12:35:22.4820,0.43,0.26,-0.4,0.64
2022-11-11 12:35:22.4920,0.15,0.47,-0.22,0.54
2022-11-11 12:35:22.5220,-0.2,0.23,-0.06,0.31
2022-11-11 12:35:22.5240,-0.43,-0.2,0.01,0.47
2022-11-11 12:35:22.5260,-0.56,-0.49,0.25,0.78
2022-11-11 12:35:22.5430,-0.67,-0.34,0.47,0.88
2022-11-11 12:35:22.5450,-0.55,0.15,0.58,0.81
2022-11-11 12:35:22.5510,-0.28,0.56,0.39,0.73
2022-11-11 12:35:22.5610,-0.16,0.61,0.14,0.64
2022-11-11 12:35:22.5710,-0.03,0.32,-0.05,0.32
2022-11-11 12:35:22.5810,0.07,-0.1,-0.24,0.26
2022-11-11 12:35:22.5910,0.2,-0.32,-0.39,0.54
2022-11-11 12:35:22.6230,0.29,-0.28,-0.4,0.56
2022-11-11 12:35:22.6240,0.15,0.0,-0.14,0.2
2022-11-11 12:35:22.6260,-0.27,0.38,0.26,0.53
2022-11-11 12:35:22.6430,-0.79,0.45,0.48,1.02
2022-11-11 12:35:22.6440,-0.98,0.28,0.66,1.21
2022-11-11 12:35:22.6510,-0.73,0.13,0.55,0.92
2022-11-11 12:35:22.6610,-0.12,0.07,0.08,0.16
2022-11-11 12:35:22.6710,0.52,0.0,-0.51,0.72
2022-11-11 12:35:22.6810,0.77,-0.27,-0.6,1.01
2022-11-11 12:35:22.6910,0.39,-0.51,-0.43,0.77
2022-11-11 12:35:22.7210,-0.18,-0.42,0.0,0.45
2022-11-11 12:35:22.7230,-0.52,0.0,0.27,0.58
2022-11-11 12:35:22.7240,-0.46,0.38,0.21,0.63
2022-11-11 12:35:22.7430,-0.12,0.38,0.1,0.41
2022-11-11 12:35:22.7440,0.38,0.16,-0.14,0.43
2022-11-11 12:35:22.7500,0.69,0.09,-0.42,0.81
2022-11-11 12:35:22.7600,0.56,0.09,-0.52,0.76
2022-11-11 12:35:22.7700,0.24,-0.07,-0.37,0.44
2022-11-11 12:35:22.7800,-0.13,-0.18,-0.05,0.22
2022-11-11 12:35:22.7900,-0.37,-0.07,0.17,0.41
2022-11-11 12:35:22.8000,-0.3,0.21,0.28,0.46
2022-11-11 12:35:22.8250,-0.07,0.43,0.2,0.47
2022-11-11 12:35:22.8270,0.1,0.32,-0.06,0.34
2022-11-11 12:35:22.8290,0.02,-0.2,-0.12,0.23
2022-11-11 12:35:22.8430,-0.21,-0.54,0.07,0.58
2022-11-11 12:35:22.8490,-0.3,-0.47,0.22,0.59
2022-11-11 12:35:22.8600,-0.14,-0.09,0.19,0.25
2022-11-11 12:35:22.8690,0.13,0.3,0.06,0.33
2022-11-11 12:35:22.8800,0.26,0.41,-0.1,0.49
2022-11-11 12:35:22.8900,0.32,0.27,-0.15,0.44
2022-11-11 12:35:22.8990,0.23,-0.02,-0.01,0.23
2022-11-11 12:35:22.9250,-0.12,-0.26,0.12,0.31
2022-11-11 12:35:22.9270,-0.51,-0.27,0.3,0.65
2022-11-11 12:35:22.9290,-0.63,-0.07,0.48,0.79
2022-11-11 12:35:22.9430,-0.48,0.28,0.31,0.63
2022-11-11 12:35:22.9490,-0.14,0.35,0.13,0.39
2022-11-11 12:35:22.9590,0.11,0.09,-0.07,0.15
2022-11-11 12:35:22.9680,0.27,-0.08,-0.3,0.41
2022-11-11 12:35:22.9790,0.28,-0.09,-0.26,0.39
2022-11-11 12:35:22.9890,-0.05,0.08,-0.06,0.11
2022-11-11 12:35:22.9990,-0.28,0.24,0.14,0.39
2022-11-11 12:35:23.0250,-0.04,0.27,0.14,0.3
2022-11-11 12:35:23.0270,0.35,0.16,-0.2,0.43
2022-11-11 12:35:23.0280,0.63,0.0,-0.57,0.84
2022-11-11 12:35:23.0420,0.62,-0.16,-0.56,0.85
2022-11-11 12:35:23.0480,0.28,-0.19,-0.28,0.43
2022-11-11 12:35:23.0580,-0.06,-0.05,-0.01,0.07
2022-11-11 12:35:23.0680,-0.15,0.24,0.06,0.28
2022-11-11 12:35:23.0780,0.0,0.38,-0.12,0.39
2022-11-11 12:35:23.0880,0.08,0.14,-0.39,0.42
2022-11-11 12:35:23.0980,0.04,-0.13,-0.38,0.4
2022-11-11 12:35:23.1260,-0.06,-0.19,-0.15,0.24
2022-11-11 12:35:23.1280,-0.17,-0.1,0.0,0.19
2022-11-11 12:35:23.1290,-0.08,0.03,0.14,0.16
2022-11-11 12:35:23.1390,0.04,0.21,0.15,0.26
2022-11-11 12:35:23.1470,0.05,0.31,0.09,0.32
2022-11-11 12:35:23.1570,0.03,0.21,0.01,0.21
2022-11-11 12:35:23.1670,0.02,-0.01,-0.09,0.09
2022-11-11 12:35:23.1780,0.03,-0.23,-0.14,0.27
2022-11-11 12:35:23.1870,0.1,-0.25,-0.12,0.29
2022-11-11 12:35:23.1970,-0.01,-0.07,-0.02,0.07
2022-11-11 12:35:23.2290,-0.28,0.09,0.17,0.33
2022-11-11 12:35:23.2310,-0.37,0.2,0.29,0.51
2022-11-11 12:35:23.2320,-0.2,0.19,0.25,0.37
2022-11-11 12:35:23.2420,0.08,0.04,0.0,0.08
2022-11-11 12:35:23.2470,0.3,-0.1,-0.32,0.44
2022-11-11 12:35:23.2570,0.32,-0.13,-0.29,0.45
2022-11-11 12:35:23.2670,0.04,-0.12,-0.05,0.13
2022-11-11 12:35:23.2770,-0.42,-0.13,0.28,0.52
2022-11-11 12:35:23.2870,-0.61,0.05,0.6,0.85
2022-11-11 12:35:23.2970,-0.45,0.22,0.49,0.7
2022-11-11 12:35:23.3280,-0.13,0.28,0.22,0.37
2022-11-11 12:35:23.3300,0.33,0.19,-0.06,0.38
2022-11-11 12:35:23.3320,0.57,0.01,-0.27,0.63
2022-11-11 12:35:23.3410,0.54,-0.08,-0.31,0.62
2022-11-11 12:35:23.3460,0.31,-0.06,-0.13,0.34
2022-11-11 12:35:23.3560,-0.05,0.07,-0.05,0.09
2022-11-11 12:35:23.3660,-0.23,0.17,-0.02,0.28
2022-11-11 12:35:23.3760,-0.08,0.16,-0.04,0.18
2022-11-11 12:35:23.3860,0.16,0.15,-0.24,0.32
2022-11-11 12:35:23.3960,0.25,0.1,-0.38,0.46
2022-11-11 12:35:23.4280,0.18,-0.07,-0.25,0.31
2022-11-11 12:35:23.4300,-0.02,-0.15,0.05,0.15
2022-11-11 12:35:23.4310,-0.21,-0.1,0.28,0.36
2022-11-11 12:35:23.4410,-0.3,0.03,0.4,0.5
2022-11-11 12:35:23.4460,-0.24,0.11,0.47,0.53
2022-11-11 12:35:23.4550,-0.11,0.19,0.37,0.43
2022-11-11 12:35:23.4650,-0.12,0.27,0.11,0.31
2022-11-11 12:35:23.4750,0.02,0.2,-0.16,0.25
2022-11-11 12:35:23.4860,0.29,-0.01,-0.3,0.41
2022-11-11 12:35:23.4960,0.35,-0.27,-0.36,0.57
2022-11-11 12:35:23.5270,0.16,-0.34,-0.06,0.38
2022-11-11 12:35:23.5290,-0.12,-0.12,0.2,0.26
2022-11-11 12:35:23.5300,-0.37,0.14,0.28,0.48
2022-11-11 12:35:23.5420,-0.38,0.27,0.31,0.55
2022-11-11 12:35:23.5450,-0.17,0.17,0.26,0.35
2022-11-11 12:35:23.5550,0.18,-0.05,0.1,0.21
2022-11-11 12:35:23.5650,0.42,-0.08,0.01,0.42
2022-11-11 12:35:23.5750,0.37,0.09,-0.18,0.42
2022-11-11 12:35:23.5850,0.26,0.21,-0.28,0.43
2022-11-11 12:35:23.5950,0.09,0.24,-0.35,0.43
2022-11-11 12:35:23.6050,-0.12,0.1,-0.26,0.3
2022-11-11 12:35:23.6310,-0.22,-0.08,-0.17,0.28
2022-11-11 12:35:23.6330,-0.14,-0.13,-0.13,0.23
2022-11-11 12:35:23.6350,0.03,-0.03,-0.1,0.1
2022-11-11 12:35:23.6440,0.19,0.15,-0.13,0.27
2022-11-11 12:35:23.6550,0.23,0.22,-0.21,0.38
2022-11-11 12:35:23.6640,0.15,0.15,-0.34,0.4
2022-11-11 12:35:23.6740,0.01,0.07,-0.39,0.39
2022-11-11 12:35:23.6840,-0.16,0.01,-0.24,0.28
2022-11-11 12:35:23.6940,-0.32,-0.02,0.0,0.32
2022-11-11 12:35:23.7040,-0.38,0.01,0.28,0.47
2022-11-11 12:35:23.7290,-0.32,0.22,0.31,0.49
2022-11-11 12:35:23.7310,-0.22,0.35,0.19,0.45
2022-11-11 12:35:23.7330,-0.09,0.23,0.06,0.25
2022-11-11 12:35:23.7440,-0.05,0.04,-0.03,0.07
2022-11-11 12:35:23.7540,0.01,-0.1,-0.14,0.17
2022-11-11 12:35:23.7640,0.1,-0.09,-0.28,0.31
2022-11-11 12:35:23.7740,0.16,-0.06,-0.38,0.41
2022-11-11 12:35:23.7840,0.21,-0.1,-0.23,0.32
2022-11-11 12:35:23.7940,0.11,-0.08,0.1,0.16
2022-11-11 12:35:23.8040,-0.09,0.11,0.23,0.27
2022-11-11 12:35:23.8290,-0.14,0.19,0.21,0.31
2022-11-11 12:35:23.8310,-0.01,0.17,0.14,0.22
2022-11-11 12:35:23.8330,0.21,0.15,0.01,0.25
2022-11-11 12:35:23.8430,0.26,0.08,-0.14,0.3
2022-11-11 12:35:23.8530,0.13,0.0,-0.27,0.29
2022-11-11 12:35:23.8630,-0.13,-0.07,-0.11,0.18
2022-11-11 12:35:23.8730,-0.33,-0.09,0.17,0.38
2022-11-11 12:35:23.8830,-0.42,0.03,0.18,0.45
2022-11-11 12:35:23.8930,-0.26,0.18,0.07,0.32
2022-11-11 12:35:23.9030,-0.03,0.14,0.03,0.14
2022-11-11 12:35:23.9300,0.12,0.05,0.01,0.13
2022-11-11 12:35:23.9320,0.15,0.08,-0.03,0.17
2022-11-11 12:35:23.9330,0.07,0.16,-0.09,0.19
2022-11-11 12:35:23.9430,0.03,0.09,-0.15,0.17
2022-11-11 12:35:23.9540,-0.05,-0.08,-0.14,0.16
2022-11-11 12:35:23.9620,-0.17,-0.15,0.09,0.24
2022-11-11 12:35:23.9720,-0.22,-0.02,0.28,0.35
2022-11-11 12:35:23.9820,-0.15,0.15,0.25,0.32
2022-11-11 12:35:23.9930,0.08,0.25,0.09,0.27
2022-11-11 12:35:24.0020,0.25,0.14,-0.18,0.33
2022-11-11 12:35:24.0350,0.3,-0.11,-0.39,0.5
2022-11-11 12:35:24.0370,0.2,-0.21,-0.35,0.45
2022-11-11 12:35:24.0390,0.07,-0.09,-0.22,0.24
2022-11-11 12:35:24.0570,-0.06,0.06,-0.16,0.18
2022-11-11 12:35:24.0580,-0.12,0.09,-0.11,0.18
2022-11-11 12:35:24.0620,-0.05,0.05,0.07,0.09
2022-11-11 12:35:24.0720,-0.04,0.06,0.18,0.19
2022-11-11 12:35:24.0820,-0.07,0.15,0.22,0.27
2022-11-11 12:35:24.0920,-0.08,0.2,0.15,0.26
2022-11-11 12:35:24.1020,-0.04,0.09,-0.02,0.1
2022-11-11 12:35:24.1350,-0.01,-0.06,-0.1,0.11
2022-11-11 12:35:24.1360,0.0,-0.1,0.02,0.1
2022-11-11 12:35:24.1380,-0.02,0.01,0.08,0.08
2022-11-11 12:35:24.1560,-0.02,0.12,0.01,0.12
2022-11-11 12:35:24.1570,0.03,0.15,0.0,0.15
2022-11-11 12:35:24.1610,0.02,0.1,0.01,0.1
2022-11-11 12:35:24.1710,0.0,0.04,-0.03,0.05
2022-11-11 12:35:24.1810,0.01,-0.03,-0.07,0.07
2022-11-11 12:35:24.1910,0.02,-0.02,-0.13,0.13
2022-11-11 12:35:24.2010,0.1,0.05,-0.11,0.15
2022-11-11 12:35:24.2330,0.1,0.06,-0.12,0.16
2022-11-11 12:35:24.2340,0.06,0.03,0.0,0.06
2022-11-11 12:35:24.2350,-0.01,0.04,0.1,0.1
2022-11-11 12:35:24.2410,-0.06,0.04,0.14,0.15
2022-11-11 12:35:24.2500,-0.09,0.11,0.19,0.23
2022-11-11 12:35:24.2600,-0.05,0.14,0.12,0.19
2022-11-11 12:35:24.2700,0.06,0.07,0.0,0.09
2022-11-11 12:35:24.2800,0.11,-0.05,-0.07,0.13
2022-11-11 12:35:24.2910,0.13,-0.1,-0.13,0.2
2022-11-11 12:35:24.3000,0.13,-0.06,-0.1,0.17
2022-11-11 12:35:24.3340,0.04,-0.02,-0.04,0.06
2022-11-11 12:35:24.3360,-0.11,0.07,0.07,0.14
2022-11-11 12:35:24.3380,-0.21,0.15,0.12,0.28
2022-11-11 12:35:24.3570,-0.13,0.15,0.12,0.23
2022-11-11 12:35:24.3580,0.02,0.11,0.02,0.11
2022-11-11 12:35:24.3590,0.13,0.05,-0.08,0.16
2022-11-11 12:35:24.3700,0.14,-0.03,-0.16,0.21
2022-11-11 12:35:24.3800,0.0,-0.06,-0.11,0.12
2022-11-11 12:35:24.3900,-0.14,-0.01,0.07,0.15
2022-11-11 12:35:24.4000,-0.16,0.07,0.13,0.21
2022-11-11 12:35:24.4100,-0.11,0.1,0.12,0.19
2022-11-11 12:35:24.4370,-0.04,0.06,0.11,0.13
2022-11-11 12:35:24.4380,0.0,0.06,0.11,0.12
2022-11-11 12:35:24.4390,0.01,0.11,0.06,0.12
2022-11-11 12:35:24.4550,0.08,0.11,-0.1,0.16
2022-11-11 12:35:24.4590,0.15,0.01,-0.23,0.27
2022-11-11 12:35:24.4690,0.14,-0.1,-0.3,0.34
2022-11-11 12:35:24.4790,0.06,-0.11,-0.21,0.24
2022-11-11 12:35:24.4890,-0.05,-0.01,0.01,0.05
2022-11-11 12:35:24.4990,-0.17,0.08,0.14,0.23
2022-11-11 12:35:24.5090,-0.17,0.09,0.2,0.27
2022-11-11 12:35:24.5360,0.0,0.11,0.2,0.22
2022-11-11 12:35:24.5380,0.17,0.1,0.09,0.21
2022-11-11 12:35:24.5390,0.27,0.04,-0.1,0.29
2022-11-11 12:35:24.5560,0.22,-0.02,-0.25,0.33
2022-11-11 12:35:24.5580,0.03,-0.08,-0.28,0.29
2022-11-11 12:35:24.5680,-0.17,-0.04,-0.03,0.17
2022-11-11 12:35:24.5780,-0.34,0.07,0.22,0.41
2022-11-11 12:35:24.5890,-0.29,0.19,0.19,0.39
2022-11-11 12:35:24.5980,-0.04,0.22,0.02,0.22
2022-11-11 12:35:24.6080,0.19,0.09,-0.17,0.27
2022-11-11 12:35:24.6350,0.36,-0.05,-0.31,0.47
2022-11-11 12:35:24.6370,0.27,-0.11,-0.35,0.45
2022-11-11 12:35:24.6380,0.03,-0.1,-0.18,0.2
2022-11-11 12:35:24.6550,-0.24,0.0,0.05,0.24
2022-11-11 12:35:24.6580,-0.43,0.11,0.28,0.52
2022-11-11 12:35:24.6680,-0.38,0.21,0.4,0.59
2022-11-11 12:35:24.6780,-0.16,0.23,0.36,0.45
2022-11-11 12:35:24.6880,0.04,0.12,0.16,0.2
2022-11-11 12:35:24.6980,0.21,0.01,-0.06,0.21
2022-11-11 12:35:24.7080,0.32,0.0,-0.26,0.41
2022-11-11 12:35:24.7360,0.27,-0.04,-0.37,0.45
2022-11-11 12:35:24.7380,0.16,-0.04,-0.3,0.34
2022-11-11 12:35:24.7390,0.05,-0.01,-0.2,0.2
2022-11-11 12:35:24.7540,-0.03,0.04,-0.03,0.05
2022-11-11 12:35:24.7570,-0.12,0.1,0.09,0.18
2022-11-11 12:35:24.7670,-0.19,0.15,0.13,0.27
2022-11-11 12:35:24.7770,-0.11,0.13,0.11,0.2
2022-11-11 12:35:24.7870,0.09,0.11,0.03,0.14
2022-11-11 12:35:24.7970,0.35,0.05,-0.25,0.43
2022-11-11 12:35:24.8070,0.39,0.06,-0.41,0.56
2022-11-11 12:35:24.8390,0.12,-0.03,-0.28,0.3
2022-11-11 12:35:24.8410,-0.39,-0.13,0.18,0.44
2022-11-11 12:35:24.8420,-0.97,0.08,0.54,1.11
2022-11-11 12:35:24.8550,-1.12,0.38,0.51,1.28
2022-11-11 12:35:24.8560,-0.73,0.48,0.27,0.91
2022-11-11 12:35:24.8670,-0.14,0.35,-0.14,0.4
2022-11-11 12:35:24.8770,0.3,0.03,-0.4,0.5
2022-11-11 12:35:24.8860,0.43,-0.24,-0.36,0.61
2022-11-11 12:35:24.8960,0.3,-0.2,-0.12,0.38
2022-11-11 12:35:24.9060,-0.01,-0.01,0.05,0.05
2022-11-11 12:35:24.9380,-0.18,0.16,0.03,0.24
2022-11-11 12:35:24.9400,-0.16,0.21,0.02,0.26
2022-11-11 12:35:24.9410,-0.08,0.16,-0.18,0.25
2022-11-11 12:35:24.9550,0.07,0.1,-0.2,0.23
2022-11-11 12:35:24.9560,0.19,-0.04,-0.24,0.3
2022-11-11 12:35:24.9660,0.24,-0.14,-0.27,0.38
2022-11-11 12:35:24.9760,0.25,-0.13,-0.28,0.39
2022-11-11 12:35:24.9860,0.24,-0.12,-0.3,0.4
2022-11-11 12:35:24.9960,0.26,-0.07,-0.29,0.39
2022-11-11 12:35:25.0060,0.22,0.03,-0.25,0.33
2022-11-11 12:35:25.0370,0.09,0.05,-0.3,0.31
2022-11-11 12:35:25.0390,-0.01,0.03,-0.24,0.24
2022-11-11 12:35:25.0400,-0.01,0.05,-0.08,0.09
2022-11-11 12:35:25.0550,0.01,0.14,0.07,0.15
2022-11-11 12:35:25.0560,-0.09,0.11,-0.1,0.17
2022-11-11 12:35:25.0650,-0.07,-0.02,-0.16,0.17
2022-11-11 12:35:25.0750,-0.07,-0.11,-0.15,0.19
2022-11-11 12:35:25.0850,-0.06,-0.11,-0.17,0.21
2022-11-11 12:35:25.0950,0.03,-0.05,-0.04,0.07
2022-11-11 12:35:25.1050,0.03,-0.03,-0.11,0.11
2022-11-11 12:35:25.1370,0.06,-0.14,-0.2,0.25
2022-11-11 12:35:25.1380,0.09,-0.14,-0.32,0.36
2022-11-11 12:35:25.1400,0.11,-0.02,-0.31,0.32
2022-11-11 12:35:25.1540,0.19,0.11,-0.12,0.25
2022-11-11 12:35:25.1560,0.15,0.26,-0.12,0.32
2022-11-11 12:35:25.1640,-0.05,0.21,-0.3,0.36
2022-11-11 12:35:25.1750,-0.07,0.01,-0.14,0.15
2022-11-11 12:35:25.1840,-0.12,-0.18,0.02,0.21
2022-11-11 12:35:25.1940,-0.28,-0.23,0.04,0.36
2022-11-11 12:35:25.2050,-0.18,-0.13,0.29,0.36
2022-11-11 12:35:25.2140,-0.03,0.05,0.23,0.23
2022-11-11 12:35:25.2420,0.21,0.23,0.1,0.32
2022-11-11 12:35:25.2440,0.18,0.32,-0.16,0.4
2022-11-11 12:35:25.2450,0.12,0.2,-0.27,0.35
2022-11-11 12:35:25.2540,-0.09,0.01,-0.12,0.15
2022-11-11 12:35:25.2640,-0.28,-0.1,-0.04,0.3
2022-11-11 12:35:25.2740,-0.14,-0.04,-0.11,0.18
2022-11-11 12:35:25.2840,-0.04,0.0,-0.24,0.24
2022-11-11 12:35:25.2940,-0.25,-0.13,-0.16,0.32
2022-11-11 12:35:25.3040,-0.59,-0.19,0.05,0.62
2022-11-11 12:35:25.3140,-0.65,0.03,0.2,0.68
2022-11-11 12:35:25.3410,-0.24,0.34,0.07,0.42
2022-11-11 12:35:25.3430,-0.01,0.48,-0.22,0.52
2022-11-11 12:35:25.3450,-0.12,0.34,-0.22,0.42
2022-11-11 12:35:25.3530,-0.25,0.06,-0.03,0.25
2022-11-11 12:35:25.3630,-0.32,0.02,0.21,0.38
2022-11-11 12:35:25.3730,-0.32,0.14,0.28,0.44
2022-11-11 12:35:25.3830,-0.25,0.13,0.22,0.35
2022-11-11 12:35:25.3930,-0.1,-0.04,0.17,0.2
2022-11-11 12:35:25.4030,0.1,-0.1,0.01,0.14
2022-11-11 12:35:25.4130,0.38,0.08,-0.02,0.38
2022-11-11 12:35:25.4410,0.47,0.25,-0.14,0.55
2022-11-11 12:35:25.4420,0.22,0.12,-0.11,0.27
2022-11-11 12:35:25.4440,-0.28,-0.18,0.05,0.33
2022-11-11 12:35:25.4530,-0.65,-0.22,0.11,0.69
2022-11-11 12:35:25.4630,-0.52,-0.04,0.3,0.6
2022-11-11 12:35:25.4730,0.05,0.2,0.35,0.4
2022-11-11 12:35:25.4830,0.74,0.18,0.07,0.76
2022-11-11 12:35:25.4930,1.11,-0.06,-0.5,1.21
2022-11-11 12:35:25.5030,1.08,-0.26,-0.89,1.42
2022-11-11 12:35:25.5130,0.67,-0.21,-0.43,0.82
2022-11-11 12:35:25.5400,-0.11,0.14,0.09,0.19
2022-11-11 12:35:25.5420,-0.82,0.33,0.22,0.91
2022-11-11 12:35:25.5430,-0.87,0.12,0.4,0.96
2022-11-11 12:35:25.5520,-0.35,-0.2,0.46,0.61
2022-11-11 12:35:25.5620,0.23,-0.3,0.04,0.38
2022-11-11 12:35:25.5720,0.96,-0.12,-0.46,1.07
2022-11-11 12:35:25.5820,1.47,0.05,-0.58,1.58
2022-11-11 12:35:25.5920,1.18,0.04,-0.48,1.27
2022-11-11 12:35:25.6020,0.35,0.01,-0.31,0.46
2022-11-11 12:35:25.6120,-0.36,0.03,0.01,0.36
2022-11-11 12:35:25.6450,-0.47,0.04,0.24,0.52
2022-11-11 12:35:25.6460,-0.25,0.08,0.17,0.31
2022-11-11 12:35:25.6480,-0.03,0.04,0.02,0.05
2022-11-11 12:35:25.6510,0.38,-0.16,0.1,0.42
2022-11-11 12:35:25.6610,0.75,-0.35,0.06,0.82
2022-11-11 12:35:25.6710,0.6,-0.26,-0.1,0.66
2022-11-11 12:35:25.6810,0.26,0.12,-0.3,0.41
2022-11-11 12:35:25.6910,0.0,0.36,-0.31,0.47
2022-11-11 12:35:25.7010,-0.35,0.16,-0.09,0.39
2022-11-11 12:35:25.7110,-0.49,-0.11,0.02,0.5
2022-11-11 12:35:25.7450,-0.3,-0.2,0.2,0.41
2022-11-11 12:35:25.7470,-0.14,-0.15,0.26,0.33
2022-11-11 12:35:25.7480,-0.21,0.0,0.16,0.26
2022-11-11 12:35:25.7510,-0.06,0.2,0.33,0.39
2022-11-11 12:35:25.7610,0.21,0.4,0.39,0.59
2022-11-11 12:35:25.7710,0.14,0.31,0.45,0.56
2022-11-11 12:35:25.7800,-0.1,0.13,0.35,0.38
2022-11-11 12:35:25.7910,-0.53,0.22,0.05,0.57
2022-11-11 12:35:25.8000,-0.96,0.31,-0.09,1.01
2022-11-11 12:35:25.8110,-0.94,0.25,0.2,0.99
2022-11-11 12:35:25.8440,-0.81,0.13,0.38,0.9
2022-11-11 12:35:25.8460,-0.68,-0.04,0.34,0.76
2022-11-11 12:35:25.8480,-0.3,-0.16,0.21,0.39
2022-11-11 12:35:25.8500,0.28,-0.06,0.07,0.29
2022-11-11 12:35:25.8600,0.7,0.11,-0.06,0.71
2022-11-11 12:35:25.8700,0.81,0.05,-0.1,0.81
2022-11-11 12:35:25.8800,0.68,-0.29,0.0,0.73
2022-11-11 12:35:25.8900,0.38,-0.51,-0.02,0.63
2022-11-11 12:35:25.9000,0.13,-0.36,-0.09,0.39
2022-11-11 12:35:25.9100,0.18,0.03,-0.06,0.19
2022-11-11 12:35:25.9410,0.31,0.22,0.0,0.38
2022-11-11 12:35:25.9430,0.28,0.04,0.03,0.28
2022-11-11 12:35:25.9440,0.2,-0.23,0.04,0.3
2022-11-11 12:35:25.9500,0.38,-0.33,0.11,0.51
2022-11-11 12:35:25.9590,0.63,-0.18,-0.1,0.66
2022-11-11 12:35:25.9700,0.49,0.08,-0.29,0.57
2022-11-11 12:35:25.9790,0.08,0.15,-0.15,0.22
2022-11-11 12:35:25.9890,-0.29,0.14,0.12,0.34
2022-11-11 12:35:25.9990,-0.57,0.06,0.29,0.64
2022-11-11 12:35:26.0090,-0.7,-0.02,0.34,0.77
2022-11-11 12:35:26.0190,-0.63,-0.07,0.33,0.71
2022-11-11 12:35:26.0460,-0.35,-0.12,0.21,0.42
2022-11-11 12:35:26.0470,-0.11,-0.08,0.07,0.15
2022-11-11 12:35:26.0490,-0.05,0.0,-0.01,0.05
2022-11-11 12:35:26.0590,-0.05,-0.01,-0.02,0.05
2022-11-11 12:35:26.0690,-0.05,-0.06,-0.02,0.08
2022-11-11 12:35:26.0780,-0.1,0.0,0.02,0.1
2022-11-11 12:35:26.0890,-0.23,0.15,0.09,0.28
2022-11-11 12:35:26.0990,-0.29,0.17,0.24,0.41
2022-11-11 12:35:26.1090,-0.27,0.09,0.25,0.37
2022-11-11 12:35:26.1190,-0.01,-0.01,0.16,0.16
2022-11-11 12:35:26.1440,0.44,-0.04,0.03,0.44
2022-11-11 12:35:26.1460,0.82,-0.08,-0.03,0.82
2022-11-11 12:35:26.1480,1.11,-0.08,-0.38,1.17
2022-11-11 12:35:26.1580,0.75,0.09,-0.71,1.03
2022-11-11 12:35:26.1680,-0.03,0.19,-0.48,0.51
2022-11-11 12:35:26.1780,-0.53,0.21,-0.05,0.57
2022-11-11 12:35:26.1880,-0.69,0.25,0.24,0.77
2022-11-11 12:35:26.1980,-0.64,0.24,0.33,0.75
2022-11-11 12:35:26.2080,-0.44,0.15,0.31,0.55
2022-11-11 12:35:26.2180,-0.12,-0.03,0.2,0.23
2022-11-11 12:35:26.2440,0.21,-0.14,0.08,0.26
2022-11-11 12:35:26.2450,0.45,-0.12,-0.07,0.47
2022-11-11 12:35:26.2470,0.61,-0.04,-0.2,0.64
2022-11-11 12:35:26.2580,0.51,0.05,-0.29,0.58
2022-11-11 12:35:26.2680,0.14,0.14,-0.24,0.31
2022-11-11 12:35:26.2770,-0.24,0.17,-0.08,0.3
2022-11-11 12:35:26.2870,-0.44,0.18,0.06,0.47
2022-11-11 12:35:26.2970,-0.46,0.14,0.16,0.5
2022-11-11 12:35:26.3070,-0.35,0.04,0.2,0.4
2022-11-11 12:35:26.3170,-0.14,-0.11,0.15,0.23
2022-11-11 12:35:26.3440,0.09,-0.13,0.03,0.16
2022-11-11 12:35:26.3460,0.31,-0.06,-0.08,0.32
2022-11-11 12:35:26.3470,0.42,-0.01,-0.09,0.42
2022-11-11 12:35:26.3570,0.4,0.02,-0.1,0.41
2022-11-11 12:35:26.3670,0.31,-0.02,-0.07,0.31
2022-11-11 12:35:26.3770,0.16,-0.02,0.0,0.16
2022-11-11 12:35:26.3870,-0.05,0.02,0.08,0.09
2022-11-11 12:35:26.3970,-0.2,0.04,0.17,0.26
2022-11-11 12:35:26.4070,-0.2,0.02,0.29,0.35
2022-11-11 12:35:26.4170,-0.16,-0.03,0.24,0.29
2022-11-11 12:35:26.4490,-0.02,-0.06,0.11,0.12
2022-11-11 12:35:26.4510,0.19,-0.02,-0.13,0.23
2022-11-11 12:35:26.4520,0.28,0.1,-0.16,0.33
2022-11-11 12:35:26.4680,0.18,0.18,-0.16,0.3
2022-11-11 12:35:26.4690,0.01,0.13,-0.06,0.14
2022-11-11 12:35:26.4760,-0.16,-0.05,0.06,0.17
2022-11-11 12:35:26.4860,-0.26,-0.17,0.13,0.33
2022-11-11 12:35:26.4960,-0.28,-0.19,0.19,0.38
2022-11-11 12:35:26.5060,-0.2,-0.15,0.21,0.32
2022-11-11 12:35:26.5160,-0.05,-0.08,0.15,0.17
2022-11-11 12:35:26.5490,0.1,-0.01,-0.04,0.1
2022-11-11 12:35:26.5500,0.16,0.08,-0.18,0.25
2022-11-11 12:35:26.5520,0.14,0.1,-0.14,0.22
2022-11-11 12:35:26.5680,0.07,0.06,-0.02,0.09
2022-11-11 12:35:26.5690,-0.09,0.05,0.09,0.13
2022-11-11 12:35:26.5750,-0.18,0.04,0.13,0.22
2022-11-11 12:35:26.5860,-0.09,0.03,0.11,0.14
2022-11-11 12:35:26.5950,0.07,0.03,0.04,0.08
2022-11-11 12:35:26.6060,0.17,0.04,-0.1,0.2
2022-11-11 12:35:26.6160,0.15,0.06,-0.21,0.26
2022-11-11 12:35:26.6470,0.01,0.09,-0.19,0.21
2022-11-11 12:35:26.6490,-0.08,0.11,-0.13,0.18
2022-11-11 12:35:26.6500,-0.11,0.11,0.02,0.15
2022-11-11 12:35:26.6680,-0.13,0.06,0.04,0.14
2022-11-11 12:35:26.6690,-0.12,0.03,0.07,0.14
2022-11-11 12:35:26.6750,-0.07,0.03,0.1,0.12
2022-11-11 12:35:26.6850,-0.02,0.05,-0.01,0.05
2022-11-11 12:35:26.6950,-0.01,0.04,-0.07,0.08
2022-11-11 12:35:26.7050,-0.01,0.04,-0.02,0.04
2022-11-11 12:35:26.7150,-0.04,0.09,-0.01,0.09
2022-11-11 12:35:26.7470,-0.03,0.06,-0.01,0.06
2022-11-11 12:35:26.7490,0.0,-0.04,0.0,0.04
2022-11-11 12:35:26.7500,-0.01,-0.11,-0.01,0.11
2022-11-11 12:35:26.7670,-0.03,-0.1,0.0,0.1
2022-11-11 12:35:26.7690,0.01,-0.05,-0.02,0.05
2022-11-11 12:35:26.7740,0.1,-0.01,-0.03,0.1
2022-11-11 12:35:26.7840,0.18,0.05,-0.12,0.22
2022-11-11 12:35:26.7940,0.15,0.12,-0.19,0.27
2022-11-11 12:35:26.8040,0.01,0.15,-0.09,0.17
2022-11-11 12:35:26.8140,-0.14,0.13,0.03,0.19
2022-11-11 12:35:26.8240,-0.19,0.06,0.08,0.21
2022-11-11 12:35:26.8510,-0.11,-0.02,0.07,0.13
2022-11-11 12:35:26.8530,0.06,-0.03,0.01,0.06
2022-11-11 12:35:26.8540,0.21,0.03,-0.03,0.21
2022-11-11 12:35:26.8680,0.28,0.08,-0.05,0.29
2022-11-11 12:35:26.8740,0.25,0.09,-0.03,0.26
2022-11-11 12:35:26.8840,0.12,0.09,0.01,0.15
2022-11-11 12:35:26.8930,-0.04,0.02,0.01,0.04
2022-11-11 12:35:26.9040,-0.14,-0.06,0.02,0.15
2022-11-11 12:35:26.9140,-0.1,-0.08,0.06,0.14
2022-11-11 12:35:26.9230,0.03,-0.05,0.05,0.07
2022-11-11 12:35:26.9510,0.14,0.0,0.01,0.14
2022-11-11 12:35:26.9530,0.2,0.0,-0.06,0.2
2022-11-11 12:35:26.9540,0.19,-0.02,-0.09,0.21
2022-11-11 12:35:26.9670,0.15,-0.05,-0.05,0.16
2022-11-11 12:35:26.9730,0.11,-0.07,0.05,0.13
2022-11-11 12:35:26.9830,0.08,0.0,0.02,0.08
2022-11-11 12:35:26.9930,-0.01,0.15,-0.04,0.15
2022-11-11 12:35:27.0030,-0.11,0.22,-0.07,0.25
2022-11-11 12:35:27.0130,-0.17,0.16,-0.01,0.23
2022-11-11 12:35:27.0230,-0.2,0.05,0.07,0.21
2022-11-11 12:35:27.0490,-0.2,-0.07,0.14,0.25
2022-11-11 12:35:27.0510,-0.13,-0.13,0.12,0.21
2022-11-11 12:35:27.0520,0.06,-0.07,0.02,0.09
2022-11-11 12:35:27.0670,0.25,0.04,-0.1,0.27
2022-11-11 12:35:27.0720,0.3,0.1,-0.18,0.36
2022-11-11 12:35:27.0820,0.13,0.05,-0.13,0.19
2022-11-11 12:35:27.0920,-0.08,-0.02,-0.02,0.08
2022-11-11 12:35:27.1020,-0.2,-0.02,0.13,0.23
2022-11-11 12:35:27.1120,-0.2,0.01,0.19,0.27
2022-11-11 12:35:27.1220,-0.09,0.04,0.13,0.16
2022-11-11 12:35:27.1490,0.09,0.04,0.02,0.1
2022-11-11 12:35:27.1500,0.21,0.05,-0.1,0.23
2022-11-11 12:35:27.1520,0.15,0.04,-0.16,0.22
2022-11-11 12:35:27.1670,0.02,-0.01,-0.13,0.13
2022-11-11 12:35:27.1720,-0.06,-0.03,0.01,0.06
2022-11-11 12:35:27.1820,-0.11,0.04,0.09,0.14
2022-11-11 12:35:27.1910,-0.04,0.13,0.09,0.16
2022-11-11 12:35:27.2020,0.09,0.16,0.11,0.21
2022-11-11 12:35:27.2120,0.18,0.06,0.1,0.21
2022-11-11 12:35:27.2220,0.23,-0.11,0.02,0.25
2022-11-11 12:35:27.2540,0.19,-0.18,-0.06,0.26
2022-11-11 12:35:27.2550,0.11,-0.08,-0.1,0.16
2022-11-11 12:35:27.2570,0.02,0.06,-0.14,0.15
2022-11-11 12:35:27.2650,-0.08,0.08,-0.11,0.15
2022-11-11 12:35:27.2710,-0.17,0.06,-0.04,0.18
2022-11-11 12:35:27.2810,-0.25,0.04,0.04,0.25
2022-11-11 12:35:27.2910,-0.26,0.04,0.1,0.28
2022-11-11 12:35:27.3010,-0.16,0.07,0.1,0.2
2022-11-11 12:35:27.3110,-0.04,0.03,0.06,0.07
2022-11-11 12:35:27.3210,0.02,-0.03,0.0,0.03
2022-11-11 12:35:27.3510,0.1,0.0,-0.04,0.1
2022-11-11 12:35:27.3530,0.12,0.09,-0.1,0.18
2022-11-11 12:35:27.3540,0.11,0.14,-0.1,0.2
2022-11-11 12:35:27.3670,0.07,0.1,-0.12,0.17
2022-11-11 12:35:27.3700,0.04,0.0,-0.13,0.13
2022-11-11 12:35:27.3800,-0.07,-0.04,-0.11,0.13
2022-11-11 12:35:27.3900,-0.16,-0.01,-0.01,0.16
2022-11-11 12:35:27.4000,-0.11,0.05,0.07,0.13
2022-11-11 12:35:27.4110,0.0,0.13,0.02,0.13
2022-11-11 12:35:27.4200,0.11,0.17,-0.07,0.21
2022-11-11 12:35:27.4530,0.15,0.12,-0.12,0.22
2022-11-11 12:35:27.4550,0.09,0.03,-0.16,0.18
2022-11-11 12:35:27.4560,-0.05,-0.02,-0.11,0.12
2022-11-11 12:35:27.4670,-0.18,0.02,-0.09,0.2
2022-11-11 12:35:27.4700,-0.28,0.09,-0.06,0.3
2022-11-11 12:35:27.4800,-0.27,0.1,-0.04,0.29
2022-11-11 12:35:27.4900,-0.17,0.06,-0.04,0.18
2022-11-11 12:35:27.5000,-0.07,0.02,-0.05,0.08
2022-11-11 12:35:27.5090,0.0,0.01,-0.06,0.06
2022-11-11 12:35:27.5200,0.06,-0.02,-0.04,0.07
2022-11-11 12:35:27.5510,0.13,-0.02,-0.06,0.14
2022-11-11 12:35:27.5530,0.14,0.0,-0.12,0.18
2022-11-11 12:35:27.5540,0.12,0.01,-0.12,0.17
2022-11-11 12:35:27.5670,0.1,0.04,-0.09,0.14
2022-11-11 12:35:27.5690,0.07,0.07,-0.07,0.12
2022-11-11 12:35:27.5790,0.04,0.07,-0.06,0.1
2022-11-11 12:35:27.5890,0.0,0.02,-0.06,0.06
2022-11-11 12:35:27.5990,0.0,-0.01,-0.08,0.08
2022-11-11 12:35:27.6090,-0.02,0.06,-0.09,0.11
2022-11-11 12:35:27.6190,-0.11,0.11,-0.08,0.17
2022-11-11 12:35:27.6290,-0.12,0.03,0.02,0.12
2022-11-11 12:35:27.6560,-0.12,-0.04,0.01,0.12
2022-11-11 12:35:27.6580,-0.05,-0.04,0.04,0.07
2022-11-11 12:35:27.6590,0.07,0.04,0.01,0.08
2022-11-11 12:35:27.6690,0.08,0.12,-0.06,0.15
2022-11-11 12:35:27.6800,0.01,0.1,-0.02,0.1
2022-11-11 12:35:27.6880,-0.03,0.04,0.06,0.07
2022-11-11 12:35:27.6980,-0.07,-0.02,0.13,0.14
2022-11-11 12:35:27.7080,-0.05,-0.05,0.12,0.13
2022-11-11 12:35:27.7190,0.07,-0.01,0.04,0.08
2022-11-11 12:35:27.7280,0.12,0.06,-0.03,0.13
2022-11-11 12:35:27.7550,0.08,0.08,-0.03,0.11
2022-11-11 12:35:27.7570,0.06,0.04,0.01,0.07
2022-11-11 12:35:27.7580,0.02,0.02,-0.02,0.03
2022-11-11 12:35:27.7680,0.02,-0.03,-0.01,0.03
2022-11-11 12:35:27.7790,0.07,-0.05,0.03,0.09
2022-11-11 12:35:27.7880,0.13,-0.03,0.01,0.13
2022-11-11 12:35:27.7980,0.16,0.01,-0.02,0.16
2022-11-11 12:35:27.8080,0.12,0.05,0.02,0.13
2022-11-11 12:35:27.8180,0.07,0.03,0.04,0.08
2022-11-11 12:35:27.8270,0.07,0.0,0.04,0.08
2022-11-11 12:35:27.8550,0.12,-0.01,0.0,0.12
2022-11-11 12:35:27.8570,0.14,0.03,-0.06,0.15
2022-11-11 12:35:27.8580,0.04,0.05,-0.08,0.1
2022-11-11 12:35:27.8670,-0.06,0.04,-0.03,0.07
2022-11-11 12:35:27.8770,-0.11,0.06,-0.01,0.12
2022-11-11 12:35:27.8870,-0.12,0.05,0.01,0.13
2022-11-11 12:35:27.8970,-0.06,0.06,0.02,0.08
2022-11-11 12:35:27.9070,-0.01,0.08,0.03,0.08
2022-11-11 12:35:27.9170,-0.02,0.04,0.02,0.04
2022-11-11 12:35:27.9270,-0.01,0.0,0.02,0.02
2022-11-11 12:35:27.9540,0.02,0.01,-0.01,0.02
2022-11-11 12:35:27.9550,0.0,0.04,-0.02,0.04
2022-11-11 12:35:27.9570,-0.03,0.05,-0.03,0.06
2022-11-11 12:35:27.9670,0.0,0.04,-0.05,0.06
2022-11-11 12:35:27.9760,0.01,0.03,-0.04,0.05
2022-11-11 12:35:27.9860,-0.04,0.04,-0.01,0.05
2022-11-11 12:35:27.9960,-0.06,0.01,0.02,0.06
2022-11-11 12:35:28.0070,0.01,-0.01,0.0,0.01
2022-11-11 12:35:28.0170,0.06,0.02,-0.02,0.06
2022-11-11 12:35:28.0260,0.09,0.06,-0.03,0.11
2022-11-11 12:35:28.0580,0.08,0.07,-0.06,0.12
2022-11-11 12:35:28.0600,0.01,0.05,-0.01,0.05
2022-11-11 12:35:28.0610,-0.03,0.03,0.01,0.04
2022-11-11 12:35:28.0660,-0.04,-0.01,0.04,0.05
2022-11-11 12:35:28.0760,-0.01,-0.02,0.05,0.05
2022-11-11 12:35:28.0860,0.06,0.03,-0.04,0.07
2022-11-11 12:35:28.0960,0.02,0.06,-0.07,0.09
2022-11-11 12:35:28.1060,-0.03,0.07,-0.02,0.07
2022-11-11 12:35:28.1160,-0.03,0.0,0.03,0.04
2022-11-11 12:35:28.1260,0.01,-0.05,0.04,0.06
2022-11-11 12:35:28.1580,0.03,-0.04,0.01,0.05
2022-11-11 12:35:28.1590,0.03,-0.01,0.01,0.03
2022-11-11 12:35:28.1600,0.04,-0.02,0.04,0.06
2022-11-11 12:35:28.1650,0.11,0.02,-0.02,0.11
2022-11-11 12:35:28.1750,0.08,0.04,-0.06,0.1
2022-11-11 12:35:28.1850,0.01,0.04,0.01,0.04
2022-11-11 12:35:28.1950,-0.03,0.03,0.01,0.04
2022-11-11 12:35:28.2050,-0.07,0.02,0.0,0.07
2022-11-11 12:35:28.2150,-0.06,0.04,-0.01,0.07
2022-11-11 12:35:28.2250,-0.06,0.03,0.0,0.06
2022-11-11 12:35:28.2560,-0.04,0.01,-0.01,0.04
2022-11-11 12:35:28.2580,-0.02,-0.02,-0.03,0.04
2022-11-11 12:35:28.2590,0.03,-0.01,-0.04,0.05
2022-11-11 12:35:28.2650,0.06,0.01,-0.06,0.08
2022-11-11 12:35:28.2740,0.06,0.04,-0.05,0.08
2022-11-11 12:35:28.2850,0.02,0.03,-0.03,0.04
2022-11-11 12:35:28.2940,-0.05,0.05,0.01,0.07
2022-11-11 12:35:28.3040,-0.07,0.03,0.05,0.09
2022-11-11 12:35:28.3140,0.0,0.04,0.03,0.05
2022-11-11 12:35:28.3240,0.06,0.08,-0.02,0.1
2022-11-11 12:35:28.3560,0.05,0.08,-0.06,0.11
2022-11-11 12:35:28.3570,-0.01,0.03,-0.06,0.06
2022-11-11 12:35:28.3580,-0.05,-0.01,-0.02,0.05
2022-11-11 12:35:28.3640,-0.05,0.01,-0.01,0.05
2022-11-11 12:35:28.3740,-0.03,0.06,0.0,0.06
2022-11-11 12:35:28.3840,-0.01,0.07,-0.01,0.07
2022-11-11 12:35:28.3940,0.0,0.04,-0.02,0.04
2022-11-11 12:35:28.4040,0.04,-0.01,-0.02,0.04
2022-11-11 12:35:28.4140,0.05,-0.03,0.0,0.05
2022-11-11 12:35:28.4240,0.06,-0.01,0.04,0.07
2022-11-11 12:35:28.4340,0.08,0.04,0.01,0.09
2022-11-11 12:35:28.4610,0.1,0.04,-0.04,0.11
2022-11-11 12:35:28.4630,0.13,-0.01,-0.06,0.14
2022-11-11 12:35:28.4640,0.08,-0.03,-0.04,0.09
2022-11-11 12:35:28.4810,-0.04,-0.07,0.0,0.08
2022-11-11 12:35:28.4830,-0.07,-0.04,0.06,0.1
2022-11-11 12:35:28.4930,-0.03,0.04,0.05,0.07
2022-11-11 12:35:28.5030,-0.01,0.14,-0.01,0.14
2022-11-11 12:35:28.5130,-0.04,0.17,-0.06,0.18
2022-11-11 12:35:28.5230,-0.07,0.11,-0.08,0.15
2022-11-11 12:35:28.5330,-0.1,0.04,-0.08,0.13
2022-11-11 12:35:28.5600,-0.09,-0.02,-0.01,0.09
2022-11-11 12:35:28.5610,-0.09,-0.03,0.07,0.11
2022-11-11 12:35:28.5630,-0.03,-0.02,0.02,0.04
2022-11-11 12:35:28.5810,0.09,0.05,-0.04,0.11
2022-11-11 12:35:28.5820,0.18,0.08,-0.15,0.24
2022-11-11 12:35:28.5930,0.16,0.05,-0.16,0.23
2022-11-11 12:35:28.6030,-0.02,-0.03,-0.08,0.08
2022-11-11 12:35:28.6130,-0.16,-0.02,-0.02,0.16
2022-11-11 12:35:28.6230,-0.17,0.06,0.03,0.18
2022-11-11 12:35:28.6330,-0.11,0.12,-0.04,0.16
2022-11-11 12:35:28.6590,-0.04,0.15,-0.15,0.21
2022-11-11 12:35:28.6610,-0.07,0.09,-0.17,0.2
2022-11-11 12:35:28.6630,-0.1,-0.01,-0.09,0.13
2022-11-11 12:35:28.6800,-0.09,-0.04,-0.07,0.12
2022-11-11 12:35:28.6820,-0.05,0.09,-0.17,0.19
2022-11-11 12:35:28.6920,0.02,0.17,-0.21,0.27
2022-11-11 12:35:28.7020,0.07,0.16,-0.2,0.26
2022-11-11 12:35:28.7120,0.0,0.09,-0.23,0.24
2022-11-11 12:35:28.7220,-0.1,-0.07,-0.18,0.21
2022-11-11 12:35:28.7320,-0.13,-0.16,-0.08,0.22
2022-11-11 12:35:28.7580,-0.09,-0.04,-0.11,0.14
2022-11-11 12:35:28.7600,-0.04,0.13,-0.2,0.24
2022-11-11 12:35:28.7610,0.02,0.15,-0.24,0.28
2022-11-11 12:35:28.7800,0.03,0.06,-0.24,0.24
2022-11-11 12:35:28.7810,-0.01,0.0,-0.16,0.16
2022-11-11 12:35:28.7910,-0.01,0.03,-0.04,0.05
2022-11-11 12:35:28.8010,0.05,0.05,0.01,0.07
2022-11-11 12:35:28.8110,0.1,-0.01,-0.02,0.1
2022-11-11 12:35:28.8210,0.15,-0.11,-0.02,0.18
2022-11-11 12:35:28.8310,0.22,-0.08,-0.02,0.23
2022-11-11 12:35:28.8630,0.26,0.02,0.03,0.26
2022-11-11 12:35:28.8650,0.29,0.09,0.02,0.3
2022-11-11 12:35:28.8660,0.3,0.14,-0.1,0.34
2022-11-11 12:35:28.8800,0.36,0.23,-0.13,0.44
2022-11-11 12:35:28.8810,0.48,0.23,-0.05,0.53
2022-11-11 12:35:28.8910,0.6,-0.06,0.02,0.6
2022-11-11 12:35:28.9010,0.71,-0.37,-0.05,0.8
2022-11-11 12:35:28.9100,0.84,-0.43,-0.16,0.95
2022-11-11 12:35:28.9210,1.01,-0.3,-0.23,1.07
2022-11-11 12:35:28.9310,1.22,-0.07,-0.21,1.23
2022-11-11 12:35:28.9620,1.5,0.03,-0.23,1.51
2022-11-11 12:35:28.9640,1.83,-0.08,-0.23,1.84
2022-11-11 12:35:28.9650,2.18,-0.24,-0.19,2.2
2022-11-11 12:35:28.9800,2.38,-0.31,-0.2,2.4
2022-11-11 12:35:28.9810,2.42,-0.32,-0.1,2.44
2022-11-11 12:35:28.9900,2.35,-0.23,-0.22,2.37
2022-11-11 12:35:29.0000,2.48,0.05,-0.32,2.5
2022-11-11 12:35:29.0100,2.66,0.59,-0.38,2.75
2022-11-11 12:35:29.0200,2.73,1.24,-0.44,3.03
2022-11-11 12:35:29.0300,2.65,1.99,-0.54,3.35
2022-11-11 12:35:29.0600,2.41,2.72,-0.44,3.66
2022-11-11 12:35:29.0610,2.17,3.18,-0.31,3.86
2022-11-11 12:35:29.0630,2.03,3.36,-0.26,3.93
2022-11-11 12:35:29.0800,2.0,3.28,-0.3,3.85
2022-11-11 12:35:29.0810,2.43,3.19,0.11,4.01
2022-11-11 12:35:29.0890,3.28,3.09,0.67,4.55
2022-11-11 12:35:29.0990,3.8,2.87,0.81,4.83
2022-11-11 12:35:29.1090,4.02,2.69,0.71,4.88
2022-11-11 12:35:29.1190,4.41,2.66,0.98,5.24
2022-11-11 12:35:29.1290,4.75,2.52,1.3,5.53
2022-11-11 12:35:29.1600,4.8,2.02,1.42,5.39
2022-11-11 12:35:29.1610,4.82,1.22,1.38,5.15
2022-11-11 12:35:29.1630,4.89,0.36,1.32,5.07
2022-11-11 12:35:29.1790,4.93,-0.27,1.37,5.12
2022-11-11 12:35:29.1810,4.82,-0.58,1.46,5.06
2022-11-11 12:35:29.1880,4.56,-0.6,1.52,4.84
2022-11-11 12:35:29.1990,4.14,-0.55,1.48,4.43
2022-11-11 12:35:29.2090,3.64,-0.64,1.54,4.0
2022-11-11 12:35:29.2190,3.16,-0.75,1.68,3.65
2022-11-11 12:35:29.2290,2.72,-0.78,1.93,3.42
2022-11-11 12:35:29.2390,2.3,-0.7,2.02,3.14
2022-11-11 12:35:29.2640,1.93,-0.58,1.92,2.78
2022-11-11 12:35:29.2650,1.58,-0.48,1.67,2.34
2022-11-11 12:35:29.2680,1.23,-0.39,1.42,1.91
2022-11-11 12:35:29.2790,0.87,-0.3,1.24,1.54
2022-11-11 12:35:29.2880,0.52,-0.26,1.03,1.18
2022-11-11 12:35:29.2980,0.2,-0.3,0.91,0.97
2022-11-11 12:35:29.3080,-0.25,-0.45,0.8,0.95
2022-11-11 12:35:29.3180,-0.87,-0.58,0.62,1.21
2022-11-11 12:35:29.3280,-1.3,-0.44,0.45,1.44
2022-11-11 12:35:29.3380,-1.4,-0.03,0.53,1.49
2022-11-11 12:35:29.3640,-1.46,0.39,0.59,1.62
2022-11-11 12:35:29.3660,-1.76,0.52,0.39,1.87
2022-11-11 12:35:29.3680,-2.21,0.46,0.13,2.26
2022-11-11 12:35:29.3790,-2.55,0.42,0.02,2.58
2022-11-11 12:35:29.3870,-2.71,0.4,0.13,2.74
2022-11-11 12:35:29.3970,-2.88,0.38,0.24,2.91
2022-11-11 12:35:29.4070,-3.1,0.38,0.17,3.12
2022-11-11 12:35:29.4180,-3.38,0.46,0.0,3.41
2022-11-11 12:35:29.4270,-3.72,0.79,-0.26,3.81
2022-11-11 12:35:29.4370,-3.98,1.26,-0.59,4.21
2022-11-11 12:35:29.4640,-4.17,1.42,-0.91,4.49
2022-11-11 12:35:29.4660,-4.45,1.21,-1.08,4.73
2022-11-11 12:35:29.4680,-4.94,0.68,-1.31,5.15
2022-11-11 12:35:29.4800,-5.47,0.15,-1.32,5.62
2022-11-11 12:35:29.4870,-5.85,-0.15,-0.92,5.92
2022-11-11 12:35:29.4970,-6.23,-0.37,-0.72,6.28
2022-11-11 12:35:29.5070,-6.62,-0.44,-0.92,6.69
2022-11-11 12:35:29.5170,-6.69,-0.35,-1.11,6.79
2022-11-11 12:35:29.5270,-6.43,-0.24,-1.53,6.61
2022-11-11 12:35:29.5370,-5.75,-0.11,-1.83,6.03
2022-11-11 12:35:29.5630,-4.81,0.06,-1.81,5.13
2022-11-11 12:35:29.5650,-4.29,0.17,-2.01,4.74
2022-11-11 12:35:29.5660,-3.72,0.27,-2.06,4.26
2022-11-11 12:35:29.5780,-1.22,0.76,-1.27,1.91
2022-11-11 12:35:29.5860,4.38,2.2,1.03,5.0
2022-11-11 12:35:29.5960,10.89,4.88,4.67,12.81
2022-11-11 12:35:29.6060,10.92,5.97,2.27,12.65
2022-11-11 12:35:29.6160,4.26,3.74,-2.42,6.16
2022-11-11 12:35:29.6260,-0.91,0.55,-2.31,2.54
2022-11-11 12:35:29.6360,-3.95,-1.87,-0.31,4.38
2022-11-11 12:35:29.6700,-4.85,-1.86,0.97,5.28
2022-11-11 12:35:29.6710,-4.02,-0.66,0.44,4.09
2022-11-11 12:35:29.6730,-3.15,0.22,-1.81,3.63
2022-11-11 12:35:29.6750,-2.11,0.88,-3.26,3.98
2022-11-11 12:35:29.6850,-0.37,2.03,-2.46,3.21
2022-11-11 12:35:29.6960,0.96,2.07,-1.82,2.91
2022-11-11 12:35:29.7050,0.67,0.43,-1.03,1.3
2022-11-11 12:35:29.7160,-0.7,-0.95,-0.52,1.28
2022-11-11 12:35:29.7260,-2.13,-1.39,-0.24,2.55
2022-11-11 12:35:29.7350,-3.22,-0.67,0.76,3.37
2022-11-11 12:35:29.7690,-3.57,0.59,1.68,3.98
2022-11-11 12:35:29.7700,-2.9,1.51,1.75,3.7
2022-11-11 12:35:29.7720,-1.38,1.79,1.19,2.55
2022-11-11 12:35:29.7750,0.25,1.31,0.4,1.39
2022-11-11 12:35:29.7850,1.38,0.41,-0.5,1.52
2022-11-11 12:35:29.7950,1.63,-0.41,-1.16,2.04
2022-11-11 12:35:29.8050,1.1,-0.78,-1.34,1.9
2022-11-11 12:35:29.8150,0.1,-0.63,-1.13,1.29
2022-11-11 12:35:29.8250,-0.97,-0.14,-0.4,1.05
2022-11-11 12:35:29.8350,-1.87,0.45,0.21,1.93
2022-11-11 12:35:29.8660,-2.48,0.95,0.36,2.68
2022-11-11 12:35:29.8670,-2.23,1.02,0.52,2.5
2022-11-11 12:35:29.8690,-1.04,0.67,0.55,1.35
2022-11-11 12:35:29.8770,0.33,0.19,0.04,0.38
2022-11-11 12:35:29.8840,1.25,-0.28,-0.48,1.36
2022-11-11 12:35:29.8940,1.67,-0.57,-0.93,1.99
2022-11-11 12:35:29.9040,1.68,-0.59,-0.95,2.01
2022-11-11 12:35:29.9140,1.3,-0.37,-0.64,1.49
2022-11-11 12:35:29.9240,0.4,-0.03,-0.4,0.56
2022-11-11 12:35:29.9340,-0.66,0.26,-0.05,0.71
2022-11-11 12:35:29.9670,-1.24,0.37,0.08,1.29
2022-11-11 12:35:29.9690,-0.99,0.21,0.21,1.03
2022-11-11 12:35:29.9700,-0.14,-0.09,0.35,0.38
2022-11-11 12:35:29.9740,0.94,-0.32,-0.02,0.99
2022-11-11 12:35:29.9920,1.94,-0.39,-0.47,2.03
2022-11-11 12:35:29.9930,2.03,-0.29,-0.67,2.15
2022-11-11 12:35:30.0030,1.14,-0.1,-0.55,1.26
2022-11-11 12:35:30.0130,0.26,0.05,0.04,0.26
2022-11-11 12:35:30.0240,-0.19,0.11,0.44,0.49
2022-11-11 12:35:30.0330,0.0,0.06,0.34,0.34
2022-11-11 12:35:30.0440,1.1,0.0,-0.04,1.1
2022-11-11 12:35:30.0680,2.0,0.12,-0.54,2.07
2022-11-11 12:35:30.0690,1.57,0.17,-0.63,1.7
2022-11-11 12:35:30.0730,0.6,0.4,-0.24,0.76
2022-11-11 12:35:30.0830,-0.33,0.67,0.07,0.75
2022-11-11 12:35:30.0930,-0.75,0.76,0.3,1.1
2022-11-11 12:35:30.1030,-0.54,0.66,0.15,0.86
2022-11-11 12:35:30.1130,0.17,0.45,-0.14,0.5
2022-11-11 12:35:30.1230,0.76,0.4,-0.36,0.93
2022-11-11 12:35:30.1330,1.05,0.81,-0.56,1.43
2022-11-11 12:35:30.1430,1.12,1.43,-0.54,1.89
2022-11-11 12:35:30.1690,0.86,2.06,-0.47,2.28
2022-11-11 12:35:30.1700,0.67,2.74,0.44,2.85
2022-11-11 12:35:30.1720,0.62,3.02,0.93,3.22
2022-11-11 12:35:30.1820,1.27,2.81,1.39,3.38
2022-11-11 12:35:30.1920,1.89,2.74,0.99,3.47
2022-11-11 12:35:30.2020,2.32,3.18,0.32,3.94
2022-11-11 12:35:30.2120,2.61,3.85,0.01,4.65
2022-11-11 12:35:30.2220,2.66,4.13,0.11,4.91
2022-11-11 12:35:30.2320,2.53,3.94,-0.06,4.68
2022-11-11 12:35:30.2420,2.7,3.74,-0.1,4.61
2022-11-11 12:35:30.2680,3.32,3.97,-0.41,5.19
2022-11-11 12:35:30.2700,4.36,4.41,-0.64,6.23
2022-11-11 12:35:30.2720,5.32,4.44,-0.42,6.94
2022-11-11 12:35:30.2820,6.09,4.06,-0.11,7.32
2022-11-11 12:35:30.2920,6.81,3.39,0.07,7.6
2022-11-11 12:35:30.3020,7.47,2.87,0.29,8.0
2022-11-11 12:35:30.3120,7.75,2.75,0.7,8.25
2022-11-11 12:35:30.3220,7.51,2.57,0.88,7.98
2022-11-11 12:35:30.3320,6.88,2.76,0.69,7.44
2022-11-11 12:35:30.3420,6.36,3.31,-0.1,7.17
2022-11-11 12:35:30.3680,6.57,3.67,-1.4,7.65
2022-11-11 12:35:30.3690,6.97,4.47,-4.27,9.31
2022-11-11 12:35:30.3710,7.78,6.35,-5.64,11.51
2022-11-11 12:35:30.3810,8.26,7.62,-4.65,12.16
2022-11-11 12:35:30.3910,7.1,7.5,-3.84,11.01
2022-11-11 12:35:30.4010,4.77,6.06,-3.53,8.48
2022-11-11 12:35:30.4110,2.57,4.62,-3.46,6.31
2022-11-11 12:35:30.4210,1.88,4.14,-3.06,5.48
2022-11-11 12:35:30.4310,2.73,4.13,-1.68,5.22
2022-11-11 12:35:30.4410,4.32,3.97,0.22,5.87
2022-11-11 12:35:30.4730,5.85,3.52,0.87,6.88
2022-11-11 12:35:30.4740,6.38,2.53,0.83,6.91
2022-11-11 12:35:30.4760,5.93,1.11,0.63,6.06
2022-11-11 12:35:30.4930,5.05,-0.02,0.66,5.09
2022-11-11 12:35:30.4940,4.48,-0.59,1.22,4.68
2022-11-11 12:35:30.5000,4.51,-0.92,2.06,5.04
2022-11-11 12:35:30.5100,4.72,-1.42,2.08,5.34
2022-11-11 12:35:30.5200,4.75,-2.29,1.2,5.4
2022-11-11 12:35:30.5300,4.78,-3.53,0.34,5.95
2022-11-11 12:35:30.5400,5.3,-4.65,-0.3,7.05
2022-11-11 12:35:30.5720,6.53,-5.11,-0.53,8.3
2022-11-11 12:35:30.5730,7.58,-4.81,-0.66,9.0
2022-11-11 12:35:30.5750,6.99,-3.85,-0.75,8.01
2022-11-11 12:35:30.5930,4.81,-2.72,0.05,5.52
2022-11-11 12:35:30.5940,2.95,-1.55,1.43,3.62
2022-11-11 12:35:30.6000,1.89,-0.31,3.05,3.6
2022-11-11 12:35:30.6100,0.57,0.87,2.76,2.94
2022-11-11 12:35:30.6190,-1.19,1.96,1.1,2.54
2022-11-11 12:35:30.6300,-3.41,2.87,-0.02,4.45
2022-11-11 12:35:30.6400,-6.0,3.16,-0.46,6.79
2022-11-11 12:35:30.6700,-7.98,2.75,-0.26,8.44
2022-11-11 12:35:30.6720,-8.73,1.77,0.38,8.91
2022-11-11 12:35:30.6740,-8.52,0.9,0.56,8.58
2022-11-11 12:35:30.6910,-7.81,0.9,0.02,7.86
2022-11-11 12:35:30.6930,-6.9,1.37,-0.92,7.09
2022-11-11 12:35:30.6990,-6.18,1.61,-1.83,6.64
2022-11-11 12:35:30.7090,-5.84,1.6,-2.43,6.52
2022-11-11 12:35:30.7190,-6.18,1.94,-2.56,6.96
2022-11-11 12:35:30.7290,-7.07,3.13,-2.61,8.16
2022-11-11 12:35:30.7390,-8.25,4.88,-2.65,9.94
2022-11-11 12:35:30.7690,-9.4,6.21,-2.12,11.46
2022-11-11 12:35:30.7710,-10.66,6.68,-1.89,12.72
2022-11-11 12:35:30.7720,-11.79,5.95,-2.43,13.42
2022-11-11 12:35:30.7780,-12.59,3.79,-3.36,13.57
2022-11-11 12:35:30.7880,-12.3,1.47,-2.94,12.73
2022-11-11 12:35:30.7980,-11.38,-0.48,-2.11,11.58
2022-11-11 12:35:30.8080,-10.5,-1.83,-1.75,10.8
2022-11-11 12:35:30.8180,-9.74,-2.39,-1.37,10.12
2022-11-11 12:35:30.8290,-9.29,-2.24,-1.51,9.67
2022-11-11 12:35:30.8390,-8.84,-1.6,-2.1,9.22
2022-11-11 12:35:30.8480,-7.27,-0.4,-2.25,7.62
2022-11-11 12:35:30.8740,-0.47,2.89,1.86,3.46
2022-11-11 12:35:30.8760,10.67,10.36,9.84,17.83
2022-11-11 12:35:30.8780,12.99,17.11,8.26,23.01
2022-11-11 12:35:30.8920,2.06,11.52,-1.47,11.79
2022-11-11 12:35:30.8980,-3.27,1.93,-2.21,4.39
2022-11-11 12:35:30.9080,-5.38,-4.6,-1.04,7.15
2022-11-11 12:35:30.9180,-6.03,-6.23,-1.15,8.74
2022-11-11 12:35:30.9280,-4.83,-4.95,-2.46,7.34
2022-11-11 12:35:30.9380,-3.95,-3.24,-4.3,6.67
2022-11-11 12:35:30.9480,-3.5,-0.51,-4.35,5.6
2022-11-11 12:35:30.9740,-2.93,3.22,-3.26,5.43
2022-11-11 12:35:30.9760,-3.21,5.1,-1.91,6.32
2022-11-11 12:35:30.9770,-3.98,4.53,0.47,6.04
2022-11-11 12:35:30.9920,-4.19,2.07,2.21,5.16
2022-11-11 12:35:30.9970,-3.72,-0.18,2.85,4.68
2022-11-11 12:35:31.0070,-2.84,-0.99,2.35,3.81
2022-11-11 12:35:31.0170,-1.42,-0.93,1.11,2.02
2022-11-11 12:35:31.0270,0.4,-0.37,-0.33,0.63
2022-11-11 12:35:31.0370,2.51,0.53,-1.89,3.18
2022-11-11 12:35:31.0470,3.94,0.89,-2.82,4.92
2022-11-11 12:35:31.0720,3.63,0.54,-2.7,4.55
2022-11-11 12:35:31.0740,2.23,-0.27,-1.84,2.9
2022-11-11 12:35:31.0760,0.45,-0.95,-1.43,1.77
2022-11-11 12:35:31.0920,-1.3,-1.12,-0.47,1.77
2022-11-11 12:35:31.0960,-2.41,-0.53,1.14,2.71
2022-11-11 12:35:31.1070,-2.69,0.63,2.08,3.45
2022-11-11 12:35:31.1160,-2.01,1.33,1.82,3.02
2022-11-11 12:35:31.1260,-0.82,1.11,0.84,1.61
2022-11-11 12:35:31.1370,0.36,0.43,-0.2,0.59
2022-11-11 12:35:31.1460,1.13,-0.14,-0.75,1.36
2022-11-11 12:35:31.1720,1.58,-0.48,-0.83,1.84
2022-11-11 12:35:31.1740,1.79,-0.64,-0.67,2.01
2022-11-11 12:35:31.1760,1.51,-0.53,-0.62,1.71
2022-11-11 12:35:31.1920,1.05,-0.2,-0.28,1.1
2022-11-11 12:35:31.1960,0.59,0.22,0.34,0.71
2022-11-11 12:35:31.2060,0.22,0.41,0.45,0.64
2022-11-11 12:35:31.2160,0.41,-0.01,0.37,0.55
2022-11-11 12:35:31.2260,1.1,-0.52,0.27,1.24
2022-11-11 12:35:31.2360,1.5,-0.52,-0.3,1.61
2022-11-11 12:35:31.2460,1.31,-0.02,-0.79,1.52
2022-11-11 12:35:31.2770,0.73,0.61,-0.59,1.11
2022-11-11 12:35:31.2790,0.12,0.89,-0.01,0.89
2022-11-11 12:35:31.2800,-0.23,0.71,0.25,0.78
2022-11-11 12:35:31.2920,-0.17,0.42,0.14,0.47
2022-11-11 12:35:31.2950,0.34,0.58,-0.12,0.68
2022-11-11 12:35:31.3050,0.73,0.98,-0.5,1.32
2022-11-11 12:35:31.3150,0.76,1.32,-0.58,1.62
2022-11-11 12:35:31.3250,0.29,1.3,-0.82,1.56
2022-11-11 12:35:31.3350,0.12,1.39,-0.06,1.39
2022-11-11 12:35:31.3450,0.18,1.98,0.57,2.06
2022-11-11 12:35:31.3760,0.97,2.34,0.87,2.67
2022-11-11 12:35:31.3780,1.9,2.41,0.47,3.1
2022-11-11 12:35:31.3790,2.4,2.34,-0.15,3.35
2022-11-11 12:35:31.3910,2.68,2.34,-0.62,3.61
2022-11-11 12:35:31.3950,2.91,2.59,-0.57,3.93
2022-11-11 12:35:31.4040,2.78,3.3,0.23,4.32
2022-11-11 12:35:31.4140,2.42,3.68,0.27,4.41
2022-11-11 12:35:31.4250,2.77,3.66,0.62,4.63
2022-11-11 12:35:31.4350,3.33,3.58,0.53,4.91
2022-11-11 12:35:31.4450,4.37,3.34,0.18,5.5
2022-11-11 12:35:31.4760,5.68,3.34,-0.34,6.59
2022-11-11 12:35:31.4780,6.84,4.32,-1.24,8.18
2022-11-11 12:35:31.4800,7.8,5.53,-0.99,9.61
2022-11-11 12:35:31.4900,7.99,6.11,-0.29,10.06
2022-11-11 12:35:31.4940,7.51,6.02,0.21,9.62
2022-11-11 12:35:31.5040,6.91,5.99,0.43,9.15
2022-11-11 12:35:31.5140,7.26,6.0,1.5,9.53
2022-11-11 12:35:31.5240,8.8,5.44,2.79,10.71
2022-11-11 12:35:31.5340,9.09,4.61,0.55,10.2
2022-11-11 12:35:31.5440,7.2,4.04,-4.01,9.17
2022-11-11 12:35:31.5760,5.13,5.3,-5.4,9.14
2022-11-11 12:35:31.5780,4.57,8.01,-3.47,9.85
2022-11-11 12:35:31.5790,4.0,9.79,-2.6,10.89
2022-11-11 12:35:31.5910,2.26,8.99,-2.92,9.71
2022-11-11 12:35:31.5930,1.08,6.53,-3.58,7.52
2022-11-11 12:35:31.6030,1.91,4.51,-2.51,5.5
2022-11-11 12:35:31.6130,4.04,3.06,-0.71,5.11
2022-11-11 12:35:31.6230,6.48,2.24,1.27,6.97
2022-11-11 12:35:31.6330,8.25,1.68,2.46,8.77
2022-11-11 12:35:31.6430,8.12,0.46,2.08,8.39
2022-11-11 12:35:31.6530,6.6,-0.98,1.2,6.77
2022-11-11 12:35:31.6800,5.03,-1.92,0.72,5.43
2022-11-11 12:35:31.6820,4.25,-2.15,1.18,4.9
2022-11-11 12:35:31.6830,4.69,-1.8,1.89,5.36
2022-11-11 12:35:31.6930,5.81,-1.77,1.77,6.32
2022-11-11 12:35:31.7020,6.99,-2.48,1.1,7.49
2022-11-11 12:35:31.7130,7.74,-3.58,0.27,8.53
2022-11-11 12:35:31.7220,7.47,-4.39,-0.64,8.68
2022-11-11 12:35:31.7330,6.11,-4.47,-1.16,7.65
2022-11-11 12:35:31.7430,4.9,-3.82,-0.46,6.23
2022-11-11 12:35:31.7530,4.34,-2.85,0.8,5.25
2022-11-11 12:35:31.7790,3.5,-1.74,1.46,4.17
2022-11-11 12:35:31.7810,1.77,-0.52,1.42,2.32
2022-11-11 12:35:31.7820,-0.37,0.61,1.21,1.4
2022-11-11 12:35:31.7920,-2.38,1.62,0.97,3.03
2022-11-11 12:35:31.8020,-4.16,2.43,0.58,4.85
2022-11-11 12:35:31.8120,-5.35,2.82,0.48,6.06
2022-11-11 12:35:31.8220,-5.79,2.97,0.55,6.53
2022-11-11 12:35:31.8320,-6.16,3.02,0.18,6.86
2022-11-11 12:35:31.8420,-6.72,3.24,-0.59,7.48
2022-11-11 12:35:31.8520,-6.92,3.65,-0.77,7.86
2022-11-11 12:35:31.8780,-6.62,3.88,-0.94,7.73
2022-11-11 12:35:31.8790,-6.32,3.64,-1.57,7.46
2022-11-11 12:35:31.8810,-6.31,3.67,-1.97,7.56
2022-11-11 12:35:31.8910,-6.56,4.34,-2.21,8.17
2022-11-11 12:35:31.9010,-7.41,5.16,-2.14,9.27
2022-11-11 12:35:31.9110,-8.76,5.72,-2.18,10.68
2022-11-11 12:35:31.9210,-10.16,5.77,-2.46,11.94
2022-11-11 12:35:31.9310,-11.5,5.25,-3.3,13.06
2022-11-11 12:35:31.9410,-12.44,3.72,-3.87,13.54
2022-11-11 12:35:31.9510,-13.0,1.84,-3.79,13.66
2022-11-11 12:35:31.9750,-12.75,0.68,-3.01,13.11
2022-11-11 12:35:31.9770,-11.76,-0.3,-2.09,11.94
2022-11-11 12:35:31.9810,-11.14,-1.25,-1.67,11.33
2022-11-11 12:35:31.9910,-10.76,-2.09,-1.91,11.12
2022-11-11 12:35:32.0010,-10.16,-2.39,-2.05,10.63
2022-11-11 12:35:32.0110,-9.28,-1.85,-1.72,9.61
2022-11-11 12:35:32.0200,-8.35,-0.75,-0.95,8.43
2022-11-11 12:35:32.0310,-7.18,0.46,0.27,7.19
2022-11-11 12:35:32.0410,-3.76,1.76,1.75,4.5
2022-11-11 12:35:32.0510,5.08,4.31,5.85,8.86
2022-11-11 12:35:32.0820,14.6,10.24,10.41,20.64
2022-11-11 12:35:32.0840,11.57,13.47,1.33,17.8
2022-11-11 12:35:32.0850,2.2,9.23,-5.79,11.11
2022-11-11 12:35:32.0900,-2.42,0.9,-3.59,4.42
2022-11-11 12:35:32.1000,-5.17,-4.86,-1.89,7.34
2022-11-11 12:35:32.1100,-6.12,-5.53,-1.92,8.46
2022-11-11 12:35:32.1200,-5.27,-3.87,-1.21,6.64
2022-11-11 12:35:32.1300,-4.58,-1.69,-0.74,4.93
2022-11-11 12:35:32.1400,-4.55,0.4,-1.74,4.88
2022-11-11 12:35:32.1500,-4.89,2.73,-3.61,6.66
2022-11-11 12:35:32.1810,-4.62,5.58,-3.84,8.19
2022-11-11 12:35:32.1820,-3.34,5.44,-1.21,6.49
2022-11-11 12:35:32.1840,-2.27,1.96,1.76,3.47
2022-11-11 12:35:32.1890,-2.26,-0.49,1.75,2.9
2022-11-11 12:35:32.1990,-2.26,-1.46,0.47,2.73
2022-11-11 12:35:32.2090,-1.51,-1.51,-0.47,2.18
2022-11-11 12:35:32.2190,0.12,-0.92,-1.08,1.42
2022-11-11 12:35:32.2290,1.96,-0.01,-1.37,2.39
2022-11-11 12:35:32.2390,3.11,0.87,-1.45,3.53
2022-11-11 12:35:32.2490,3.26,0.97,-1.11,3.57
2022-11-11 12:35:32.2800,2.21,0.19,-1.08,2.46
2022-11-11 12:35:32.2820,0.34,-0.58,-1.1,1.28
2022-11-11 12:35:32.2830,-1.17,-0.87,-0.32,1.49
2022-11-11 12:35:32.2890,-1.89,-0.66,0.75,2.13
2022-11-11 12:35:32.2980,-1.96,-0.13,1.43,2.42
2022-11-11 12:35:32.3090,-1.77,0.52,1.38,2.3
2022-11-11 12:35:32.3180,-1.05,0.99,1.08,1.8
2022-11-11 12:35:32.3290,-0.08,1.02,0.38,1.09
2022-11-11 12:35:32.3390,0.89,0.58,-0.5,1.17
2022-11-11 12:35:32.3490,1.79,-0.16,-1.0,2.05
2022-11-11 12:35:32.3790,2.0,-0.7,-1.15,2.41
2022-11-11 12:35:32.3810,1.58,-0.85,-0.96,2.03
2022-11-11 12:35:32.3820,1.05,-0.72,-0.27,1.3
2022-11-11 12:35:32.3880,0.52,-0.36,0.08,0.63
2022-11-11 12:35:32.4030,0.11,-0.04,0.05,0.12
2022-11-11 12:35:32.4080,-0.04,0.01,0.36,0.36
2022-11-11 12:35:32.4180,0.06,-0.01,0.55,0.55
2022-11-11 12:35:32.4280,0.42,0.08,0.16,0.45
2022-11-11 12:35:32.4380,0.86,0.17,-0.26,0.91
2022-11-11 12:35:32.4480,0.84,0.21,-0.56,1.03
2022-11-11 12:35:32.4580,0.3,0.19,-0.42,0.55
2022-11-11 12:35:32.4840,-0.23,0.22,0.02,0.31
2022-11-11 12:35:32.4850,-0.19,0.26,0.62,0.69
2022-11-11 12:35:32.4870,0.49,0.4,0.59,0.86
2022-11-11 12:35:32.5050,1.22,0.61,0.05,1.36
2022-11-11 12:35:32.5070,1.72,0.84,-0.48,1.97
2022-11-11 12:35:32.5170,1.98,0.97,-0.8,2.34
2022-11-11 12:35:32.5270,1.78,1.07,-1.11,2.35
2022-11-11 12:35:32.5370,1.46,1.38,-1.26,2.37
2022-11-11 12:35:32.5470,1.14,2.02,-0.89,2.48
2022-11-11 12:35:32.5570,1.02,2.89,-0.62,3.12
2022-11-11 12:35:32.5830,1.46,3.94,0.53,4.23
2022-11-11 12:35:32.5840,1.82,4.35,0.34,4.72
2022-11-11 12:35:32.5870,2.55,4.22,0.22,4.93
2022-11-11 12:35:32.5970,3.51,4.15,-0.02,5.43
2022-11-11 12:35:32.6070,4.39,4.19,-0.28,6.07
2022-11-11 12:35:32.6170,4.94,4.36,-0.79,6.63
2022-11-11 12:35:32.6270,5.61,5.41,-0.62,7.81
2022-11-11 12:35:32.6370,6.46,6.71,-0.22,9.31
2022-11-11 12:35:32.6470,7.52,6.91,0.09,10.21
2022-11-11 12:35:32.6570,8.02,6.43,-0.05,10.27
2022-11-11 12:35:32.6830,8.37,5.99,0.07,10.29
2022-11-11 12:35:32.6850,8.87,5.86,0.21,10.63
2022-11-11 12:35:32.6860,9.56,5.7,0.21,11.13
2022-11-11 12:35:32.7050,10.24,4.76,-0.13,11.29
2022-11-11 12:35:32.7060,8.91,3.68,-1.77,9.8
2022-11-11 12:35:32.7160,4.89,3.39,-5.01,7.77
2022-11-11 12:35:32.7260,1.31,5.15,-5.95,7.97
2022-11-11 12:35:32.7360,-0.19,8.09,-4.12,9.08
2022-11-11 12:35:32.7460,1.26,10.47,-1.92,10.71
2022-11-11 12:35:32.7560,3.98,9.38,-0.48,10.2
2022-11-11 12:35:32.7830,6.17,5.84,0.11,8.49
2022-11-11 12:35:32.7840,6.76,2.42,-0.34,7.18
2022-11-11 12:35:32.7860,6.85,0.11,-1.01,6.92
2022-11-11 12:35:32.8050,7.24,-1.39,-1.01,7.44
2022-11-11 12:35:32.8060,7.47,-2.31,-0.55,7.83
2022-11-11 12:35:32.8150,7.28,-2.59,-0.4,7.73
2022-11-11 12:35:32.8260,7.05,-2.36,-0.36,7.44
2022-11-11 12:35:32.8360,6.95,-2.05,-0.06,7.24
2022-11-11 12:35:32.8460,6.69,-2.1,-0.14,7.01
2022-11-11 12:35:32.8550,6.7,-2.32,0.14,7.09
2022-11-11 12:35:32.8860,6.97,-2.38,0.74,7.4
2022-11-11 12:35:32.8880,6.76,-2.24,1.14,7.21
2022-11-11 12:35:32.8890,5.85,-1.86,1.3,6.27
2022-11-11 12:35:32.9050,4.62,-1.46,1.52,5.07
2022-11-11 12:35:32.9060,3.61,-1.06,1.5,4.05
2022-11-11 12:35:32.9150,2.84,-0.57,0.69,2.97
2022-11-11 12:35:32.9250,1.95,-0.26,-0.25,1.98
2022-11-11 12:35:32.9350,1.03,-0.23,-0.54,1.18
2022-11-11 12:35:32.9450,0.11,-0.4,-0.48,0.63
2022-11-11 12:35:32.9550,-0.87,-0.51,-0.42,1.09
2022-11-11 12:35:32.9860,-1.84,-0.35,-0.37,1.9
2022-11-11 12:35:32.9870,-3.06,0.41,-0.48,3.12
2022-11-11 12:35:32.9890,-4.59,1.72,-0.31,4.91
2022-11-11 12:35:33.0050,-5.93,3.21,0.47,6.75
2022-11-11 12:35:33.0060,-6.97,4.13,0.91,8.15
2022-11-11 12:35:33.0140,-7.51,3.88,0.58,8.47
2022-11-11 12:35:33.0240,-7.06,2.7,0.15,7.56
2022-11-11 12:35:33.0340,-5.67,1.74,-0.21,5.93
2022-11-11 12:35:33.0440,-4.19,1.27,-1.03,4.49
2022-11-11 12:35:33.0540,-3.71,0.83,-1.97,4.28
2022-11-11 12:35:33.0860,-4.6,1.1,-2.3,5.25
2022-11-11 12:35:33.0870,-6.05,2.33,-2.19,6.84
2022-11-11 12:35:33.0890,-7.63,3.91,-1.45,8.69
2022-11-11 12:35:33.1040,-9.56,5.11,-0.69,10.86
2022-11-11 12:35:33.1060,-11.27,5.22,-0.58,12.43
2022-11-11 12:35:33.1130,-12.83,4.48,-1.5,13.67
2022-11-11 12:35:33.1240,-13.9,3.88,-2.3,14.61
2022-11-11 12:35:33.1330,-12.91,3.15,-1.52,13.37
2022-11-11 12:35:33.1430,-11.02,1.3,-0.69,11.11
2022-11-11 12:35:33.1540,-10.54,-0.86,-1.2,10.64
2022-11-11 12:35:33.1850,-10.78,-2.57,-1.69,11.21
2022-11-11 12:35:33.1860,-10.78,-3.5,-2.15,11.53
2022-11-11 12:35:33.1880,-10.36,-2.84,-3.43,11.27
2022-11-11 12:35:33.2040,-8.16,-0.38,-2.7,8.6
2022-11-11 12:35:33.2050,-2.94,4.22,2.21,5.59
2022-11-11 12:35:33.2130,3.7,9.31,7.5,12.51
2022-11-11 12:35:33.2230,4.87,11.24,5.97,13.62
2022-11-11 12:35:33.2330,0.78,7.93,-1.75,8.15
2022-11-11 12:35:33.2430,-2.21,2.04,-2.85,4.14
2022-11-11 12:35:33.2530,-3.41,-2.33,-0.92,4.23
2022-11-11 12:35:33.2630,-3.97,-3.63,-1.84,5.68
2022-11-11 12:35:33.2900,-4.59,-3.24,-3.84,6.8
2022-11-11 12:35:33.2910,-4.58,-0.99,-3.71,5.97
2022-11-11 12:35:33.2920,-3.23,2.2,-2.85,4.83
2022-11-11 12:35:33.3030,-2.86,3.5,-1.88,4.89
2022-11-11 12:35:33.3120,-3.55,3.89,-0.08,5.26
2022-11-11 12:35:33.3220,-4.1,2.74,1.72,5.22
2022-11-11 12:35:33.3320,-4.06,0.84,3.05,5.14
2022-11-11 12:35:33.3420,-3.69,-0.38,2.74,4.61
2022-11-11 12:35:33.3520,-2.45,-0.43,1.39,2.84
2022-11-11 12:35:33.3620,-0.7,0.02,-0.31,0.76
2022-11-11 12:35:33.3900,0.85,0.67,-1.57,1.9
2022-11-11 12:35:33.3910,2.13,0.97,-1.56,2.81
2022-11-11 12:35:33.3930,2.66,0.59,-1.21,2.98
2022-11-11 12:35:33.4020,2.62,-0.13,-1.33,2.94
2022-11-11 12:35:33.4110,2.24,-0.79,-1.4,2.75
2022-11-11 12:35:33.4220,1.62,-1.16,-1.2,2.32
2022-11-11 12:35:33.4310,0.88,-1.12,-0.77,1.61
2022-11-11 12:35:33.4420,0.12,-0.72,0.02,0.73
2022-11-11 12:35:33.4520,-0.72,-0.17,0.48,0.88
2022-11-11 12:35:33.4610,-1.46,0.37,0.48,1.58
2022-11-11 12:35:33.4890,-1.33,0.73,0.43,1.57
2022-11-11 12:35:33.4900,-0.26,0.73,0.04,0.77
2022-11-11 12:35:33.4920,0.64,0.51,-0.56,0.99
2022-11-11 12:35:33.5030,0.81,0.32,-0.83,1.2
2022-11-11 12:35:33.5110,0.65,0.18,-0.41,0.78
2022-11-11 12:35:33.5210,0.53,0.03,0.09,0.53
2022-11-11 12:35:33.5310,0.63,-0.12,0.0,0.64
2022-11-11 12:35:33.5410,1.09,-0.3,-0.23,1.15
2022-11-11 12:35:33.5510,1.77,-0.46,-0.35,1.86
2022-11-11 12:35:33.5610,2.01,-0.44,-0.59,2.14
2022-11-11 12:35:33.5880,1.58,-0.13,-1.05,1.9
2022-11-11 12:35:33.5890,0.96,0.21,-1.02,1.41
2022-11-11 12:35:33.5910,0.43,0.56,-0.41,0.81
2022-11-11 12:35:33.6040,0.0,0.86,0.07,0.86
2022-11-11 12:35:33.6100,0.01,0.96,0.05,0.96
2022-11-11 12:35:33.6200,0.41,1.04,-0.18,1.13
2022-11-11 12:35:33.6300,0.78,1.46,-0.28,1.67
2022-11-11 12:35:33.6400,0.94,2.06,-0.3,2.28
2022-11-11 12:35:33.6500,1.04,2.54,-0.04,2.74
2022-11-11 12:35:33.6600,1.19,2.74,0.92,3.12
2022-11-11 12:35:33.6930,1.42,2.3,1.17,2.94
2022-11-11 12:35:33.6950,2.02,1.69,0.92,2.78
2022-11-11 12:35:33.6960,2.59,1.66,0.57,3.12
2022-11-11 12:35:33.7000,3.06,2.11,0.08,3.71
2022-11-11 12:35:33.7170,3.53,2.59,0.0,4.37
2022-11-11 12:35:33.7200,3.78,2.9,-0.13,4.76
2022-11-11 12:35:33.7290,3.81,3.05,-0.04,4.88
2022-11-11 12:35:33.7400,3.88,3.14,0.12,4.99
2022-11-11 12:35:33.7490,4.3,3.35,0.31,5.45
2022-11-11 12:35:33.7600,4.97,4.24,-0.1,6.53
2022-11-11 12:35:33.7930,6.08,5.82,-0.35,8.42
2022-11-11 12:35:33.7950,7.32,6.97,0.32,10.11
2022-11-11 12:35:33.7960,7.83,7.02,0.87,10.55
2022-11-11 12:35:33.7990,7.82,6.31,1.41,10.14
2022-11-11 12:35:33.8170,7.86,5.58,0.99,9.69
2022-11-11 12:35:33.8190,8.64,5.0,0.68,10.0
2022-11-11 12:35:33.8290,9.53,4.13,-0.38,10.39
2022-11-11 12:35:33.8390,8.83,3.61,-3.6,10.19
2022-11-11 12:35:33.8490,6.7,3.81,-6.73,10.23
2022-11-11 12:35:33.8590,4.44,5.24,-6.68,9.58
2022-11-11 12:35:33.8910,2.42,7.84,-5.61,9.93
2022-11-11 12:35:33.8930,1.64,10.1,-4.2,11.06
2022-11-11 12:35:33.8940,2.17,10.12,-1.99,10.53
2022-11-11 12:35:33.8990,3.01,7.89,0.27,8.44
2022-11-11 12:35:33.9080,3.95,5.33,1.76,6.86
2022-11-11 12:35:33.9190,4.99,3.01,2.16,6.21
2022-11-11 12:35:33.9280,5.45,1.13,1.48,5.75
2022-11-11 12:35:33.9380,5.33,-0.2,0.71,5.38
2022-11-11 12:35:33.9480,5.62,-1.16,0.57,5.76
2022-11-11 12:35:33.9580,6.39,-1.85,0.64,6.68
2022-11-11 12:35:33.9920,7.19,-2.29,0.63,7.57
2022-11-11 12:35:33.9930,7.83,-2.76,0.27,8.3
2022-11-11 12:35:33.9950,8.16,-3.44,-0.63,8.87
2022-11-11 12:35:34.0010,8.19,-4.18,-1.66,9.34
2022-11-11 12:35:34.0170,7.97,-4.62,-2.06,9.43
2022-11-11 12:35:34.0180,7.65,-4.27,-1.83,8.95
2022-11-11 12:35:34.0270,7.35,-3.18,-1.06,8.07
2022-11-11 12:35:34.0380,6.08,-1.81,-0.51,6.36
2022-11-11 12:35:34.0470,3.79,-0.67,-0.47,3.87
2022-11-11 12:35:34.0580,1.26,0.02,-0.54,1.37
2022-11-11 12:35:34.0680,-0.72,0.45,-0.5,0.98
2022-11-11 12:35:34.0960,-1.92,0.77,-0.2,2.07
2022-11-11 12:35:34.0970,-3.02,0.96,-0.05,3.16
2022-11-11 12:35:34.0980,-4.55,1.08,0.11,4.67
2022-11-11 12:35:34.1070,-6.42,1.32,0.48,6.57
2022-11-11 12:35:34.1170,-7.78,1.84,1.05,8.06
2022-11-11 12:35:34.1270,-8.19,2.47,1.5,8.68
2022-11-11 12:35:34.1370,-8.25,2.78,0.91,8.75
2022-11-11 12:35:34.1470,-7.82,2.74,-0.59,8.3
2022-11-11 12:35:34.1570,-7.03,2.5,-1.99,7.72
2022-11-11 12:35:34.1670,-6.37,2.03,-3.23,7.42
2022-11-11 12:35:34.1950,-5.74,1.12,-4.08,7.13
2022-11-11 12:35:34.1960,-5.35,0.52,-4.18,6.8
2022-11-11 12:35:34.1970,-5.78,1.24,-3.52,6.88
2022-11-11 12:35:34.2060,-7.16,2.77,-2.35,8.02
2022-11-11 12:35:34.2160,-9.22,4.26,-1.05,10.21
2022-11-11 12:35:34.2260,-11.78,5.12,-0.09,12.84
2022-11-11 12:35:34.2360,-13.9,5.2,0.4,14.84
2022-11-11 12:35:34.2460,-14.43,4.3,-0.08,15.05
2022-11-11 12:35:34.2560,-13.24,1.78,-1.63,13.45
2022-11-11 12:35:34.2660,-11.34,-0.77,-3.01,11.75
2022-11-11 12:35:34.2940,-9.44,-2.17,-3.7,10.36
2022-11-11 12:35:34.2960,-7.91,-2.81,-4.04,9.31
2022-11-11 12:35:34.2970,-7.15,-2.66,-3.72,8.48
2022-11-11 12:35:34.3060,-6.41,-2.03,-2.66,7.23
2022-11-11 12:35:34.3160,-5.73,-1.46,-2.26,6.33
2022-11-11 12:35:34.3260,-3.74,0.46,-0.23,3.77
2022-11-11 12:35:34.3360,1.0,3.6,5.06,6.28
2022-11-11 12:35:34.3450,4.44,7.9,8.56,12.46
2022-11-11 12:35:34.3560,1.63,9.22,5.0,10.61
2022-11-11 12:35:34.3660,-2.47,5.4,-0.05,5.93
2022-11-11 12:35:34.3940,-4.59,0.92,-1.88,5.04
2022-11-11 12:35:34.3950,-5.12,-1.87,-2.07,5.83
2022-11-11 12:35:34.3960,-4.44,-2.41,-1.51,5.27
2022-11-11 12:35:34.4050,-2.94,-1.56,-1.69,3.73
2022-11-11 12:35:34.4150,-2.67,-1.25,-4.47,5.35
2022-11-11 12:35:34.4250,-3.22,0.23,-5.41,6.29
2022-11-11 12:35:34.4350,-3.22,2.13,-4.07,5.6
2022-11-11 12:35:34.4450,-2.99,2.77,-1.04,4.2
2022-11-11 12:35:34.4550,-2.5,2.77,1.49,4.01
2022-11-11 12:35:34.4650,-2.04,1.61,2.32,3.48
2022-11-11 12:35:34.5000,-1.82,0.4,2.36,3.0
2022-11-11 12:35:34.5010,-1.19,-0.08,1.4,1.83
2022-11-11 12:35:34.5030,-0.34,-0.14,0.07,0.37
2022-11-11 12:35:34.5180,0.36,0.03,-0.62,0.71
2022-11-11 12:35:34.5190,0.77,0.33,-0.8,1.15
2022-11-11 12:35:34.5240,0.64,0.52,-0.89,1.21
2022-11-11 12:35:34.5350,0.23,0.41,-0.74,0.87
2022-11-11 12:35:34.5440,-0.17,0.01,-0.68,0.7
2022-11-11 12:35:34.5540,-0.55,-0.46,-0.42,0.83
2022-11-11 12:35:34.5640,-1.04,-0.66,-0.04,1.23
2022-11-11 12:35:34.5980,-1.1,-0.47,0.4,1.26
2022-11-11 12:35:34.6000,-0.71,0.0,0.84,1.09
2022-11-11 12:35:34.6010,-0.32,0.47,0.8,0.98
2022-11-11 12:35:34.6170,-0.15,0.68,0.35,0.77
2022-11-11 12:35:34.6190,0.08,0.56,-0.22,0.6
2022-11-11 12:35:34.6240,0.36,0.25,-0.38,0.58
2022-11-11 12:35:34.6340,0.54,0.0,-0.47,0.71
2022-11-11 12:35:34.6430,0.57,-0.12,-0.56,0.8
2022-11-11 12:35:34.6540,0.52,-0.05,-0.55,0.75
2022-11-11 12:35:34.6630,0.52,0.03,-0.58,0.77
2022-11-11 12:35:34.6980,0.5,0.05,-0.75,0.9
2022-11-11 12:35:34.7000,0.53,-0.02,-0.6,0.8
2022-11-11 12:35:34.7010,0.71,-0.09,-0.22,0.74
2022-11-11 12:35:34.7170,0.79,-0.13,0.11,0.8
2022-11-11 12:35:34.7180,0.75,-0.15,0.06,0.76
2022-11-11 12:35:34.7230,0.81,-0.1,-0.1,0.82
2022-11-11 12:35:34.7330,0.81,0.05,-0.23,0.84
2022-11-11 12:35:34.7430,0.61,0.25,-0.29,0.72
2022-11-11 12:35:34.7530,0.34,0.35,-0.34,0.59
2022-11-11 12:35:34.7630,0.16,0.4,-0.43,0.6
2022-11-11 12:35:34.7970,-0.03,0.46,-0.42,0.62
2022-11-11 12:35:34.7990,-0.15,0.46,-0.3,0.56
2022-11-11 12:35:34.8000,0.06,0.27,0.06,0.28
2022-11-11 12:35:34.8170,0.46,0.04,0.1,0.47
2022-11-11 12:35:34.8180,0.8,0.06,-0.14,0.81
2022-11-11 12:35:34.8220,0.92,0.43,-0.39,1.08
2022-11-11 12:35:34.8320,0.75,1.06,-0.47,1.38
2022-11-11 12:35:34.8420,0.37,1.67,-0.23,1.72
2022-11-11 12:35:34.8520,-0.08,1.91,-0.19,1.92
2022-11-11 12:35:34.8620,-0.14,1.9,0.73,2.04
2022-11-11 12:35:34.8720,0.03,1.6,1.03,1.9
2022-11-11 12:35:34.9000,0.65,1.37,1.22,1.94
2022-11-11 12:35:34.9020,1.13,1.16,0.73,1.77
2022-11-11 12:35:34.9030,1.51,1.0,-0.37,1.84
2022-11-11 12:35:34.9170,1.88,1.21,-0.68,2.33
2022-11-11 12:35:34.9220,2.01,1.85,-0.21,2.73
2022-11-11 12:35:34.9320,1.77,2.39,-0.32,2.99
2022-11-11 12:35:34.9420,1.68,2.68,-0.05,3.16
2022-11-11 12:35:34.9520,1.53,2.68,0.14,3.08
2022-11-11 12:35:34.9610,1.62,2.6,0.39,3.08
2022-11-11 12:35:34.9720,2.06,2.6,0.57,3.36
2022-11-11 12:35:35.0010,2.69,2.93,0.38,3.99
2022-11-11 12:35:35.0030,3.62,3.7,-0.18,5.17
2022-11-11 12:35:35.0040,4.9,4.66,-0.35,6.77
2022-11-11 12:35:35.0170,6.08,5.38,-0.15,8.11
2022-11-11 12:35:35.0210,6.84,5.36,0.11,8.69
2022-11-11 12:35:35.0310,7.35,4.6,0.52,8.68
2022-11-11 12:35:35.0410,7.76,3.76,0.5,8.63
2022-11-11 12:35:35.0510,8.14,3.43,0.18,8.83
2022-11-11 12:35:35.0610,8.29,3.44,-0.24,8.97
2022-11-11 12:35:35.0710,7.22,3.06,-1.48,7.98
2022-11-11 12:35:35.1010,4.54,2.87,-4.28,6.86
2022-11-11 12:35:35.1020,2.0,4.11,-5.35,7.03
2022-11-11 12:35:35.1040,0.73,5.94,-3.59,6.97
2022-11-11 12:35:35.1170,0.84,7.57,-1.48,7.75
2022-11-11 12:35:35.1200,2.36,7.6,-0.05,7.95
2022-11-11 12:35:35.1310,3.91,5.54,0.72,6.81
2022-11-11 12:35:35.1400,4.88,3.09,1.23,5.9
2022-11-11 12:35:35.1500,5.78,1.08,1.17,5.99
2022-11-11 12:35:35.1600,6.76,-0.49,0.87,6.83
2022-11-11 12:35:35.1700,7.36,-1.52,0.5,7.53
2022-11-11 12:35:35.2000,7.61,-1.85,0.08,7.83
2022-11-11 12:35:35.2020,7.73,-1.67,-0.37,7.91
2022-11-11 12:35:35.2030,7.89,-1.35,-0.66,8.03
2022-11-11 12:35:35.2160,8.1,-1.26,-0.81,8.23
2022-11-11 12:35:35.2200,8.04,-1.59,-0.97,8.25
2022-11-11 12:35:35.2300,7.58,-1.98,-1.39,7.95
2022-11-11 12:35:35.2400,7.1,-1.79,-1.57,7.48
2022-11-11 12:35:35.2500,6.76,-1.13,-0.9,6.91
2022-11-11 12:35:35.2590,5.87,-0.6,-0.21,5.9
2022-11-11 12:35:35.2700,4.1,-0.17,0.18,4.1
2022-11-11 12:35:35.3040,2.14,0.33,0.46,2.21
2022-11-11 12:35:35.3060,0.78,1.12,0.72,1.54
2022-11-11 12:35:35.3070,-0.07,1.92,0.88,2.11
2022-11-11 12:35:35.3110,-0.89,2.76,0.64,2.96
2022-11-11 12:35:35.3190,-1.7,3.47,0.41,3.88
2022-11-11 12:35:35.3300,-2.57,3.65,0.15,4.46
2022-11-11 12:35:35.3390,-3.55,3.27,-0.34,4.83
2022-11-11 12:35:35.3490,-4.26,2.67,-0.65,5.06
2022-11-11 12:35:35.3590,-4.37,2.32,-0.44,4.96
2022-11-11 12:35:35.3690,-4.3,2.25,-0.43,4.87
2022-11-11 12:35:35.4040,-4.47,2.15,-1.18,5.09
2022-11-11 12:35:35.4060,-4.58,1.88,-1.92,5.31
2022-11-11 12:35:35.4070,-4.52,1.53,-2.21,5.25
2022-11-11 12:35:35.4150,-4.34,1.28,-2.12,4.99
2022-11-11 12:35:35.4190,-4.34,1.15,-2.07,4.94
2022-11-11 12:35:35.4300,-4.74,1.2,-2.08,5.31
2022-11-11 12:35:35.4380,-5.48,1.51,-2.08,6.05
2022-11-11 12:35:35.4490,-6.25,1.94,-2.46,6.99
2022-11-11 12:35:35.4580,-6.81,2.24,-3.23,7.86
2022-11-11 12:35:35.4680,-7.21,2.21,-3.97,8.52
2022-11-11 12:35:35.5040,-7.49,1.73,-4.38,8.84
2022-11-11 12:35:35.5050,-7.97,0.63,-4.76,9.3
2022-11-11 12:35:35.5060,-8.83,-0.74,-5.29,10.31
2022-11-11 12:35:35.5150,-9.81,-1.94,-5.6,11.46
2022-11-11 12:35:35.5180,-10.34,-2.6,-5.23,11.87
2022-11-11 12:35:35.5300,-10.27,-2.56,-4.08,11.34
2022-11-11 12:35:35.5380,-9.85,-2.03,-2.82,10.44
2022-11-11 12:35:35.5480,-9.17,-1.71,-2.72,9.71
2022-11-11 12:35:35.5580,-9.15,-1.92,-3.73,10.06
2022-11-11 12:35:35.5680,-9.28,-2.21,-3.45,10.14
2022-11-11 12:35:35.6030,-8.27,-2.45,-2.81,9.07
2022-11-11 12:35:35.6040,-7.41,-1.86,-2.11,7.92
2022-11-11 12:35:35.6050,-5.06,1.91,0.92,5.48
2022-11-11 12:35:35.6150,-0.51,6.2,3.7,7.23
2022-11-11 12:35:35.6170,2.9,10.16,3.4,11.09
2022-11-11 12:35:35.6270,2.07,9.88,-0.45,10.1
2022-11-11 12:35:35.6370,-0.75,3.45,-3.11,4.7
2022-11-11 12:35:35.6470,-1.96,-0.86,-4.25,4.75
2022-11-11 12:35:35.6570,-3.01,-2.72,-5.13,6.54
2022-11-11 12:35:35.6670,-3.04,-2.55,-3.35,5.19
2022-11-11 12:35:35.6770,-2.12,-1.05,-0.74,2.47
2022-11-11 12:35:35.7080,-1.88,0.38,0.45,1.97
2022-11-11 12:35:35.7100,-2.1,1.14,0.32,2.41
2022-11-11 12:35:35.7110,-2.16,1.01,0.32,2.4
2022-11-11 12:35:35.7170,-1.76,0.56,0.46,1.9
2022-11-11 12:35:35.7270,-0.92,0.27,0.53,1.09
2022-11-11 12:35:35.7360,-0.41,0.36,0.1,0.55
2022-11-11 12:35:35.7470,-0.41,0.73,-0.58,1.01
2022-11-11 12:35:35.7560,-0.67,0.98,-0.81,1.43
2022-11-11 12:35:35.7670,-0.8,0.95,-0.7,1.42
2022-11-11 12:35:35.7760,-0.54,0.64,-0.65,1.06
2022-11-11 12:35:35.8070,-0.05,0.22,-0.55,0.59
2022-11-11 12:35:35.8080,0.31,-0.05,-0.42,0.52
2022-11-11 12:35:35.8090,0.5,-0.14,-0.43,0.67
2022-11-11 12:35:35.8160,0.54,-0.11,-0.5,0.74
2022-11-11 12:35:35.8260,0.32,-0.05,-0.42,0.53
2022-11-11 12:35:35.8360,-0.06,-0.04,-0.28,0.28
2022-11-11 12:35:35.8460,-0.55,-0.07,-0.14,0.57
2022-11-11 12:35:35.8560,-0.9,-0.04,-0.01,0.9
2022-11-11 12:35:35.8660,-1.04,0.03,-0.07,1.04
2022-11-11 12:35:35.8760,-0.93,0.15,-0.17,0.95
2022-11-11 12:35:35.9060,-0.53,0.18,0.04,0.56
2022-11-11 12:35:35.9070,-0.12,0.08,0.04,0.14
2022-11-11 12:35:35.9090,0.29,-0.09,-0.11,0.32
2022-11-11 12:35:35.9150,0.83,-0.26,-0.16,0.88
2022-11-11 12:35:35.9250,1.21,-0.31,-0.61,1.39
2022-11-11 12:35:35.9350,1.4,-0.3,-1.16,1.84
2022-11-11 12:35:35.9450,1.22,-0.22,-1.21,1.73
2022-11-11 12:35:35.9550,0.55,0.03,-0.93,1.08
2022-11-11 12:35:35.9650,-0.16,0.26,-0.58,0.65
2022-11-11 12:35:35.9750,-0.57,0.36,-0.2,0.7
2022-11-11 12:35:36.0050,-0.45,0.34,0.64,0.85
2022-11-11 12:35:36.0060,0.02,0.06,1.15,1.15
2022-11-11 12:35:36.0070,0.56,-0.36,0.64,0.92
2022-11-11 12:35:36.0150,1.14,-0.54,-0.36,1.31
2022-11-11 12:35:36.0290,1.66,-0.42,-1.12,2.04
2022-11-11 12:35:36.0350,1.66,-0.18,-1.38,2.16
2022-11-11 12:35:36.0450,0.84,0.07,-1.16,1.43
2022-11-11 12:35:36.0540,-0.42,0.18,-0.65,0.79
2022-11-11 12:35:36.0650,-1.29,0.23,0.11,1.31
2022-11-11 12:35:36.0740,-1.49,0.29,0.66,1.65
2022-11-11 12:35:36.1110,-0.95,0.27,1.02,1.41
2022-11-11 12:35:36.1120,-0.02,0.07,0.75,0.75
2022-11-11 12:35:36.1130,0.63,-0.16,-0.17,0.67
2022-11-11 12:35:36.1310,1.11,-0.26,-0.57,1.27
2022-11-11 12:35:36.1320,1.34,-0.13,-0.59,1.46
2022-11-11 12:35:36.1340,1.21,-0.02,-1.03,1.58
2022-11-11 12:35:36.1440,0.83,-0.03,-1.14,1.41
2022-11-11 12:35:36.1540,0.48,0.0,-0.66,0.81
2022-11-11 12:35:36.1640,0.19,0.14,0.17,0.29
2022-11-11 12:35:36.1740,-0.14,0.16,0.33,0.39
2022-11-11 12:35:36.2090,-0.08,0.11,0.17,0.21
2022-11-11 12:35:36.2110,0.65,0.23,0.05,0.69
2022-11-11 12:35:36.2120,1.31,0.37,-0.49,1.44
2022-11-11 12:35:36.2300,1.56,0.33,-0.87,1.81
2022-11-11 12:35:36.2310,1.48,0.27,-0.81,1.7
2022-11-11 12:35:36.2330,1.33,0.13,-0.63,1.47
2022-11-11 12:35:36.2430,1.34,-0.09,-0.51,1.43
2022-11-11 12:35:36.2530,1.44,-0.08,-0.47,1.51
2022-11-11 12:35:36.2630,1.72,0.18,-0.98,1.98
2022-11-11 12:35:36.2730,1.85,0.62,-1.35,2.37
2022-11-11 12:35:36.3080,1.99,1.27,-1.6,2.85
2022-11-11 12:35:36.3090,2.28,1.76,-1.31,3.16
2022-11-11 12:35:36.3100,2.57,2.22,-0.81,3.49
2022-11-11 12:35:36.3300,2.96,2.7,-0.73,4.07
2022-11-11 12:35:36.3310,3.21,3.21,-0.43,4.55
2022-11-11 12:35:36.3330,3.46,4.18,-0.16,5.42
2022-11-11 12:35:36.3430,4.06,5.53,-0.07,6.86
2022-11-11 12:35:36.3530,4.6,6.8,-0.08,8.21
2022-11-11 12:35:36.3630,4.93,7.53,-0.64,9.02
2022-11-11 12:35:36.3720,5.41,7.31,-1.37,9.19
2022-11-11 12:35:36.4080,5.7,6.3,-2.27,8.79
2022-11-11 12:35:36.4090,5.67,4.92,-3.06,8.1
2022-11-11 12:35:36.4110,5.54,3.24,-3.25,7.19
2022-11-11 12:35:36.4300,4.75,1.3,-3.65,6.12
2022-11-11 12:35:36.4310,2.99,-0.69,-4.16,5.16
2022-11-11 12:35:36.4330,1.62,-1.96,-3.89,4.64
2022-11-11 12:35:36.4420,4.36,-1.58,-1.45,4.85
2022-11-11 12:35:36.4520,7.59,-0.88,-2.53,8.04
2022-11-11 12:35:36.4620,8.19,-0.84,-5.53,9.91
2022-11-11 12:35:36.4720,7.75,-1.32,-6.58,10.25
2022-11-11 12:35:36.4820,6.32,-1.2,-6.47,9.12
2022-11-11 12:35:36.5120,4.03,-0.09,-5.86,7.11
2022-11-11 12:35:36.5130,1.96,0.47,-4.54,4.96
2022-11-11 12:35:36.5140,0.37,0.4,-2.88,2.93
2022-11-11 12:35:36.5290,-0.75,0.01,-1.74,1.89
2022-11-11 12:35:36.5310,-1.1,-0.27,-1.74,2.07
2022-11-11 12:35:36.5410,-0.18,0.15,-2.92,2.92
2022-11-11 12:35:36.5510,1.25,0.45,-4.76,4.94
2022-11-11 12:35:36.5610,2.38,0.08,-6.84,7.24
2022-11-11 12:35:36.5710,3.03,-0.47,-8.42,8.96
2022-11-11 12:35:36.5810,3.3,-0.79,-9.35,9.94
2022-11-11 12:35:36.6110,3.18,-0.98,-9.97,10.51
2022-11-11 12:35:36.6120,2.8,-0.97,-10.34,10.75
2022-11-11 12:35:36.6130,2.34,-0.72,-10.17,10.46
2022-11-11 12:35:36.6290,1.83,-0.47,-9.66,9.84
2022-11-11 12:35:36.6300,1.11,-0.4,-9.25,9.32
2022-11-11 12:35:36.6410,0.15,-0.36,-8.95,8.95
2022-11-11 12:35:36.6510,-0.97,-0.25,-8.74,8.79
2022-11-11 12:35:36.6610,-1.67,-0.01,-8.46,8.62
2022-11-11 12:35:36.6710,-1.68,0.21,-8.06,8.23
2022-11-11 12:35:36.6810,-1.41,0.15,-7.94,8.06
2022-11-11 12:35:36.7110,-1.09,-0.14,-8.12,8.19
2022-11-11 12:35:36.7120,-0.75,-0.41,-8.24,8.28
2022-11-11 12:35:36.7140,-0.71,-0.55,-8.25,8.29
2022-11-11 12:35:36.7300,-0.88,-0.62,-8.22,8.29
2022-11-11 12:35:36.7310,-1.09,-0.79,-8.1,8.21
2022-11-11 12:35:36.7400,-1.32,-0.86,-7.71,7.86
2022-11-11 12:35:36.7500,-1.51,-0.88,-7.12,7.33
2022-11-11 12:35:36.7600,-1.73,-0.88,-6.74,7.01
2022-11-11 12:35:36.7700,-1.87,-0.96,-6.44,6.77
2022-11-11 12:35:36.7800,-1.92,-1.18,-6.07,6.47
2022-11-11 12:35:36.8110,-1.89,-1.48,-5.62,6.11
2022-11-11 12:35:36.8120,-1.82,-1.8,-5.12,5.72
2022-11-11 12:35:36.8130,-1.8,-2.04,-4.71,5.43
2022-11-11 12:35:36.8280,-1.94,-2.08,-4.53,5.34
2022-11-11 12:35:36.8290,-2.25,-1.98,-4.61,5.49
2022-11-11 12:35:36.8390,-2.55,-1.72,-4.57,5.5
2022-11-11 12:35:36.8490,-2.77,-1.36,-4.43,5.39
2022-11-11 12:35:36.8590,-3.54,-0.88,-4.2,5.56
2022-11-11 12:35:36.8690,-4.85,0.3,-3.94,6.25
2022-11-11 12:35:36.8790,-5.19,1.56,-2.93,6.16
2022-11-11 12:35:36.9150,-5.35,2.97,-1.93,6.41
2022-11-11 12:35:36.9160,-5.73,3.79,-1.97,7.14
2022-11-11 12:35:36.9170,-6.2,3.24,-2.48,7.42
2022-11-11 12:35:36.9280,-6.8,1.71,-3.03,7.63
2022-11-11 12:35:36.9290,-7.52,0.12,-3.58,8.32
2022-11-11 12:35:36.9390,-7.8,-0.99,-3.35,8.54
2022-11-11 12:35:36.9490,-7.46,-1.35,-2.65,8.03
2022-11-11 12:35:36.9590,-6.78,-0.9,-1.64,7.03
2022-11-11 12:35:36.9680,-6.17,-0.01,-0.7,6.2
2022-11-11 12:35:36.9790,-5.86,0.79,-0.11,5.91
2022-11-11 12:35:37.0140,-5.67,0.96,0.19,5.75
2022-11-11 12:35:37.0150,-5.38,0.57,0.35,5.42
2022-11-11 12:35:37.0160,-5.0,-0.07,0.44,5.01
2022-11-11 12:35:37.0280,-4.66,-0.72,0.52,4.74
2022-11-11 12:35:37.0290,-4.38,-1.13,0.66,4.57
2022-11-11 12:35:37.0380,-3.96,-1.26,0.81,4.23
2022-11-11 12:35:37.0480,-3.18,-1.06,1.41,3.63
2022-11-11 12:35:37.0580,-1.83,-0.59,2.42,3.09
2022-11-11 12:35:37.0680,0.57,0.08,4.22,4.25
2022-11-11 12:35:37.0780,4.26,1.22,6.56,7.91
2022-11-11 12:35:37.1130,7.45,2.54,6.57,10.25
2022-11-11 12:35:37.1140,7.09,3.82,3.15,8.64
2022-11-11 12:35:37.1160,2.41,3.44,-4.13,5.89
2022-11-11 12:35:37.1280,-1.0,2.38,-7.75,8.16
2022-11-11 12:35:37.1290,-3.41,2.07,-7.04,8.09
2022-11-11 12:35:37.1370,-3.86,2.2,-4.31,6.18
2022-11-11 12:35:37.1470,-2.33,1.93,-0.14,3.02
2022-11-11 12:35:37.1570,-2.7,1.72,2.43,4.01
2022-11-11 12:35:37.1670,-4.32,0.96,2.36,5.01
2022-11-11 12:35:37.1770,-5.6,-0.61,2.18,6.04
2022-11-11 12:35:37.2120,-5.21,-1.86,2.41,6.03
2022-11-11 12:35:37.2130,-2.95,-1.88,1.43,3.77
2022-11-11 12:35:37.2150,-0.33,-1.02,-0.06,1.07
2022-11-11 12:35:37.2270,1.77,-0.09,-1.29,2.19
2022-11-11 12:35:37.2280,3.2,0.78,-2.21,3.96
2022-11-11 12:35:37.2370,3.95,1.36,-2.93,5.1
2022-11-11 12:35:37.2470,3.87,1.21,-3.14,5.12
2022-11-11 12:35:37.2570,3.0,0.31,-2.88,4.17
2022-11-11 12:35:37.2670,1.81,-0.5,-2.26,2.93
2022-11-11 12:35:37.2770,0.54,-0.88,-1.38,1.72
2022-11-11 12:35:37.2870,-0.73,-0.82,-0.49,1.2
2022-11-11 12:35:37.3170,-1.78,-0.53,0.35,1.88
2022-11-11 12:35:37.3180,-2.32,-0.17,0.65,2.41
2022-11-11 12:35:37.3190,-2.01,0.01,0.65,2.11
2022-11-11 12:35:37.3270,-1.01,0.03,0.3,1.05
2022-11-11 12:35:37.3360,0.02,-0.08,-0.4,0.4
2022-11-11 12:35:37.3460,0.87,-0.17,-0.85,1.22
2022-11-11 12:35:37.3560,1.42,-0.17,-1.02,1.75
2022-11-11 12:35:37.3660,1.41,-0.17,-1.12,1.8
2022-11-11 12:35:37.3760,0.86,-0.08,-0.84,1.2
2022-11-11 12:35:37.3860,-0.08,-0.01,-0.18,0.19
2022-11-11 12:35:37.4160,-1.15,0.22,0.57,1.3
2022-11-11 12:35:37.4180,-1.61,0.49,1.09,2.0
2022-11-11 12:35:37.4190,-1.22,0.7,1.1,1.78
2022-11-11 12:35:37.4250,-0.42,0.59,0.75,1.04
2022-11-11 12:35:37.4350,0.35,0.22,-0.07,0.41
2022-11-11 12:35:37.4450,0.87,-0.18,-0.91,1.27
2022-11-11 12:35:37.4550,1.34,-0.37,-1.09,1.76
2022-11-11 12:35:37.4650,1.47,-0.34,-0.75,1.68
2022-11-11 12:35:37.4760,1.18,-0.15,-0.46,1.27
2022-11-11 12:35:37.4850,0.88,-0.01,-0.33,0.93
2022-11-11 12:35:37.5150,0.7,0.18,0.03,0.72
2022-11-11 12:35:37.5170,0.41,0.4,0.11,0.58
2022-11-11 12:35:37.5170,0.29,0.36,-0.1,0.47
2022-11-11 12:35:37.5270,0.37,0.22,-0.37,0.56
2022-11-11 12:35:37.5350,0.24,0.22,-0.63,0.7
2022-11-11 12:35:37.5450,-0.2,0.41,-0.66,0.8
2022-11-11 12:35:37.5550,-0.36,0.54,-0.35,0.73
2022-11-11 12:35:37.5650,-0.06,0.7,0.13,0.71
2022-11-11 12:35:37.5750,0.33,0.85,0.02,0.91
2022-11-11 12:35:37.5850,0.58,0.92,-0.01,1.08
2022-11-11 12:35:37.6150,0.66,1.0,0.01,1.19
2022-11-11 12:35:37.6160,0.72,1.07,-0.08,1.29
2022-11-11 12:35:37.6170,1.02,1.34,-0.38,1.72
2022-11-11 12:35:37.6260,1.28,1.84,-0.5,2.29
2022-11-11 12:35:37.6340,1.35,2.42,-0.55,2.82
2022-11-11 12:35:37.6440,1.66,3.0,-0.4,3.45
2022-11-11 12:35:37.6540,1.84,3.41,-0.37,3.89
2022-11-11 12:35:37.6640,1.98,3.49,-0.29,4.02
2022-11-11 12:35:37.6740,2.54,3.36,-0.33,4.22
2022-11-11 12:35:37.6840,2.97,3.22,-0.57,4.41
2022-11-11 12:35:37.7210,2.89,3.37,-0.8,4.51
2022-11-11 12:35:37.7220,2.79,3.67,-0.56,4.64
2022-11-11 12:35:37.7230,3.1,3.92,-0.32,5.0
2022-11-11 12:35:37.7240,3.68,3.92,-0.61,5.41
2022-11-11 12:35:37.7330,4.3,4.05,-1.05,5.99
2022-11-11 12:35:37.7440,5.22,4.31,-1.4,6.91
2022-11-11 12:35:37.7540,6.32,4.45,-1.45,7.86
2022-11-11 12:35:37.7640,7.28,4.51,-1.51,8.69
2022-11-11 12:35:37.7730,7.95,4.63,-1.6,9.33
2022-11-11 12:35:37.7830,8.27,4.8,-1.73,9.71
2022-11-11 12:35:37.8190,8.69,4.88,-1.89,10.14
2022-11-11 12:35:37.8200,8.96,4.55,-2.14,10.27
2022-11-11 12:35:37.8210,8.85,3.84,-2.47,9.95
2022-11-11 12:35:37.8230,7.45,3.85,-3.59,9.12
2022-11-11 12:35:37.8330,5.13,5.09,-4.63,8.58
2022-11-11 12:35:37.8430,3.14,6.28,-4.79,8.49
2022-11-11 12:35:37.8530,1.38,6.76,-4.47,8.22
2022-11-11 12:35:37.8630,0.12,6.51,-3.61,7.44
2022-11-11 12:35:37.8730,0.95,6.11,-2.12,6.53
2022-11-11 12:35:37.8830,3.45,6.02,-0.76,6.98
2022-11-11 12:35:37.9180,5.45,4.58,-0.21,7.12
2022-11-11 12:35:37.9200,6.94,2.66,-0.43,7.44
2022-11-11 12:35:37.9200,7.34,0.53,-0.9,7.41
2022-11-11 12:35:37.9220,7.21,-1.07,-0.78,7.33
2022-11-11 12:35:37.9320,6.88,-1.53,-0.73,7.08
2022-11-11 12:35:37.9420,6.56,-1.39,-0.59,6.73
2022-11-11 12:35:37.9520,6.38,-1.43,-0.5,6.55
2022-11-11 12:35:37.9620,6.33,-2.03,-0.68,6.68
2022-11-11 12:35:37.9720,6.53,-3.07,-1.09,7.29
2022-11-11 12:35:37.9820,7.11,-4.01,-1.37,8.27
2022-11-11 12:35:38.0160,7.33,-4.53,-1.95,8.83
2022-11-11 12:35:38.0180,6.81,-4.44,-2.26,8.43
2022-11-11 12:35:38.0190,5.66,-3.91,-2.14,7.2
2022-11-11 12:35:38.0220,4.12,-3.06,-1.77,5.42
2022-11-11 12:35:38.0320,2.71,-2.01,-1.37,3.64
2022-11-11 12:35:38.0410,1.45,-1.06,-0.93,2.02
2022-11-11 12:35:38.0510,0.01,-0.23,-0.63,0.67
2022-11-11 12:35:38.0620,-1.47,0.47,-0.73,1.7
2022-11-11 12:35:38.0720,-2.81,1.02,-1.18,3.21
2022-11-11 12:35:38.0820,-3.82,1.34,-1.78,4.42
2022-11-11 12:35:38.0920,-4.2,1.44,-2.25,4.97
2022-11-11 12:35:38.1210,-3.99,1.42,-2.68,5.01
2022-11-11 12:35:38.1220,-3.75,1.41,-3.43,5.27
2022-11-11 12:35:38.1230,-3.8,1.36,-4.31,5.9
2022-11-11 12:35:38.1430,-4.16,1.32,-4.67,6.39
2022-11-11 12:35:38.1440,-4.69,1.3,-4.33,6.51
2022-11-11 12:35:38.1510,-5.58,1.43,-3.74,6.86
2022-11-11 12:35:38.1610,-6.91,1.68,-3.3,7.83
2022-11-11 12:35:38.1710,-8.38,1.97,-3.24,9.19
2022-11-11 12:35:38.1810,-9.58,2.95,-3.18,10.51
2022-11-11 12:35:38.1910,-10.36,4.8,-2.8,11.75
2022-11-11 12:35:38.2200,-11.15,6.65,-1.93,13.12
2022-11-11 12:35:38.2210,-12.04,7.45,-1.09,14.2
2022-11-11 12:35:38.2220,-12.54,5.72,-0.94,13.81
2022-11-11 12:35:38.2310,-12.02,2.43,-1.14,12.31
2022-11-11 12:35:38.2400,-11.2,-0.14,-1.25,11.27
2022-11-11 12:35:38.2500,-9.98,-1.6,-0.93,10.15
2022-11-11 12:35:38.2600,-8.68,-2.16,-0.58,8.96
2022-11-11 12:35:38.2700,-7.88,-1.78,-0.56,8.09
2022-11-11 12:35:38.2800,-7.41,-0.95,-0.48,7.48
2022-11-11 12:35:38.2900,-7.24,-0.21,-0.19,7.24
2022-11-11 12:35:38.3200,-7.2,0.34,0.29,7.21
2022-11-11 12:35:38.3210,-6.78,0.81,1.3,6.95
2022-11-11 12:35:38.3220,-5.41,1.34,2.39,6.06
2022-11-11 12:35:38.3430,-1.21,2.05,3.87,4.54
2022-11-11 12:35:38.3440,6.24,4.45,7.16,10.48
2022-11-11 12:35:38.3500,9.76,8.79,5.71,14.32
2022-11-11 12:35:38.3600,5.27,10.46,-0.33,11.71
2022-11-11 12:35:38.3700,-0.17,7.94,-4.01,8.89
2022-11-11 12:35:38.3800,-2.43,3.02,-2.65,4.69
2022-11-11 12:35:38.3900,-3.29,-0.95,-0.61,3.47
2022-11-11 12:35:38.4200,-3.98,-2.02,-0.24,4.46
2022-11-11 12:35:38.4210,-3.93,-2.21,-0.92,4.6
2022-11-11 12:35:38.4220,-3.86,-2.41,-2.84,5.36
2022-11-11 12:35:38.4420,-4.17,-2.53,-3.65,6.09
2022-11-11 12:35:38.4430,-4.02,-1.28,-2.42,4.86
2022-11-11 12:35:38.4490,-3.1,0.53,-1.04,3.31
2022-11-11 12:35:38.4590,-2.33,1.51,0.1,2.77
2022-11-11 12:35:38.4690,-1.91,1.86,0.73,2.76
2022-11-11 12:35:38.4790,-1.84,1.33,0.81,2.41
2022-11-11 12:35:38.4890,-1.96,0.81,0.55,2.19
2022-11-11 12:35:38.5250,-1.51,0.65,0.11,1.64
2022-11-11 12:35:38.5260,-0.31,0.66,-0.13,0.74
2022-11-11 12:35:38.5270,1.12,0.85,-0.5,1.49
2022-11-11 12:35:38.5410,2.39,0.79,-1.23,2.8
2022-11-11 12:35:38.5420,2.67,0.4,-1.98,3.34
2022-11-11 12:35:38.5490,1.67,-0.12,-1.85,2.49
2022-11-11 12:35:38.5580,0.25,-0.47,-0.95,1.08
2022-11-11 12:35:38.5680,-0.96,-0.64,-0.01,1.15
2022-11-11 12:35:38.5780,-1.4,-0.68,0.8,1.74
2022-11-11 12:35:38.5880,-1.26,-0.46,1.03,1.69
2022-11-11 12:35:38.6240,-0.88,-0.04,0.54,1.03
2022-11-11 12:35:38.6250,-0.27,0.23,-0.24,0.42
2022-11-11 12:35:38.6260,0.34,0.32,-0.69,0.83
2022-11-11 12:35:38.6410,0.9,0.25,-0.73,1.18
2022-11-11 12:35:38.6420,1.16,0.11,-0.57,1.29
2022-11-11 12:35:38.6480,1.26,-0.17,-0.68,1.44
2022-11-11 12:35:38.6580,1.35,-0.36,-0.78,1.6
2022-11-11 12:35:38.6680,1.37,-0.31,-0.98,1.71
2022-11-11 12:35:38.6780,1.08,-0.1,-0.47,1.18
2022-11-11 12:35:38.6880,0.43,0.08,0.16,0.46
2022-11-11 12:35:38.7230,-0.09,0.18,0.26,0.32
2022-11-11 12:35:38.7240,0.07,0.27,0.37,0.46
2022-11-11 12:35:38.7250,0.82,0.49,0.22,0.98
2022-11-11 12:35:38.7410,1.38,0.53,-0.11,1.48
2022-11-11 12:35:38.7420,1.37,0.33,-0.51,1.49
2022-11-11 12:35:38.7470,1.23,0.14,-0.84,1.49
2022-11-11 12:35:38.7570,1.08,0.19,-0.89,1.41
2022-11-11 12:35:38.7670,1.09,0.4,-0.41,1.23
2022-11-11 12:35:38.7770,1.27,0.53,0.04,1.37
2022-11-11 12:35:38.7870,1.23,0.52,-0.26,1.36
2022-11-11 12:35:38.8230,1.06,0.78,-0.61,1.45
2022-11-11 12:35:38.8240,0.99,1.55,-0.4,1.88
2022-11-11 12:35:38.8250,1.2,2.46,0.06,2.73
2022-11-11 12:35:38.8410,1.22,3.0,0.21,3.24
2022-11-11 12:35:38.8420,1.26,3.05,-0.34,3.31
2022-11-11 12:35:38.8470,1.71,3.18,0.57,3.65
2022-11-11 12:35:38.8560,2.04,3.39,0.68,4.01
2022-11-11 12:35:38.8660,2.57,3.55,0.93,4.48
2022-11-11 12:35:38.8760,2.52,3.91,1.27,4.82
2022-11-11 12:35:38.8860,2.65,4.25,1.0,5.1
2022-11-11 12:35:38.8960,3.24,4.55,0.67,5.62
2022-11-11 12:35:38.9270,3.77,4.93,0.45,6.22
2022-11-11 12:35:38.9280,4.19,5.46,-0.01,6.88
2022-11-11 12:35:38.9290,5.03,6.21,0.0,7.99
2022-11-11 12:35:38.9400,6.53,6.91,0.94,9.55
2022-11-11 12:35:38.9460,7.97,7.23,1.69,10.89
2022-11-11 12:35:38.9560,8.96,7.01,1.97,11.54
2022-11-11 12:35:38.9660,9.78,6.51,1.89,11.89
2022-11-11 12:35:38.9760,10.59,6.26,1.73,12.42
2022-11-11 12:35:38.9860,10.99,6.07,0.71,12.57
2022-11-11 12:35:38.9960,10.2,5.55,-2.14,11.8
2022-11-11 12:35:39.0270,8.43,5.98,-5.52,11.71
2022-11-11 12:35:39.0280,6.97,7.28,-6.65,12.07
2022-11-11 12:35:39.0290,5.57,8.15,-6.26,11.68
2022-11-11 12:35:39.0410,3.7,8.27,-4.71,10.21
2022-11-11 12:35:39.0450,1.76,7.49,-4.05,8.69
2022-11-11 12:35:39.0550,1.26,6.09,-3.73,7.25
2022-11-11 12:35:39.0650,1.92,4.74,-2.42,5.65
2022-11-11 12:35:39.0750,3.44,3.44,-0.12,4.86
2022-11-11 12:35:39.0850,5.88,2.6,1.88,6.69
2022-11-11 12:35:39.0950,6.97,1.36,1.81,7.32
2022-11-11 12:35:39.1250,7.0,0.02,0.85,7.05
2022-11-11 12:35:39.1270,7.96,-1.09,0.95,8.09
2022-11-11 12:35:39.1280,8.81,-1.72,0.88,9.01
2022-11-11 12:35:39.1400,7.55,-2.08,-0.39,7.84
2022-11-11 12:35:39.1450,5.62,-3.35,-1.73,6.76
2022-11-11 12:35:39.1540,5.58,-5.38,-2.38,8.1
2022-11-11 12:35:39.1650,6.93,-6.5,-2.37,9.79
2022-11-11 12:35:39.1740,7.37,-6.13,-2.58,9.92
2022-11-11 12:35:39.1840,6.71,-5.03,-2.53,8.75
2022-11-11 12:35:39.1940,5.88,-4.07,-1.52,7.31
2022-11-11 12:35:39.2250,5.08,-3.15,-0.37,5.98
2022-11-11 12:35:39.2270,3.96,-2.16,0.0,4.51
2022-11-11 12:35:39.2280,2.2,-1.31,-0.56,2.62
2022-11-11 12:35:39.2400,0.22,-0.58,-1.38,1.51
2022-11-11 12:35:39.2440,-1.73,0.28,-1.46,2.28
2022-11-11 12:35:39.2540,-3.63,1.29,-0.73,3.92
2022-11-11 12:35:39.2640,-5.55,2.29,0.19,6.0
2022-11-11 12:35:39.2740,-7.51,3.17,0.44,8.16
2022-11-11 12:35:39.2840,-8.93,3.82,0.06,9.71
2022-11-11 12:35:39.2940,-9.21,4.21,-0.05,10.12
2022-11-11 12:35:39.3300,-8.02,4.47,-0.3,9.18
2022-11-11 12:35:39.3320,-6.68,3.77,-0.86,7.71
2022-11-11 12:35:39.3330,-6.74,2.81,-1.87,7.53
2022-11-11 12:35:39.3380,-6.83,2.84,-3.47,8.17
2022-11-11 12:35:39.3430,-6.41,3.41,-4.07,8.32
2022-11-11 12:35:39.3530,-7.18,4.26,-3.75,9.15
2022-11-11 12:35:39.3630,-9.39,4.33,-3.29,10.85
2022-11-11 12:35:39.3730,-12.85,3.16,-3.77,13.75
2022-11-11 12:35:39.3830,-15.41,2.9,-3.73,16.11
2022-11-11 12:35:39.3930,-15.26,3.62,-1.82,15.78
2022-11-11 12:35:39.4290,-14.01,3.41,-0.52,14.42
2022-11-11 12:35:39.4300,-12.82,1.84,-0.61,12.96
2022-11-11 12:35:39.4310,-12.12,-0.08,-1.32,12.19
2022-11-11 12:35:39.4390,-11.13,-1.24,-1.72,11.33
2022-11-11 12:35:39.4420,-9.61,-1.39,-2.08,9.93
2022-11-11 12:35:39.4520,-8.25,-1.02,-2.6,8.7
2022-11-11 12:35:39.4630,-7.1,-0.53,-2.49,7.54
2022-11-11 12:35:39.4730,-5.9,0.19,-1.62,6.12
2022-11-11 12:35:39.4820,-3.17,1.48,0.17,3.5
2022-11-11 12:35:39.4930,2.69,3.58,4.05,6.03
2022-11-11 12:35:39.5280,8.99,9.13,7.11,14.65
2022-11-11 12:35:39.5290,8.08,13.58,3.31,16.14
2022-11-11 12:35:39.5300,0.93,8.01,-2.18,8.35
2022-11-11 12:35:39.5390,-2.03,1.31,-2.22,3.28
2022-11-11 12:35:39.5420,-2.96,-2.21,-2.85,4.66
2022-11-11 12:35:39.5520,-3.27,-4.12,-2.54,5.84
2022-11-11 12:35:39.5620,-2.83,-4.55,-2.43,5.88
2022-11-11 12:35:39.5720,-2.97,-4.02,-3.69,6.21
2022-11-11 12:35:39.5820,-3.79,-2.32,-3.91,5.91
2022-11-11 12:35:39.5920,-4.24,0.31,-3.14,5.28
2022-11-11 12:35:39.6260,-4.66,1.89,-0.8,5.09
2022-11-11 12:35:39.6270,-4.62,2.93,1.94,5.8
2022-11-11 12:35:39.6280,-4.02,2.9,2.72,5.65
2022-11-11 12:35:39.6390,-3.06,1.94,2.18,4.22
2022-11-11 12:35:39.6410,-1.61,1.2,1.16,2.31
2022-11-11 12:35:39.6510,0.13,0.76,0.06,0.77
2022-11-11 12:35:39.6610,2.0,0.61,-0.97,2.3
2022-11-11 12:35:39.6710,3.51,0.46,-2.17,4.15
2022-11-11 12:35:39.6810,3.61,0.17,-3.06,4.73
2022-11-11 12:35:39.6910,2.12,-0.22,-2.81,3.52
2022-11-11 12:35:39.7010,-0.04,-0.69,-1.47,1.62
2022-11-11 12:35:39.7310,-1.87,-0.94,0.11,2.09
2022-11-11 12:35:39.7320,-2.53,-0.82,1.14,2.89
2022-11-11 12:35:39.7330,-2.06,-0.28,1.42,2.51
2022-11-11 12:35:39.7410,-0.97,0.3,0.9,1.35
2022-11-11 12:35:39.7510,0.22,0.54,0.23,0.62
2022-11-11 12:35:39.7610,1.15,0.41,-0.55,1.33
2022-11-11 12:35:39.7710,1.57,0.09,-1.05,1.89
2022-11-11 12:35:39.7800,1.38,-0.26,-1.18,1.83
2022-11-11 12:35:39.7910,1.09,-0.56,-1.1,1.64
2022-11-11 12:35:39.8000,0.83,-0.47,-0.91,1.31
2022-11-11 12:35:39.8300,0.64,-0.1,-0.65,0.91
2022-11-11 12:35:39.8320,0.73,0.26,-0.31,0.83
2022-11-11 12:35:39.8330,0.58,0.4,-0.01,0.7
2022-11-11 12:35:39.8400,0.45,0.41,0.26,0.66
2022-11-11 12:35:39.8540,0.78,0.33,0.33,0.9
2022-11-11 12:35:39.8600,1.33,0.23,-0.16,1.35
2022-11-11 12:35:39.8700,1.84,0.21,-0.82,2.02
2022-11-11 12:35:39.8800,1.78,0.41,-1.42,2.31
2022-11-11 12:35:39.8900,0.98,0.8,-1.2,1.74
2022-11-11 12:35:39.9000,0.33,1.11,-0.46,1.24
2022-11-11 12:35:39.9300,0.1,1.19,-0.24,1.21
2022-11-11 12:35:39.9310,0.43,1.26,-0.06,1.33
2022-11-11 12:35:39.9320,0.94,1.65,0.18,1.9
2022-11-11 12:35:39.9390,1.47,2.21,0.56,2.71
2022-11-11 12:35:39.9490,1.99,2.51,0.13,3.2
2022-11-11 12:35:39.9590,2.54,2.81,0.24,3.79
2022-11-11 12:35:39.9690,2.43,3.27,0.36,4.08
2022-11-11 12:35:39.9790,2.67,3.49,0.03,4.39
2022-11-11 12:35:39.9890,2.92,3.84,0.43,4.84
2022-11-11 12:35:39.9990,2.93,4.23,0.04,5.14
2022-11-11 12:35:40.0290,3.36,4.52,-0.12,5.63
2022-11-11 12:35:40.0300,3.8,4.79,-0.47,6.13
2022-11-11 12:35:40.0310,4.36,5.0,-0.73,6.67
2022-11-11 12:35:40.0390,5.21,5.12,-0.65,7.33
2022-11-11 12:35:40.0490,6.29,5.25,-0.62,8.21
2022-11-11 12:35:40.0590,7.54,5.79,-1.08,9.56
2022-11-11 12:35:40.0690,9.19,6.59,-1.14,11.36
2022-11-11 12:35:40.0790,10.87,7.4,-0.59,13.16
2022-11-11 12:35:40.0890,11.14,7.69,-1.09,13.58
2022-11-11 12:35:40.0980,11.09,7.73,-1.29,13.57
2022-11-11 12:35:40.1340,12.39,7.07,-1.39,14.33
2022-11-11 12:35:40.1350,11.12,5.81,-4.99,13.5
2022-11-11 12:35:40.1370,7.78,6.06,-8.15,12.79
2022-11-11 12:35:40.1550,4.99,7.13,-6.83,11.06
2022-11-11 12:35:40.1560,2.86,7.83,-3.97,9.23
2022-11-11 12:35:40.1580,0.89,8.34,-2.59,8.77
2022-11-11 12:35:40.1680,0.31,7.98,-3.04,8.54
2022-11-11 12:35:40.1780,1.97,7.34,-2.9,8.13
2022-11-11 12:35:40.1880,4.29,5.42,-1.6,7.09
2022-11-11 12:35:40.1980,6.73,3.43,-0.47,7.56
2022-11-11 12:35:40.2330,8.21,1.35,0.06,8.32
2022-11-11 12:35:40.2350,8.16,-0.97,0.06,8.21
2022-11-11 12:35:40.2360,7.13,-2.52,-0.22,7.56
2022-11-11 12:35:40.2550,6.15,-3.16,-0.12,6.91
2022-11-11 12:35:40.2560,5.73,-3.27,0.15,6.59
2022-11-11 12:35:40.2580,5.92,-3.48,0.01,6.86
2022-11-11 12:35:40.2670,6.59,-4.08,-0.47,7.76
2022-11-11 12:35:40.2770,7.51,-4.9,-1.04,9.02
2022-11-11 12:35:40.2870,8.27,-5.59,-1.63,10.11
2022-11-11 12:35:40.2970,8.52,-5.8,-2.05,10.5
2022-11-11 12:35:40.3330,7.92,-4.98,-2.49,9.68
2022-11-11 12:35:40.3350,6.94,-3.55,-2.43,8.16
2022-11-11 12:35:40.3360,5.77,-2.51,-1.75,6.53
2022-11-11 12:35:40.3550,4.41,-1.72,-1.14,4.86
2022-11-11 12:35:40.3560,2.76,-0.87,-1.45,3.23
2022-11-11 12:35:40.3580,0.83,-0.02,-2.07,2.23
2022-11-11 12:35:40.3670,-1.35,0.82,-2.71,3.13
2022-11-11 12:35:40.3770,-3.69,1.68,-2.91,4.99
2022-11-11 12:35:40.3870,-5.78,2.6,-3.02,7.02
2022-11-11 12:35:40.3970,-7.6,3.83,-2.87,8.98
2022-11-11 12:35:40.4310,-8.99,5.11,-2.54,10.64
2022-11-11 12:35:40.4320,-9.81,6.22,-2.36,11.85
2022-11-11 12:35:40.4330,-10.11,6.99,-2.45,12.53
2022-11-11 12:35:40.4360,-9.91,6.55,-3.06,12.26
2022-11-11 12:35:40.4460,-9.81,4.7,-3.86,11.54
2022-11-11 12:35:40.4560,-10.0,3.23,-4.68,11.5
2022-11-11 12:35:40.4660,-10.06,2.64,-5.41,11.72
2022-11-11 12:35:40.4760,-10.12,2.84,-5.26,11.75
2022-11-11 12:35:40.4860,-10.46,3.79,-3.97,11.81
2022-11-11 12:35:40.4960,-11.3,4.63,-2.34,12.43
2022-11-11 12:35:40.5060,-12.73,5.05,-1.15,13.74
2022-11-11 12:35:40.5360,-14.12,4.54,-0.4,14.83
2022-11-11 12:35:40.5370,-14.5,2.84,-0.3,14.77
2022-11-11 12:35:40.5390,-13.54,0.66,-0.64,13.57
2022-11-11 12:35:40.5540,-11.85,-1.17,-1.0,11.94
2022-11-11 12:35:40.5550,-10.21,-2.1,-1.3,10.5
2022-11-11 12:35:40.5650,-9.0,-1.99,-1.51,9.34
2022-11-11 12:35:40.5760,-8.36,-1.13,-1.41,8.55
2022-11-11 12:35:40.5850,-8.2,0.23,-0.97,8.26
2022-11-11 12:35:40.5950,-7.14,1.53,0.34,7.31
2022-11-11 12:35:40.6050,-2.0,2.76,4.94,6.0
2022-11-11 12:35:40.6360,7.06,6.47,11.74,15.15
2022-11-11 12:35:40.6370,11.44,13.56,8.84,19.82
2022-11-11 12:35:40.6380,4.18,13.76,-1.48,14.45
2022-11-11 12:35:40.6540,-2.17,7.55,-4.21,8.91
2022-11-11 12:35:40.6550,-3.98,1.11,-1.47,4.38
2022-11-11 12:35:40.6650,-4.57,-2.63,-0.88,5.34
2022-11-11 12:35:40.6750,-4.5,-3.58,-0.66,5.78
2022-11-11 12:35:40.6850,-3.55,-3.49,-1.06,5.08
2022-11-11 12:35:40.6950,-2.45,-3.04,-1.81,4.3
2022-11-11 12:35:40.7050,-1.99,-2.25,-3.72,4.78
2022-11-11 12:35:40.7360,-2.17,-1.15,-5.35,5.88
2022-11-11 12:35:40.7370,-2.15,0.37,-4.69,5.17
2022-11-11 12:35:40.7380,-1.78,1.61,-2.23,3.27
2022-11-11 12:35:40.7530,-1.77,2.11,0.63,2.82
2022-11-11 12:35:40.7540,-2.28,2.07,1.74,3.53
2022-11-11 12:35:40.7640,-2.97,1.58,1.27,3.59
2022-11-11 12:35:40.7740,-2.77,0.98,0.74,3.03
2022-11-11 12:35:40.7840,-1.43,0.57,0.43,1.59
2022-11-11 12:35:40.7940,0.32,0.41,0.19,0.55
2022-11-11 12:35:40.8040,1.94,0.3,-0.35,1.99
2022-11-11 12:35:40.8340,2.88,0.05,-1.3,3.16
2022-11-11 12:35:40.8350,2.91,-0.42,-2.0,3.55
2022-11-11 12:35:40.8360,1.75,-0.92,-2.04,2.84
2022-11-11 12:35:40.8540,0.12,-1.14,-1.11,1.59
2022-11-11 12:35:40.8550,-1.39,-1.04,0.28,1.75
2022-11-11 12:35:40.8630,-2.45,-0.44,1.32,2.81
2022-11-11 12:35:40.8740,-2.42,0.45,1.63,2.95
2022-11-11 12:35:40.8830,-1.49,1.21,1.34,2.34
2022-11-11 12:35:40.8930,-0.23,1.35,0.75,1.56
2022-11-11 12:35:40.9030,0.91,0.88,-0.38,1.32
2022-11-11 12:35:40.9400,1.63,0.31,-1.31,2.11
2022-11-11 12:35:40.9410,1.83,-0.24,-1.49,2.37
2022-11-11 12:35:40.9420,1.51,-0.62,-1.25,2.05
2022-11-11 12:35:40.9530,0.94,-0.69,-0.7,1.36
2022-11-11 12:35:40.9540,0.53,-0.54,-0.23,0.79
2022-11-11 12:35:40.9630,0.55,-0.34,0.09,0.65
2022-11-11 12:35:40.9730,0.67,-0.02,-0.04,0.67
2022-11-11 12:35:40.9830,0.49,0.2,-0.2,0.56
2022-11-11 12:35:40.9930,0.36,0.42,0.04,0.55
2022-11-11 12:35:41.0030,0.53,0.68,0.1,0.86
2022-11-11 12:35:41.0390,0.79,0.71,-0.27,1.09
2022-11-11 12:35:41.0400,0.97,0.57,-0.27,1.15
2022-11-11 12:35:41.0410,0.95,0.44,-0.18,1.06
2022-11-11 12:35:41.0520,0.82,0.5,-0.18,0.97
2022-11-11 12:35:41.0530,0.55,0.89,-0.01,1.04
2022-11-11 12:35:41.0620,0.22,1.64,0.14,1.66
2022-11-11 12:35:41.0720,0.3,2.31,0.01,2.32
2022-11-11 12:35:41.0820,0.9,2.96,0.56,3.14
2022-11-11 12:35:41.0920,1.38,3.24,0.14,3.52
2022-11-11 12:35:41.1020,2.22,3.15,0.07,3.85
2022-11-11 12:35:41.1390,2.88,3.11,-0.49,4.26
2022-11-11 12:35:41.1400,3.33,3.21,-0.87,4.7
2022-11-11 12:35:41.1410,3.36,3.5,-1.2,4.99
2022-11-11 12:35:41.1520,3.2,4.0,-0.76,5.17
2022-11-11 12:35:41.1530,3.14,4.55,0.0,5.52
2022-11-11 12:35:41.1620,3.53,4.69,0.17,5.87
2022-11-11 12:35:41.1720,4.41,4.74,0.42,6.48
2022-11-11 12:35:41.1810,5.41,5.22,-0.51,7.53
2022-11-11 12:35:41.1920,6.71,6.01,-1.07,9.07
2022-11-11 12:35:41.2020,8.28,6.81,-0.74,10.74
2022-11-11 12:35:41.2370,9.12,7.25,-0.2,11.65
2022-11-11 12:35:41.2390,8.93,7.22,0.27,11.48
2022-11-11 12:35:41.2390,8.3,7.24,0.26,11.01
2022-11-11 12:35:41.2520,8.66,7.0,1.06,11.18
2022-11-11 12:35:41.2530,8.59,6.32,-0.04,10.66
2022-11-11 12:35:41.2610,7.68,6.03,-3.25,10.29
2022-11-11 12:35:41.2710,6.49,6.64,-6.65,11.42
2022-11-11 12:35:41.2810,5.32,7.05,-6.63,11.04
2022-11-11 12:35:41.2910,4.82,6.96,-4.41,9.54
2022-11-11 12:35:41.3010,3.57,6.98,-3.14,8.44
2022-11-11 12:35:41.3110,2.11,6.7,-4.17,8.16
2022-11-11 12:35:41.3410,2.96,6.06,-3.81,7.74
2022-11-11 12:35:41.3420,5.06,4.62,-1.81,7.08
2022-11-11 12:35:41.3440,7.43,2.73,0.8,7.95
2022-11-11 12:35:41.3510,8.52,0.73,1.83,8.74
2022-11-11 12:35:41.3600,7.34,-1.3,1.44,7.59
2022-11-11 12:35:41.3700,5.54,-2.5,1.27,6.2
2022-11-11 12:35:41.3800,4.63,-2.99,1.51,5.71
2022-11-11 12:35:41.3900,5.05,-2.89,1.86,6.1
2022-11-11 12:35:41.4000,6.17,-2.9,1.67,7.01
2022-11-11 12:35:41.4100,7.31,-3.71,0.98,8.25
2022-11-11 12:35:41.4400,8.11,-4.94,0.08,9.49
2022-11-11 12:35:41.4420,8.38,-6.01,-0.76,10.34
2022-11-11 12:35:41.4430,8.11,-5.88,-1.2,10.08
2022-11-11 12:35:41.4510,7.58,-4.52,-0.62,8.84
2022-11-11 12:35:41.4600,6.74,-3.11,0.59,7.44
2022-11-11 12:35:41.4700,5.0,-1.86,1.32,5.49
2022-11-11 12:35:41.4790,2.68,-0.67,1.41,3.1
2022-11-11 12:35:41.4900,0.2,0.4,1.58,1.64
2022-11-11 12:35:41.4990,-2.21,1.38,1.87,3.2
2022-11-11 12:35:41.5100,-4.26,2.16,2.06,5.2
2022-11-11 12:35:41.5410,-5.88,2.62,2.03,6.74
2022-11-11 12:35:41.5420,-6.82,2.66,1.61,7.49
2022-11-11 12:35:41.5430,-6.8,2.54,0.89,7.31
2022-11-11 12:35:41.5510,-6.05,3.08,0.43,6.8
2022-11-11 12:35:41.5590,-5.29,4.18,0.06,6.74
2022-11-11 12:35:41.5690,-5.38,5.03,-0.79,7.4
2022-11-11 12:35:41.5790,-6.19,5.33,-2.37,8.5
2022-11-11 12:35:41.5890,-6.95,5.03,-3.78,9.37
2022-11-11 12:35:41.5990,-7.35,4.29,-3.55,9.22
2022-11-11 12:35:41.6090,-7.77,3.85,-3.16,9.22
2022-11-11 12:35:41.6390,-8.84,4.03,-3.18,10.22
2022-11-11 12:35:41.6400,-10.49,4.69,-3.38,11.97
2022-11-11 12:35:41.6410,-12.21,5.3,-3.34,13.72
2022-11-11 12:35:41.6510,-13.98,5.66,-2.72,15.32
2022-11-11 12:35:41.6580,-15.5,5.12,-1.6,16.4
2022-11-11 12:35:41.6690,-15.83,2.77,-0.38,16.07
2022-11-11 12:35:41.6780,-15.01,-0.42,-0.04,15.01
2022-11-11 12:35:41.6880,-13.9,-2.44,-0.64,14.12
2022-11-11 12:35:41.6980,-12.25,-2.91,-1.34,12.66
2022-11-11 12:35:41.7080,-10.44,-1.87,-1.38,10.69
2022-11-11 12:35:41.7440,-8.81,-0.36,-1.5,8.94
2022-11-11 12:35:41.7450,-6.53,1.05,-1.51,6.78
2022-11-11 12:35:41.7460,-0.47,2.82,2.22,3.61
2022-11-11 12:35:41.7480,8.14,7.02,7.58,13.15
2022-11-11 12:35:41.7570,10.8,12.92,6.07,17.9
2022-11-11 12:35:41.7680,5.04,12.89,-1.8,13.95
2022-11-11 12:35:41.7780,-0.36,6.97,-5.98,9.19
2022-11-11 12:35:41.7880,-1.89,0.4,-2.0,2.78
2022-11-11 12:35:41.7980,-2.84,-2.91,-0.29,4.07
2022-11-11 12:35:41.8080,-3.92,-3.52,-0.47,5.28
2022-11-11 12:35:41.8420,-4.4,-3.32,-1.17,5.63
2022-11-11 12:35:41.8430,-4.49,-2.72,-1.94,5.59
2022-11-11 12:35:41.8440,-4.39,-1.66,-2.87,5.5
2022-11-11 12:35:41.8510,-3.86,0.07,-3.36,5.11
2022-11-11 12:35:41.8570,-2.69,1.83,-2.8,4.29
2022-11-11 12:35:41.8670,-1.79,2.49,-0.93,3.2
2022-11-11 12:35:41.8770,-1.55,2.31,1.01,2.95
2022-11-11 12:35:41.8870,-1.9,1.23,1.39,2.65
2022-11-11 12:35:41.8970,-2.4,0.25,0.95,2.59
2022-11-11 12:35:41.9070,-2.25,-0.01,0.48,2.3
2022-11-11 12:35:41.9420,-1.22,0.1,0.07,1.22
2022-11-11 12:35:41.9430,0.25,0.43,-0.27,0.56
2022-11-11 12:35:41.9440,1.7,0.71,-0.43,1.89
2022-11-11 12:35:41.9480,2.56,0.73,-0.36,2.68
2022-11-11 12:35:41.9560,2.28,0.49,-0.94,2.51
2022-11-11 12:35:41.9660,1.35,-0.04,-1.67,2.14
2022-11-11 12:35:41.9760,0.13,-0.74,-1.3,1.5
2022-11-11 12:35:41.9860,-1.03,-0.9,-0.07,1.36
2022-11-11 12:35:41.9960,-1.56,-0.44,0.82,1.81
2022-11-11 12:35:42.0060,-1.41,0.08,0.99,1.72
2022-11-11 12:35:42.0410,-0.88,0.37,0.36,1.02
2022-11-11 12:35:42.0430,0.1,0.33,-0.25,0.42
2022-11-11 12:35:42.0440,1.16,0.11,-0.6,1.31
2022-11-11 12:35:42.0500,1.68,-0.08,-1.17,2.04
2022-11-11 12:35:42.0560,1.48,-0.27,-1.52,2.13
2022-11-11 12:35:42.0660,1.01,-0.39,-1.21,1.62
2022-11-11 12:35:42.0760,0.61,-0.33,-0.45,0.82
2022-11-11 12:35:42.0860,0.42,-0.24,0.09,0.49
2022-11-11 12:35:42.0950,0.77,-0.19,0.32,0.85
2022-11-11 12:35:42.1060,1.4,-0.12,0.12,1.41
2022-11-11 12:35:42.1160,1.63,-0.02,-0.36,1.66
2022-11-11 12:35:42.1450,1.48,0.09,-0.36,1.52
2022-11-11 12:35:42.1460,0.84,0.24,-0.09,0.87
2022-11-11 12:35:42.1470,0.08,0.29,0.11,0.32
2022-11-11 12:35:42.1670,-0.28,0.33,0.41,0.59
2022-11-11 12:35:42.1690,-0.19,0.45,0.38,0.61
2022-11-11 12:35:42.1750,0.24,0.59,-0.17,0.65
2022-11-11 12:35:42.1850,0.5,0.68,-0.51,0.98
2022-11-11 12:35:42.1950,0.52,0.81,-0.55,1.1
2022-11-11 12:35:42.2050,0.5,0.99,-0.47,1.2
2022-11-11 12:35:42.2150,0.71,1.09,-0.36,1.34
2022-11-11 12:35:42.2440,1.19,1.17,-0.22,1.68
2022-11-11 12:35:42.2450,1.38,1.33,-0.23,1.93
2022-11-11 12:35:42.2460,1.47,1.61,0.07,2.18
2022-11-11 12:35:42.2550,1.66,1.77,0.0,2.42
2022-11-11 12:35:42.2640,1.96,1.77,-0.41,2.67
2022-11-11 12:35:42.2740,2.26,2.06,-0.41,3.08
2022-11-11 12:35:42.2840,1.97,2.61,-0.34,3.28
2022-11-11 12:35:42.2940,1.8,3.1,-0.24,3.59
2022-11-11 12:35:42.3040,1.79,3.6,0.09,4.02
2022-11-11 12:35:42.3140,2.03,3.95,0.05,4.44
2022-11-11 12:35:42.3440,2.72,4.09,0.15,4.91
2022-11-11 12:35:42.3450,3.55,4.24,0.13,5.53
2022-11-11 12:35:42.3460,4.49,4.66,-0.31,6.47
2022-11-11 12:35:42.3540,5.87,5.19,-0.23,7.83
2022-11-11 12:35:42.3640,7.26,5.68,0.29,9.22
2022-11-11 12:35:42.3740,7.87,6.06,0.37,9.93
2022-11-11 12:35:42.3840,7.88,6.16,0.64,10.02
2022-11-11 12:35:42.3940,7.57,6.45,0.55,9.96
2022-11-11 12:35:42.4040,8.05,6.53,0.78,10.39
2022-11-11 12:35:42.4140,8.63,6.09,0.12,10.56
2022-11-11 12:35:42.4430,8.71,5.63,-1.83,10.53
2022-11-11 12:35:42.4440,8.21,5.69,-4.66,11.02
2022-11-11 12:35:42.4450,6.67,6.41,-6.42,11.26
2022-11-11 12:35:42.4530,4.68,6.88,-5.88,10.18
2022-11-11 12:35:42.4630,2.62,6.81,-4.66,8.65
2022-11-11 12:35:42.4730,0.97,6.32,-4.42,7.77
2022-11-11 12:35:42.4830,1.49,5.58,-3.73,6.87
2022-11-11 12:35:42.4930,3.88,4.39,-1.76,6.11
2022-11-11 12:35:42.5030,5.43,2.07,-0.9,5.88
2022-11-11 12:35:42.5130,5.91,-0.62,-0.28,5.94
2022-11-11 12:35:42.5490,5.92,-2.58,0.76,6.5
2022-11-11 12:35:42.5500,5.56,-3.42,1.75,6.75
2022-11-11 12:35:42.5520,5.04,-3.31,2.37,6.47
2022-11-11 12:35:42.5670,4.69,-2.9,2.23,5.94
2022-11-11 12:35:42.5680,5.03,-2.79,1.9,6.05
2022-11-11 12:35:42.5720,6.07,-3.27,1.62,7.08
2022-11-11 12:35:42.5820,7.2,-4.16,1.02,8.37
2022-11-11 12:35:42.5920,7.86,-5.05,0.41,9.35
2022-11-11 12:35:42.6020,7.39,-5.47,-0.31,9.19
2022-11-11 12:35:42.6120,6.26,-5.1,-0.4,8.08
2022-11-11 12:35:42.6460,5.49,-4.04,0.16,6.81
2022-11-11 12:35:42.6470,4.66,-2.65,0.35,5.37
2022-11-11 12:35:42.6490,3.21,-1.41,0.68,3.57
2022-11-11 12:35:42.6670,1.32,-0.23,1.24,1.82
2022-11-11 12:35:42.6680,-0.59,0.85,1.44,1.77
2022-11-11 12:35:42.6720,-2.32,1.63,1.43,3.17
2022-11-11 12:35:42.6820,-3.91,2.22,1.31,4.68
2022-11-11 12:35:42.6920,-5.61,2.82,0.72,6.32
2022-11-11 12:35:42.7020,-7.03,3.46,0.08,7.83
2022-11-11 12:35:42.7120,-7.42,4.01,0.09,8.43
2022-11-11 12:35:42.7470,-7.11,4.26,0.41,8.29
2022-11-11 12:35:42.7490,-6.86,3.87,0.13,7.87
2022-11-11 12:35:42.7500,-6.63,2.95,-0.77,7.29
2022-11-11 12:35:42.7660,-6.32,2.08,-1.47,6.81
2022-11-11 12:35:42.7670,-6.13,1.76,-1.93,6.66
2022-11-11 12:35:42.7710,-6.26,2.05,-2.35,6.99
2022-11-11 12:35:42.7810,-6.74,3.0,-2.45,7.77
2022-11-11 12:35:42.7910,-7.51,4.23,-2.06,8.86
2022-11-11 12:35:42.8010,-8.46,5.34,-1.37,10.09
2022-11-11 12:35:42.8110,-9.62,6.06,-0.53,11.38
2022-11-11 12:35:42.8470,-10.91,6.1,0.18,12.5
2022-11-11 12:35:42.8480,-11.67,4.87,0.64,12.66
2022-11-11 12:35:42.8490,-11.35,2.52,0.76,11.65
2022-11-11 12:35:42.8660,-10.37,0.21,0.63,10.39
2022-11-11 12:35:42.8670,-9.29,-1.39,0.18,9.39
2022-11-11 12:35:42.8710,-8.18,-2.15,-0.41,8.46
2022-11-11 12:35:42.8810,-7.02,-2.27,-0.82,7.42
2022-11-11 12:35:42.8900,-6.05,-2.02,-0.88,6.43
2022-11-11 12:35:42.9010,-5.29,-1.49,-0.72,5.54
2022-11-11 12:35:42.9100,-4.33,-0.61,0.39,4.39
2022-11-11 12:35:42.9210,-3.07,0.53,1.14,3.31
2022-11-11 12:35:42.9510,0.28,1.49,2.23,2.69
2022-11-11 12:35:42.9520,6.29,3.96,5.17,9.05
2022-11-11 12:35:42.9530,10.4,8.68,5.71,14.7
2022-11-11 12:35:42.9650,6.86,10.36,0.18,12.42
2022-11-11 12:35:42.9700,1.93,6.13,-3.7,7.41
2022-11-11 12:35:42.9800,-0.03,1.34,-2.59,2.91
2022-11-11 12:35:42.9900,-1.76,-1.93,-2.1,3.35
2022-11-11 12:35:43.0000,-3.03,-3.02,-3.67,5.63
2022-11-11 12:35:43.0100,-3.84,-3.28,-5.62,7.55
2022-11-11 12:35:43.0200,-4.79,-2.72,-4.36,7.02
2022-11-11 12:35:43.0510,-5.17,-0.66,-1.31,5.37
2022-11-11 12:35:43.0520,-5.72,1.14,0.86,5.89
2022-11-11 12:35:43.0530,-6.54,2.32,2.43,7.35
2022-11-11 12:35:43.0650,-5.88,2.27,3.0,6.98
2022-11-11 12:35:43.0690,-3.69,1.15,2.9,4.83
2022-11-11 12:35:43.0790,-1.46,0.4,1.64,2.23
2022-11-11 12:35:43.0890,0.31,0.12,0.1,0.34
2022-11-11 12:35:43.0990,1.57,0.26,-1.5,2.18
2022-11-11 12:35:43.1090,2.2,0.54,-2.41,3.3
2022-11-11 12:35:43.1190,2.36,0.75,-2.03,3.2
2022-11-11 12:35:43.1490,1.79,0.5,-1.17,2.19
2022-11-11 12:35:43.1510,0.44,0.02,-0.69,0.81
2022-11-11 12:35:43.1510,-1.01,-0.31,-0.3,1.09
2022-11-11 12:35:43.1630,-2.17,-0.19,0.37,2.2
2022-11-11 12:35:43.1690,-2.72,0.18,0.71,2.81
2022-11-11 12:35:43.1790,-2.35,0.35,0.85,2.52
2022-11-11 12:35:43.1890,-1.52,0.31,0.87,1.77
2022-11-11 12:35:43.1990,-0.96,0.27,0.38,1.06
2022-11-11 12:35:43.2090,-0.39,0.24,-0.29,0.54
2022-11-11 12:35:43.2190,0.33,0.17,-0.76,0.84
2022-11-11 12:35:43.2490,0.87,0.07,-0.97,1.3
2022-11-11 12:35:43.2500,0.93,-0.09,-0.96,1.33
2022-11-11 12:35:43.2510,0.53,-0.24,-0.76,0.95
2022-11-11 12:35:43.2650,0.06,-0.26,-0.3,0.4
2022-11-11 12:35:43.2680,-0.2,-0.19,0.12,0.3
2022-11-11 12:35:43.2780,-0.17,-0.11,0.43,0.47
2022-11-11 12:35:43.2880,0.04,-0.03,0.23,0.23
2022-11-11 12:35:43.2980,0.37,-0.01,-0.02,0.37
2022-11-11 12:35:43.3080,0.6,0.0,-0.1,0.6
2022-11-11 12:35:43.3180,0.63,0.05,-0.12,0.64
2022-11-11 12:35:43.3530,0.53,0.1,-0.01,0.53
2022-11-11 12:35:43.3550,0.37,0.15,-0.01,0.39
2022-11-11 12:35:43.3560,0.26,0.12,-0.04,0.28
2022-11-11 12:35:43.3650,0.21,0.05,-0.01,0.21
2022-11-11 12:35:43.3670,0.22,0.07,-0.05,0.23
2022-11-11 12:35:43.3770,0.18,0.14,-0.06,0.23
2022-11-11 12:35:43.3870,0.09,0.23,-0.1,0.26
2022-11-11 12:35:43.3970,0.06,0.29,0.03,0.29
2022-11-11 12:35:43.4070,0.14,0.33,0.05,0.36
2022-11-11 12:35:43.4170,0.25,0.34,-0.17,0.45
2022-11-11 12:35:43.4520,0.27,0.28,-0.45,0.59
2022-11-11 12:35:43.4530,0.27,0.22,-0.7,0.78
2022-11-11 12:35:43.4540,0.32,0.17,-0.72,0.8
2022-11-11 12:35:43.4630,0.19,0.15,-0.72,0.75
2022-11-11 12:35:43.4670,-0.22,0.18,-0.76,0.81
2022-11-11 12:35:43.4770,-0.47,0.13,-0.64,0.8
2022-11-11 12:35:43.4870,-0.35,-0.06,-0.5,0.61
2022-11-11 12:35:43.4970,-0.1,-0.19,-0.6,0.63
2022-11-11 12:35:43.5070,0.1,-0.1,-0.8,0.81
2022-11-11 12:35:43.5170,0.2,0.23,-1.11,1.15
2022-11-11 12:35:43.5520,0.3,0.52,-1.64,1.74
2022-11-11 12:35:43.5530,0.46,0.66,-2.13,2.27
2022-11-11 12:35:43.5540,1.0,1.01,-0.71,1.58
2022-11-11 12:35:43.5640,1.2,1.27,-0.55,1.83
2022-11-11 12:35:43.5660,1.29,1.2,-0.85,1.95
2022-11-11 12:35:43.5760,1.51,1.18,-1.22,2.27
2022-11-11 12:35:43.5860,1.68,1.04,-1.96,2.78
2022-11-11 12:35:43.5960,1.54,0.78,-2.29,2.86
2022-11-11 12:35:43.6060,1.16,0.72,-2.15,2.54
2022-11-11 12:35:43.6160,0.71,0.99,-1.87,2.23
2022-11-11 12:35:43.6510,0.25,1.36,-1.52,2.05
2022-11-11 12:35:43.6520,-0.1,1.58,-1.2,1.98
2022-11-11 12:35:43.6540,-0.26,1.46,-1.14,1.87
2022-11-11 12:35:43.6630,-0.14,1.01,-1.41,1.74
2022-11-11 12:35:43.6650,0.39,0.49,-1.81,1.91
2022-11-11 12:35:43.6750,1.22,0.04,-2.24,2.55
2022-11-11 12:35:43.6850,2.02,-0.3,-2.46,3.19
2022-11-11 12:35:43.6950,2.58,-0.54,-2.56,3.67
2022-11-11 12:35:43.7050,3.09,-0.54,-2.0,3.72
2022-11-11 12:35:43.7160,3.45,-0.5,-0.63,3.54
2022-11-11 12:35:43.7250,3.33,-0.44,0.63,3.41
2022-11-11 12:35:43.7550,3.25,-0.41,1.68,3.68
2022-11-11 12:35:43.7570,3.1,-0.5,2.43,3.97
2022-11-11 12:35:43.7580,2.77,-0.5,2.67,3.87
2022-11-11 12:35:43.7650,2.73,-0.22,2.9,3.98
2022-11-11 12:35:43.7790,3.02,0.19,3.29,4.46
2022-11-11 12:35:43.7850,3.18,0.47,3.53,4.77
2022-11-11 12:35:43.7950,3.03,0.45,3.66,4.77
2022-11-11 12:35:43.8050,2.53,0.27,3.68,4.47
2022-11-11 12:35:43.8150,2.0,0.1,3.65,4.16
2022-11-11 12:35:43.8240,1.59,-0.02,3.63,3.96
2022-11-11 12:35:43.8540,1.19,-0.07,3.63,3.82
2022-11-11 12:35:43.8550,0.73,-0.01,3.54,3.61
2022-11-11 12:35:43.8560,0.32,0.12,3.48,3.49
2022-11-11 12:35:43.8640,-0.02,0.19,3.44,3.44
2022-11-11 12:35:43.8740,-0.33,0.12,3.25,3.26
2022-11-11 12:35:43.8840,-0.49,-0.01,2.85,2.89
2022-11-11 12:35:43.8940,-0.42,-0.07,2.37,2.4
2022-11-11 12:35:43.9040,-0.23,-0.08,1.93,1.94
2022-11-11 12:35:43.9140,-0.04,0.02,1.46,1.46
2022-11-11 12:35:43.9240,0.12,0.28,1.07,1.11
2022-11-11 12:35:43.9530,0.22,0.44,0.77,0.91
2022-11-11 12:35:43.9540,0.28,0.41,0.76,0.9
2022-11-11 12:35:43.9560,0.17,0.35,1.0,1.07
2022-11-11 12:35:43.9640,-0.33,0.55,1.19,1.35
2022-11-11 12:35:43.9740,-0.81,0.85,1.39,1.81
2022-11-11 12:35:43.9840,-1.17,0.93,1.3,1.98
2022-11-11 12:35:43.9930,-1.38,0.81,1.06,1.91
2022-11-11 12:35:44.0030,-1.5,0.63,0.77,1.79
2022-11-11 12:35:44.0140,-1.67,0.68,0.4,1.84
2022-11-11 12:35:44.0230,-1.82,0.85,-0.03,2.0
2022-11-11 12:35:44.0540,-1.81,0.74,-0.38,1.99
2022-11-11 12:35:44.0550,-1.64,0.32,-0.5,1.74
2022-11-11 12:35:44.0560,-1.46,-0.23,-0.51,1.56
2022-11-11 12:35:44.0630,-1.46,-0.9,-0.68,1.84
2022-11-11 12:35:44.0730,-1.53,-1.43,-0.83,2.25
2022-11-11 12:35:44.0830,-1.33,-1.65,-0.67,2.22
2022-11-11 12:35:44.0930,-0.99,-1.56,-0.48,1.9
2022-11-11 12:35:44.1030,-0.7,-1.18,-0.13,1.37
2022-11-11 12:35:44.1130,-0.61,-0.91,-0.08,1.09
2022-11-11 12:35:44.1230,-0.84,-0.67,-0.29,1.11
2022-11-11 12:35:44.1600,-0.69,-0.12,-0.02,0.7
2022-11-11 12:35:44.1610,0.38,0.2,0.13,0.44
2022-11-11 12:35:44.1620,1.86,0.31,-0.04,1.88
2022-11-11 12:35:44.1800,3.2,0.92,-0.17,3.33
2022-11-11 12:35:44.1810,3.7,2.04,-0.09,4.22
2022-11-11 12:35:44.1830,2.82,2.75,-0.04,3.93
2022-11-11 12:35:44.1920,1.29,2.72,-0.55,3.06
2022-11-11 12:35:44.2020,-0.18,2.01,-0.59,2.1
2022-11-11 12:35:44.2120,-1.27,1.1,0.06,1.68
2022-11-11 12:35:44.2220,-1.89,0.19,0.58,1.98
2022-11-11 12:35:44.2580,-2.31,-0.58,0.33,2.4
2022-11-11 12:35:44.2590,-2.33,-1.03,-0.01,2.54
2022-11-11 12:35:44.2600,-1.88,-1.03,-0.26,2.15
2022-11-11 12:35:44.2800,-1.18,-0.65,-0.2,1.36
2022-11-11 12:35:44.2810,-0.68,-0.25,-0.38,0.81
2022-11-11 12:35:44.2830,-0.52,-0.05,-0.4,0.65
2022-11-11 12:35:44.2920,-0.41,-0.03,-0.35,0.53
2022-11-11 12:35:44.3010,-0.05,-0.21,-0.39,0.44
2022-11-11 12:35:44.3110,0.22,-0.42,-0.7,0.84
2022-11-11 12:35:44.3210,0.41,-0.28,-0.66,0.82
2022-11-11 12:35:44.3570,0.82,0.09,-0.34,0.89
2022-11-11 12:35:44.3580,1.03,0.46,-0.26,1.15
2022-11-11 12:35:44.3590,0.77,0.67,-0.5,1.13
2022-11-11 12:35:44.3610,0.36,0.59,-0.41,0.8
2022-11-11 12:35:44.3710,0.01,0.41,-0.1,0.42
2022-11-11 12:35:44.3810,-0.26,0.35,-0.08,0.44
2022-11-11 12:35:44.3910,-0.3,0.33,-0.32,0.54
2022-11-11 12:35:44.4010,-0.05,0.18,-0.54,0.57
2022-11-11 12:35:44.4110,0.49,-0.15,-0.5,0.71
2022-11-11 12:35:44.4210,0.69,-0.4,-0.68,1.04
2022-11-11 12:35:44.4550,0.22,-0.54,-0.77,0.96
2022-11-11 12:35:44.4570,-0.22,-0.45,-0.24,0.55
2022-11-11 12:35:44.4580,-0.48,-0.22,0.01,0.52
2022-11-11 12:35:44.4600,-0.59,0.11,0.31,0.67
2022-11-11 12:35:44.4700,-0.47,0.42,0.63,0.89
2022-11-11 12:35:44.4800,-0.45,0.63,0.77,1.09
2022-11-11 12:35:44.4900,-0.27,0.7,0.69,1.01
2022-11-11 12:35:44.5000,0.5,0.51,0.46,0.84
2022-11-11 12:35:44.5100,1.13,0.26,-0.53,1.27
2022-11-11 12:35:44.5200,0.75,-0.11,-0.81,1.1
2022-11-11 12:35:44.5300,0.03,-0.23,-0.31,0.38
2022-11-11 12:35:44.5610,-0.27,-0.11,0.15,0.32
2022-11-11 12:35:44.5620,-0.06,0.01,0.32,0.32
2022-11-11 12:35:44.5630,0.58,-0.01,0.06,0.58
2022-11-11 12:35:44.5790,1.16,-0.06,-0.22,1.18
2022-11-11 12:35:44.5800,1.2,-0.12,-0.42,1.27
2022-11-11 12:35:44.5900,1.05,-0.13,-0.58,1.2
2022-11-11 12:35:44.6000,0.85,-0.11,-0.25,0.89
2022-11-11 12:35:44.6090,0.74,0.03,-0.17,0.75
2022-11-11 12:35:44.6190,0.68,0.22,-0.07,0.71
2022-11-11 12:35:44.6300,0.64,0.3,-0.26,0.75
2022-11-11 12:35:44.6600,0.65,0.29,-0.34,0.78
2022-11-11 12:35:44.6610,0.79,0.37,-0.35,0.93
2022-11-11 12:35:44.6620,0.72,0.53,-0.37,0.96
2022-11-11 12:35:44.6790,0.6,0.65,-0.36,0.95
2022-11-11 12:35:44.6800,0.59,0.69,-0.33,0.96
2022-11-11 12:35:44.6890,0.73,0.7,-0.54,1.14
2022-11-11 12:35:44.6990,0.98,0.83,-0.56,1.4
2022-11-11 12:35:44.7090,0.78,0.81,-1.26,1.68
2022-11-11 12:35:44.7190,1.12,1.23,-0.17,1.67
2022-11-11 12:35:44.7290,1.22,1.86,0.71,2.33
2022-11-11 12:35:44.7590,1.24,2.3,0.68,2.7
2022-11-11 12:35:44.7600,1.39,2.62,0.63,3.03
2022-11-11 12:35:44.7620,1.55,2.68,-0.19,3.1
2022-11-11 12:35:44.7790,2.1,2.77,-0.19,3.48
2022-11-11 12:35:44.7800,2.64,3.1,0.75,4.14
2022-11-11 12:35:44.7880,2.71,3.27,0.29,4.25
2022-11-11 12:35:44.7980,3.14,3.44,0.39,4.67
2022-11-11 12:35:44.8080,3.47,4.04,0.08,5.32
2022-11-11 12:35:44.8180,3.97,4.87,-0.26,6.28
2022-11-11 12:35:44.8280,4.68,5.79,-0.14,7.44
2022-11-11 12:35:44.8580,5.24,6.58,0.31,8.41
2022-11-11 12:35:44.8590,5.44,6.98,0.97,8.9
2022-11-11 12:35:44.8600,5.38,6.96,1.68,8.95
2022-11-11 12:35:44.8780,5.26,6.7,2.25,8.81
2022-11-11 12:35:44.8790,5.33,6.49,2.47,8.75
2022-11-11 12:35:44.8880,6.13,6.37,2.54,9.19
2022-11-11 12:35:44.8980,7.21,6.03,1.86,9.58
2022-11-11 12:35:44.9080,6.81,5.69,-1.16,8.94
2022-11-11 12:35:44.9170,4.86,5.44,-4.35,8.49
2022-11-11 12:35:44.9280,2.58,5.14,-4.44,7.26
2022-11-11 12:35:44.9620,1.49,4.41,-2.62,5.34
2022-11-11 12:35:44.9630,0.85,3.7,-2.14,4.35
2022-11-11 12:35:44.9650,1.39,3.67,-2.95,4.9
2022-11-11 12:35:44.9780,3.93,3.85,-2.02,5.86
2022-11-11 12:35:44.9790,6.35,2.68,-0.51,6.91
2022-11-11 12:35:44.9870,7.7,0.84,0.33,7.75
2022-11-11 12:35:44.9970,7.51,-0.99,-0.1,7.57
2022-11-11 12:35:45.0070,6.74,-1.86,-0.12,6.99
2022-11-11 12:35:45.0170,6.2,-1.71,0.34,6.44
2022-11-11 12:35:45.0270,6.01,-1.06,0.48,6.12
2022-11-11 12:35:45.0620,6.31,-0.56,0.51,6.35
2022-11-11 12:35:45.0630,6.89,-0.97,0.64,6.98
2022-11-11 12:35:45.0640,7.19,-2.34,0.46,7.57
2022-11-11 12:35:45.0780,7.26,-3.8,0.09,8.19
2022-11-11 12:35:45.0790,7.17,-4.51,0.07,8.47
2022-11-11 12:35:45.0860,6.52,-4.26,0.36,7.79
2022-11-11 12:35:45.0960,5.18,-3.47,0.47,6.25
2022-11-11 12:35:45.1060,3.8,-2.79,0.37,4.72
2022-11-11 12:35:45.1160,2.98,-2.05,0.53,3.65
2022-11-11 12:35:45.1260,2.35,-1.14,0.92,2.76
2022-11-11 12:35:45.1600,1.42,-0.37,1.3,1.96
2022-11-11 12:35:45.1610,0.01,0.05,1.13,1.13
2022-11-11 12:35:45.1620,-1.57,0.39,0.7,1.76
2022-11-11 12:35:45.1780,-2.84,0.78,0.7,3.02
2022-11-11 12:35:45.1790,-3.78,1.39,0.98,4.14
2022-11-11 12:35:45.1860,-4.59,2.21,1.19,5.23
2022-11-11 12:35:45.1960,-5.16,3.04,1.1,6.08
2022-11-11 12:35:45.2060,-5.39,3.68,0.84,6.58
2022-11-11 12:35:45.2160,-5.53,3.92,0.29,6.78
2022-11-11 12:35:45.2260,-5.77,3.74,-0.57,6.89
2022-11-11 12:35:45.2590,-5.88,3.34,-1.27,6.88
2022-11-11 12:35:45.2600,-5.9,3.0,-1.54,6.79
2022-11-11 12:35:45.2610,-6.17,2.81,-1.67,6.98
2022-11-11 12:35:45.2770,-6.84,2.72,-2.01,7.63
2022-11-11 12:35:45.2780,-7.49,2.99,-2.24,8.37
2022-11-11 12:35:45.2850,-7.89,3.41,-1.83,8.78
2022-11-11 12:35:45.2950,-8.36,3.65,-1.38,9.22
2022-11-11 12:35:45.3050,-9.1,3.48,-1.33,9.83
2022-11-11 12:35:45.3150,-9.85,2.79,-1.31,10.32
2022-11-11 12:35:45.3250,-10.17,1.83,-0.7,10.35
2022-11-11 12:35:45.3350,-9.71,0.68,0.09,9.73
2022-11-11 12:35:45.3640,-9.02,-0.44,0.03,9.03
2022-11-11 12:35:45.3650,-8.7,-1.1,-0.7,8.79
2022-11-11 12:35:45.3660,-8.52,-1.16,-1.33,8.7
2022-11-11 12:35:45.3770,-7.92,-0.71,-1.2,8.04
2022-11-11 12:35:45.3840,-7.05,0.06,-0.48,7.06
2022-11-11 12:35:45.3940,-5.7,1.23,0.26,5.83
2022-11-11 12:35:45.4040,-2.45,3.27,2.48,4.77
2022-11-11 12:35:45.4140,2.59,6.2,5.74,8.83
2022-11-11 12:35:45.4240,6.12,10.38,6.59,13.73
2022-11-11 12:35:45.4340,3.22,11.32,1.19,11.82
2022-11-11 12:35:45.4650,-1.09,5.69,-2.74,6.4
2022-11-11 12:35:45.4660,-2.17,0.47,-1.48,2.66
2022-11-11 12:35:45.4670,-3.01,-2.64,-0.66,4.05
2022-11-11 12:35:45.4770,-3.61,-3.93,-0.85,5.4
2022-11-11 12:35:45.4840,-3.47,-3.74,-0.89,5.17
2022-11-11 12:35:45.4940,-3.09,-2.85,-1.02,4.32
2022-11-11 12:35:45.5040,-3.16,-1.87,-2.4,4.38
2022-11-11 12:35:45.5140,-3.16,-0.6,-2.92,4.34
2022-11-11 12:35:45.5240,-2.72,1.18,-2.35,3.78
2022-11-11 12:35:45.5340,-2.16,2.4,-1.52,3.56
2022-11-11 12:35:45.5630,-1.58,2.73,0.0,3.15
2022-11-11 12:35:45.5640,-1.08,1.98,0.83,2.4
2022-11-11 12:35:45.5650,-1.07,0.6,0.65,1.38
2022-11-11 12:35:45.5770,-1.21,-0.11,0.44,1.29
2022-11-11 12:35:45.5830,-0.94,-0.18,0.54,1.09
2022-11-11 12:35:45.5930,-0.09,0.07,0.51,0.52
2022-11-11 12:35:45.6030,1.04,0.39,0.07,1.11
2022-11-11 12:35:45.6130,1.8,0.5,-0.74,2.0
2022-11-11 12:35:45.6230,2.0,0.39,-1.44,2.49
2022-11-11 12:35:45.6330,1.54,0.09,-1.66,2.26
2022-11-11 12:35:45.6630,0.35,-0.22,-1.11,1.18
2022-11-11 12:35:45.6640,-0.88,-0.3,-0.25,0.96
2022-11-11 12:35:45.6650,-1.72,-0.19,0.29,1.75
2022-11-11 12:35:45.6760,-2.06,0.01,0.58,2.14
2022-11-11 12:35:45.6830,-1.77,0.25,0.59,1.88
2022-11-11 12:35:45.6930,-1.09,0.44,0.39,1.23
2022-11-11 12:35:45.7020,-0.31,0.48,-0.11,0.58
2022-11-11 12:35:45.7120,0.5,0.33,-0.38,0.7
2022-11-11 12:35:45.7220,1.31,0.07,-0.52,1.41
2022-11-11 12:35:45.7320,1.96,-0.2,-0.98,2.2
2022-11-11 12:35:45.7680,2.2,-0.5,-1.11,2.51
2022-11-11 12:35:45.7690,1.96,-0.62,-1.02,2.29
2022-11-11 12:35:45.7700,1.37,-0.46,-0.78,1.64
2022-11-11 12:35:45.7730,0.64,-0.15,-0.38,0.75
2022-11-11 12:35:45.7910,0.01,0.11,0.08,0.13
2022-11-11 12:35:45.7920,0.01,0.26,0.54,0.59
2022-11-11 12:35:45.8020,0.54,0.42,0.58,0.89
2022-11-11 12:35:45.8120,0.87,0.62,0.15,1.07
2022-11-11 12:35:45.8220,1.1,0.67,-0.05,1.28
2022-11-11 12:35:45.8320,1.32,0.61,-0.47,1.52
2022-11-11 12:35:45.8670,1.5,0.44,-0.94,1.82
2022-11-11 12:35:45.8680,1.58,0.48,-0.9,1.88
2022-11-11 12:35:45.8690,1.45,0.75,-0.74,1.79
2022-11-11 12:35:45.8720,1.08,1.03,-0.8,1.69
2022-11-11 12:35:45.8910,0.54,1.64,0.01,1.72
2022-11-11 12:35:45.8920,0.06,2.35,0.56,2.41
2022-11-11 12:35:45.9010,0.6,2.9,1.09,3.15
2022-11-11 12:35:45.9110,1.45,3.1,0.48,3.45
2022-11-11 12:35:45.9210,2.21,3.07,-0.82,3.87
2022-11-11 12:35:45.9310,2.86,3.53,-0.32,4.55
2022-11-11 12:35:45.9650,2.97,3.99,-0.59,5.0
2022-11-11 12:35:45.9660,3.31,4.06,-0.31,5.24
2022-11-11 12:35:45.9670,3.66,4.2,-0.06,5.57
2022-11-11 12:35:45.9760,4.13,4.34,-0.02,5.99
2022-11-11 12:35:45.9800,4.7,4.49,0.29,6.5
2022-11-11 12:35:45.9920,5.27,4.71,0.48,7.08
2022-11-11 12:35:46.0010,5.95,5.07,0.34,7.82
2022-11-11 12:35:46.0110,6.93,5.64,-0.26,8.93
2022-11-11 12:35:46.0210,8.17,6.13,-0.33,10.21
2022-11-11 12:35:46.0300,9.08,6.61,-0.2,11.23
2022-11-11 12:35:46.0650,8.91,7.06,-0.86,11.4
2022-11-11 12:35:46.0660,8.86,7.58,-0.58,11.67
2022-11-11 12:35:46.0670,9.61,7.38,0.16,12.11
2022-11-11 12:35:46.0770,9.14,6.54,-2.33,11.47
2022-11-11 12:35:46.0800,7.57,6.38,-6.4,11.78
2022-11-11 12:35:46.0900,5.76,6.95,-7.51,11.74
2022-11-11 12:35:46.1000,4.58,7.11,-5.62,10.15
2022-11-11 12:35:46.1100,3.35,7.15,-3.46,8.62
2022-11-11 12:35:46.1200,2.1,6.89,-3.75,8.12
2022-11-11 12:35:46.1300,2.66,6.39,-3.75,7.87
2022-11-11 12:35:46.1400,4.14,5.16,-2.39,7.03
2022-11-11 12:35:46.1700,6.0,3.05,-0.68,6.76
2022-11-11 12:35:46.1710,7.86,1.01,0.93,7.97
2022-11-11 12:35:46.1720,8.15,-1.06,1.24,8.31
2022-11-11 12:35:46.1920,6.76,-2.5,0.66,7.23
2022-11-11 12:35:46.1930,5.58,-2.9,0.47,6.3
2022-11-11 12:35:46.1990,5.76,-2.89,0.57,6.46
2022-11-11 12:35:46.2090,6.72,-3.11,0.21,7.4
2022-11-11 12:35:46.2190,7.79,-3.87,-0.92,8.74
2022-11-11 12:35:46.2290,8.9,-5.06,-1.99,10.42
2022-11-11 12:35:46.2390,9.66,-6.12,-2.58,11.72
2022-11-11 12:35:46.2700,8.99,-6.46,-3.28,11.54
2022-11-11 12:35:46.2710,6.83,-5.45,-3.88,9.56
2022-11-11 12:35:46.2720,5.26,-3.88,-2.75,7.09
2022-11-11 12:35:46.2920,4.55,-2.42,-0.81,5.21
2022-11-11 12:35:46.2930,3.7,-1.01,0.44,3.86
2022-11-11 12:35:46.2990,1.81,0.28,0.16,1.83
2022-11-11 12:35:46.3090,-0.95,1.59,-0.92,2.06
2022-11-11 12:35:46.3190,-3.9,3.01,-1.96,5.3
2022-11-11 12:35:46.3290,-6.5,4.22,-2.27,8.07
2022-11-11 12:35:46.3390,-8.1,4.98,-1.82,9.68
2022-11-11 12:35:46.3680,-8.32,5.12,-0.9,9.81
2022-11-11 12:35:46.3690,-8.02,4.82,-0.95,9.4
2022-11-11 12:35:46.3700,-7.57,4.42,-2.12,9.01
2022-11-11 12:35:46.3780,-6.89,3.97,-3.27,8.59
2022-11-11 12:35:46.3880,-6.33,3.22,-3.97,8.13
2022-11-11 12:35:46.3980,-6.02,2.41,-4.46,7.87
2022-11-11 12:35:46.4080,-6.04,2.13,-4.81,8.0
2022-11-11 12:35:46.4180,-6.76,2.7,-5.16,8.92
2022-11-11 12:35:46.4280,-8.08,3.91,-5.15,10.34
2022-11-11 12:35:46.4380,-9.69,5.43,-4.44,11.96
2022-11-11 12:35:46.4680,-11.59,6.72,-2.97,13.72
2022-11-11 12:35:46.4690,-13.57,7.07,-1.18,15.34
2022-11-11 12:35:46.4700,-15.04,5.9,-0.2,16.15
2022-11-11 12:35:46.4780,-14.88,2.92,0.19,15.16
2022-11-11 12:35:46.4870,-13.75,-0.23,0.03,13.75
2022-11-11 12:35:46.4970,-12.46,-2.13,-0.55,12.65
2022-11-11 12:35:46.5070,-10.8,-2.72,-1.07,11.18
2022-11-11 12:35:46.5170,-9.14,-2.31,-1.49,9.54
2022-11-11 12:35:46.5270,-7.86,-1.42,-1.81,8.18
2022-11-11 12:35:46.5370,-6.88,-0.35,-1.73,7.1
2022-11-11 12:35:46.5740,-5.98,0.76,-0.98,6.1
2022-11-11 12:35:46.5750,-5.01,1.98,0.38,5.4
2022-11-11 12:35:46.5770,-3.24,3.21,2.37,5.13
2022-11-11 12:35:46.5910,1.8,4.11,5.54,7.12
2022-11-11 12:35:46.5920,9.66,6.59,8.3,14.33
2022-11-11 12:35:46.5970,12.83,10.42,4.52,17.13
2022-11-11 12:35:46.6070,5.63,8.96,-2.28,10.82
2022-11-11 12:35:46.6170,-0.24,4.49,-3.65,5.79
2022-11-11 12:35:46.6270,-3.58,0.61,-2.15,4.22
2022-11-11 12:35:46.6360,-5.99,-1.89,-2.22,6.66
2022-11-11 12:35:46.6720,-6.77,-2.58,-1.45,7.38
2022-11-11 12:35:46.6730,-6.13,-2.24,-0.88,6.58
2022-11-11 12:35:46.6740,-5.47,-1.85,-1.57,5.98
2022-11-11 12:35:46.6910,-5.32,-1.43,-2.95,6.24
2022-11-11 12:35:46.6920,-4.67,0.2,-2.91,5.5
2022-11-11 12:35:46.6960,-3.58,1.5,-2.1,4.41
2022-11-11 12:35:46.7060,-2.97,1.52,-0.36,3.35
2022-11-11 12:35:46.7160,-2.41,1.29,1.64,3.18
2022-11-11 12:35:46.7260,-1.69,0.89,1.83,2.64
2022-11-11 12:35:46.7360,-1.03,0.72,0.98,1.59
2022-11-11 12:35:46.7710,-0.23,0.69,-0.15,0.74
2022-11-11 12:35:46.7730,1.01,0.47,-1.11,1.57
2022-11-11 12:35:46.7740,2.5,0.29,-1.55,2.95
2022-11-11 12:35:46.7910,3.71,0.17,-1.69,4.08
2022-11-11 12:35:46.7920,3.57,-0.01,-1.94,4.06
2022-11-11 12:35:46.7950,1.87,-0.32,-1.8,2.61
2022-11-11 12:35:46.8050,-0.26,-0.63,-1.13,1.31
2022-11-11 12:35:46.8150,-2.17,-0.77,0.1,2.3
2022-11-11 12:35:46.8250,-3.27,-0.47,1.25,3.53
2022-11-11 12:35:46.8350,-3.27,0.06,1.89,3.77
2022-11-11 12:35:46.8710,-2.25,0.7,1.87,3.0
2022-11-11 12:35:46.8720,-0.53,0.89,0.82,1.32
2022-11-11 12:35:46.8730,1.15,0.71,-0.26,1.37
2022-11-11 12:35:46.8910,2.64,0.4,-1.04,2.86
2022-11-11 12:35:46.8920,3.21,0.03,-1.67,3.61
2022-11-11 12:35:46.8950,2.56,-0.41,-1.58,3.03
2022-11-11 12:35:46.9050,1.31,-0.62,-1.18,1.86
2022-11-11 12:35:46.9150,0.39,-0.58,-0.57,0.9
2022-11-11 12:35:46.9250,0.18,-0.17,0.01,0.24
2022-11-11 12:35:46.9350,-0.21,0.45,0.09,0.5
2022-11-11 12:35:46.9450,-0.98,0.85,0.29,1.32
2022-11-11 12:35:46.9760,-1.19,1.12,0.73,1.78
2022-11-11 12:35:46.9770,-0.72,1.33,0.68,1.65
2022-11-11 12:35:46.9780,0.25,1.27,-0.03,1.29
2022-11-11 12:35:46.9910,1.31,1.05,-0.6,1.78
2022-11-11 12:35:46.9940,1.78,1.0,-0.83,2.2
2022-11-11 12:35:47.0040,1.64,0.99,-0.92,2.12
2022-11-11 12:35:47.0140,1.66,1.17,-0.45,2.08
2022-11-11 12:35:47.0240,2.05,1.98,1.03,3.03
2022-11-11 12:35:47.0340,2.2,2.54,0.71,3.43
2022-11-11 12:35:47.0440,2.28,2.87,0.0,3.66
2022-11-11 12:35:47.0750,1.95,3.19,-1.07,3.88
2022-11-11 12:35:47.0760,1.92,3.85,-0.42,4.32
2022-11-11 12:35:47.0770,1.87,4.5,0.27,4.88
2022-11-11 12:35:47.0900,2.39,4.6,0.3,5.19
2022-11-11 12:35:47.0940,3.35,4.43,0.21,5.55
2022-11-11 12:35:47.1030,4.38,4.34,-0.32,6.17
2022-11-11 12:35:47.1130,5.61,4.3,-0.51,7.08
2022-11-11 12:35:47.1240,6.54,4.27,-0.39,7.82
2022-11-11 12:35:47.1330,7.0,4.35,-0.19,8.24
2022-11-11 12:35:47.1430,7.35,4.79,-0.22,8.77
2022-11-11 12:35:47.1730,8.08,5.89,-0.59,10.01
2022-11-11 12:35:47.1750,9.36,7.19,0.14,11.8
2022-11-11 12:35:47.1760,9.81,8.58,-0.02,13.03
2022-11-11 12:35:47.1900,9.8,9.37,-0.13,13.55
2022-11-11 12:35:47.1930,10.13,8.93,-0.34,13.5
2022-11-11 12:35:47.2030,9.25,7.69,-3.81,12.61
2022-11-11 12:35:47.2130,6.87,7.28,-7.69,12.62
