time,ax,ay,az,atotal
2022-11-11 12:52:48.0280,-0.03,0.05,0.01,0.05
2022-11-11 12:52:48.0320,-0.05,0.06,0.0,0.07
2022-11-11 12:52:48.0370,-0.06,0.05,-0.01,0.07
2022-11-11 12:52:48.0500,-0.04,0.05,-0.01,0.06
2022-11-11 12:52:48.0540,-0.04,0.06,0.0,0.07
2022-11-11 12:52:48.0580,-0.05,0.07,0.01,0.08
2022-11-11 12:52:48.0670,-0.03,0.07,0.01,0.07
2022-11-11 12:52:48.0710,-0.03,0.08,0.01,0.08
2022-11-11 12:52:48.0840,-0.05,0.06,0.01,0.07
2022-11-11 12:52:48.0870,-0.06,0.06,0.0,0.08
2022-11-11 12:52:48.1410,-0.04,0.06,0.0,0.07
2022-11-11 12:52:48.1440,-0.04,0.06,0.0,0.07
2022-11-11 12:52:48.1450,-0.06,0.06,0.0,0.08
2022-11-11 12:52:48.1510,-0.07,0.06,0.0,0.09
2022-11-11 12:52:48.1550,-0.06,0.07,-0.01,0.09
2022-11-11 12:52:48.1670,-0.06,0.06,-0.01,0.08
2022-11-11 12:52:48.1700,-0.06,0.06,-0.01,0.08
2022-11-11 12:52:48.1710,-0.07,0.07,-0.02,0.1
2022-11-11 12:52:48.1750,-0.05,0.07,-0.02,0.08
2022-11-11 12:52:48.1840,-0.03,0.07,-0.01,0.07
2022-11-11 12:52:48.2380,-0.02,0.06,-0.01,0.06
2022-11-11 12:52:48.2410,-0.02,0.06,0.0,0.06
2022-11-11 12:52:48.2440,-0.03,0.07,0.01,0.07
2022-11-11 12:52:48.2520,-0.03,0.06,0.01,0.06
2022-11-11 12:52:48.2550,-0.05,0.05,0.01,0.07
2022-11-11 12:52:48.2580,-0.05,0.06,0.01,0.07
2022-11-11 12:52:48.2600,-0.04,0.07,0.0,0.08
2022-11-11 12:52:48.2640,-0.05,0.06,-0.01,0.07
2022-11-11 12:52:48.2680,-0.05,0.05,-0.01,0.07
2022-11-11 12:52:48.2710,-0.03,0.06,-0.02,0.06
2022-11-11 12:52:48.3250,-0.04,0.06,-0.01,0.07
2022-11-11 12:52:48.3280,-0.05,0.06,0.0,0.07
2022-11-11 12:52:48.3320,-0.07,0.07,0.02,0.1
2022-11-11 12:52:48.3370,-0.09,0.06,0.03,0.11
2022-11-11 12:52:48.3510,-0.09,0.06,0.02,0.1
2022-11-11 12:52:48.3540,-0.09,0.06,0.01,0.1
2022-11-11 12:52:48.3660,-0.06,0.05,0.01,0.07
2022-11-11 12:52:48.3690,-0.04,0.06,0.0,0.07
2022-11-11 12:52:48.3720,-0.03,0.07,-0.01,0.07
2022-11-11 12:52:48.3830,-0.04,0.07,0.0,0.08
2022-11-11 12:52:48.4370,-0.02,0.07,0.0,0.07
2022-11-11 12:52:48.4400,-0.03,0.05,0.01,0.05
2022-11-11 12:52:48.4510,-0.04,0.05,0.02,0.06
2022-11-11 12:52:48.4550,-0.05,0.06,0.02,0.08
2022-11-11 12:52:48.4680,-0.04,0.07,0.03,0.08
2022-11-11 12:52:48.4710,-0.03,0.08,0.02,0.08
2022-11-11 12:52:48.4830,-0.02,0.07,0.0,0.07
2022-11-11 12:52:48.4860,-0.01,0.06,-0.01,0.06
2022-11-11 12:52:48.5000,-0.02,0.06,0.0,0.06
2022-11-11 12:52:48.5030,-0.01,0.07,-0.02,0.07
2022-11-11 12:52:48.5580,-0.02,0.07,-0.02,0.07
2022-11-11 12:52:48.5610,-0.05,0.06,-0.02,0.08
2022-11-11 12:52:48.5670,-0.07,0.05,0.0,0.08
2022-11-11 12:52:48.5710,-0.08,0.05,0.0,0.09
2022-11-11 12:52:48.5840,-0.07,0.06,-0.01,0.09
2022-11-11 12:52:48.5870,-0.07,0.07,-0.01,0.09
2022-11-11 12:52:48.5890,-0.08,0.06,-0.01,0.1
2022-11-11 12:52:48.5990,-0.08,0.05,-0.01,0.09
2022-11-11 12:52:48.6020,-0.09,0.06,-0.01,0.1
2022-11-11 12:52:48.6160,-0.1,0.07,0.0,0.12
2022-11-11 12:52:48.6710,-0.09,0.07,-0.02,0.11
2022-11-11 12:52:48.6750,-0.08,0.06,-0.02,0.1
2022-11-11 12:52:48.6860,-0.05,0.06,0.0,0.07
2022-11-11 12:52:48.6890,-0.04,0.06,-0.01,0.07
2022-11-11 12:52:48.7000,-0.03,0.07,0.0,0.07
2022-11-11 12:52:48.7040,-0.02,0.08,0.01,0.08
2022-11-11 12:52:48.7170,-0.03,0.07,0.02,0.07
2022-11-11 12:52:48.7200,-0.03,0.05,0.01,0.05
2022-11-11 12:52:48.7330,-0.04,0.04,0.0,0.05
2022-11-11 12:52:48.7360,-0.04,0.05,0.0,0.06
2022-11-11 12:52:48.7910,-0.05,0.05,0.0,0.07
2022-11-11 12:52:48.7940,-0.08,0.05,-0.01,0.09
2022-11-11 12:52:48.7980,-0.02,0.08,-0.01,0.08
2022-11-11 12:52:48.8030,0.02,0.09,0.0,0.09
2022-11-11 12:52:48.8180,0.02,0.08,0.01,0.08
2022-11-11 12:52:48.8210,-0.02,0.07,0.02,0.07
2022-11-11 12:52:48.8330,-0.06,0.06,0.01,0.08
2022-11-11 12:52:48.8370,-0.07,0.05,-0.02,0.08
2022-11-11 12:52:48.8500,-0.11,0.04,0.01,0.11
2022-11-11 12:52:48.8530,-0.08,0.06,0.01,0.1
2022-11-11 12:52:48.9090,-0.03,0.07,0.0,0.07
2022-11-11 12:52:48.9120,-0.02,0.08,0.01,0.08
2022-11-11 12:52:48.9190,-0.05,0.07,0.01,0.08
2022-11-11 12:52:48.9220,-0.06,0.05,0.0,0.07
2022-11-11 12:52:48.9340,-0.05,0.06,0.0,0.07
2022-11-11 12:52:48.9370,-0.04,0.06,0.0,0.07
2022-11-11 12:52:48.9490,-0.05,0.05,0.0,0.07
2022-11-11 12:52:48.9520,-0.06,0.05,0.01,0.07
2022-11-11 12:52:48.9660,-0.06,0.07,0.0,0.09
2022-11-11 12:52:48.9690,-0.06,0.07,0.01,0.09
2022-11-11 12:52:49.0250,-0.04,0.06,0.01,0.07
2022-11-11 12:52:49.0270,-0.04,0.06,0.01,0.07
2022-11-11 12:52:49.0290,-0.04,0.06,0.0,0.07
2022-11-11 12:52:49.0320,-0.04,0.07,0.01,0.08
2022-11-11 12:52:49.0370,-0.03,0.06,0.0,0.06
2022-11-11 12:52:49.0400,-0.05,0.07,0.01,0.08
2022-11-11 12:52:49.0510,-0.04,0.07,0.01,0.08
2022-11-11 12:52:49.0540,-0.04,0.05,-0.01,0.06
2022-11-11 12:52:49.0570,-0.06,0.05,0.01,0.07
2022-11-11 12:52:49.0670,-0.05,0.07,0.01,0.08
2022-11-11 12:52:49.1230,-0.05,0.06,-0.02,0.08
2022-11-11 12:52:49.1260,-0.07,0.04,-0.02,0.08
2022-11-11 12:52:49.1290,-0.05,0.07,0.02,0.08
2022-11-11 12:52:49.1340,-0.02,0.1,0.02,0.1
2022-11-11 12:52:49.1380,-0.03,0.07,0.0,0.07
2022-11-11 12:52:49.1510,-0.05,0.05,-0.02,0.07
2022-11-11 12:52:49.1540,-0.04,0.05,-0.01,0.06
2022-11-11 12:52:49.1660,-0.03,0.08,0.01,0.08
2022-11-11 12:52:49.1700,-0.05,0.07,0.01,0.08
2022-11-11 12:52:49.1830,-0.07,0.05,0.01,0.08
2022-11-11 12:52:49.2400,-0.07,0.06,0.01,0.09
2022-11-11 12:52:49.2430,-0.03,0.08,0.01,0.08
2022-11-11 12:52:49.2510,-0.04,0.07,-0.01,0.08
2022-11-11 12:52:49.2550,-0.09,0.02,0.01,0.09
2022-11-11 12:52:49.2680,-0.16,0.02,0.05,0.16
2022-11-11 12:52:49.2710,-0.19,0.05,0.05,0.2
2022-11-11 12:52:49.2830,-0.19,0.08,0.09,0.22
2022-11-11 12:52:49.2860,-0.17,0.08,0.0,0.18
2022-11-11 12:52:49.3000,-0.09,0.02,-0.18,0.2
2022-11-11 12:52:49.3030,0.01,-0.02,-0.29,0.29
2022-11-11 12:52:49.3620,0.22,0.07,0.26,0.34
2022-11-11 12:52:49.3660,0.23,0.19,0.43,0.52
2022-11-11 12:52:49.3710,-0.24,0.08,0.01,0.25
2022-11-11 12:52:49.3850,-0.25,-0.01,-0.06,0.25
2022-11-11 12:52:49.3880,0.12,0.08,-0.03,0.14
2022-11-11 12:52:49.4000,0.24,0.11,-0.11,0.28
2022-11-11 12:52:49.4040,0.19,0.07,-0.08,0.21
2022-11-11 12:52:49.4170,0.1,0.09,-0.04,0.14
2022-11-11 12:52:49.4200,0.03,0.1,0.12,0.15
2022-11-11 12:52:49.4330,-0.13,0.1,0.1,0.19
2022-11-11 12:52:49.4920,-0.24,0.05,0.08,0.25
2022-11-11 12:52:49.4950,-0.2,0.02,0.1,0.22
2022-11-11 12:52:49.5030,-0.07,0.03,-0.05,0.09
2022-11-11 12:52:49.5060,0.13,0.05,-0.16,0.21
2022-11-11 12:52:49.5180,0.35,0.12,-0.17,0.4
2022-11-11 12:52:49.5220,0.42,0.18,-0.15,0.48
2022-11-11 12:52:49.5330,0.26,0.16,-0.04,0.3
2022-11-11 12:52:49.5370,-0.06,0.08,0.12,0.15
2022-11-11 12:52:49.5500,-0.44,-0.01,0.14,0.46
2022-11-11 12:52:49.5540,-0.61,-0.03,0.15,0.62
2022-11-11 12:52:49.6030,-0.56,-0.01,0.01,0.56
2022-11-11 12:52:49.6070,-0.27,-0.05,-0.11,0.29
2022-11-11 12:52:49.6190,0.12,0.0,-0.16,0.2
2022-11-11 12:52:49.6230,0.43,0.13,-0.26,0.51
2022-11-11 12:52:49.6350,0.47,0.22,-0.29,0.59
2022-11-11 12:52:49.6380,0.31,0.23,-0.26,0.46
2022-11-11 12:52:49.6500,0.06,0.15,-0.13,0.2
2022-11-11 12:52:49.6540,-0.26,-0.01,-0.02,0.26
2022-11-11 12:52:49.6670,-0.53,-0.1,0.16,0.56
2022-11-11 12:52:49.6700,-0.6,-0.1,0.21,0.64
2022-11-11 12:52:49.7190,-0.53,-0.06,0.04,0.53
2022-11-11 12:52:49.7230,-0.3,0.03,-0.06,0.3
2022-11-11 12:52:49.7360,0.03,0.11,-0.12,0.16
2022-11-11 12:52:49.7390,0.27,0.1,-0.21,0.35
2022-11-11 12:52:49.7520,0.4,0.06,-0.12,0.42
2022-11-11 12:52:49.7550,0.32,0.05,0.01,0.32
2022-11-11 12:52:49.7670,0.05,0.04,0.06,0.08
2022-11-11 12:52:49.7700,-0.17,0.03,0.09,0.19
2022-11-11 12:52:49.7830,-0.22,0.03,0.14,0.26
2022-11-11 12:52:49.7870,-0.16,0.04,0.2,0.25
2022-11-11 12:52:49.8360,-0.14,0.05,0.13,0.19
2022-11-11 12:52:49.8390,-0.08,0.06,0.07,0.12
2022-11-11 12:52:49.8520,0.06,0.06,0.08,0.11
2022-11-11 12:52:49.8560,0.2,0.05,0.11,0.23
2022-11-11 12:52:49.8680,0.22,0.06,0.02,0.22
2022-11-11 12:52:49.8720,0.09,0.05,-0.04,0.11
2022-11-11 12:52:49.8840,-0.06,0.04,-0.04,0.08
2022-11-11 12:52:49.8870,-0.12,0.02,-0.02,0.12
2022-11-11 12:52:49.9000,-0.07,0.05,-0.1,0.13
2022-11-11 12:52:49.9030,0.04,0.07,-0.21,0.22
2022-11-11 12:52:49.9530,0.09,0.08,-0.28,0.3
2022-11-11 12:52:49.9560,0.13,0.13,-0.24,0.3
2022-11-11 12:52:49.9690,-0.01,0.1,-0.1,0.14
2022-11-11 12:52:49.9730,-0.2,0.07,-0.12,0.24
2022-11-11 12:52:49.9850,-0.16,0.13,-0.12,0.23
2022-11-11 12:52:49.9880,-0.04,0.13,-0.02,0.13
2022-11-11 12:52:50.0000,0.02,0.07,-0.04,0.08
2022-11-11 12:52:50.0030,0.02,-0.01,0.03,0.03
2022-11-11 12:52:50.0170,0.04,0.01,0.05,0.06
2022-11-11 12:52:50.0200,0.13,0.04,-0.02,0.13
2022-11-11 12:52:50.0700,0.17,0.04,-0.04,0.17
2022-11-11 12:52:50.0730,0.24,0.11,-0.05,0.26
2022-11-11 12:52:50.0850,0.24,0.1,0.01,0.26
2022-11-11 12:52:50.0890,0.1,0.04,0.1,0.14
2022-11-11 12:52:50.1010,0.01,0.03,-0.02,0.03
2022-11-11 12:52:50.1050,-0.02,0.02,-0.11,0.11
2022-11-11 12:52:50.1170,0.02,0.07,-0.12,0.14
2022-11-11 12:52:50.1200,0.14,0.13,-0.14,0.23
2022-11-11 12:52:50.1340,0.04,0.05,-0.04,0.07
2022-11-11 12:52:50.1370,-0.06,0.03,-0.03,0.07
2022-11-11 12:52:50.1880,-0.14,-0.02,-0.04,0.14
2022-11-11 12:52:50.1910,-0.14,0.03,-0.05,0.15
2022-11-11 12:52:50.2020,-0.07,0.14,-0.08,0.17
2022-11-11 12:52:50.2060,-0.12,0.19,-0.11,0.25
2022-11-11 12:52:50.2180,-0.27,0.19,0.0,0.33
2022-11-11 12:52:50.2210,-0.36,0.05,0.0,0.36
2022-11-11 12:52:50.2330,-0.26,-0.09,0.03,0.27
2022-11-11 12:52:50.2370,-0.22,-0.12,0.03,0.25
2022-11-11 12:52:50.2500,-0.24,-0.04,0.0,0.24
2022-11-11 12:52:50.2530,-0.15,0.09,-0.08,0.19
2022-11-11 12:52:50.3060,-0.06,0.14,-0.14,0.2
2022-11-11 12:52:50.3090,-0.11,0.03,-0.17,0.2
2022-11-11 12:52:50.3190,-0.07,-0.01,-0.19,0.2
2022-11-11 12:52:50.3220,0.02,0.09,-0.03,0.09
2022-11-11 12:52:50.3350,-0.03,0.21,-0.01,0.21
2022-11-11 12:52:50.3380,-0.12,0.19,0.1,0.24
2022-11-11 12:52:50.3500,-0.07,0.04,0.22,0.23
2022-11-11 12:52:50.3530,-0.03,-0.08,0.19,0.2
2022-11-11 12:52:50.3670,-0.05,-0.07,0.06,0.1
2022-11-11 12:52:50.3700,-0.09,-0.01,-0.05,0.1
2022-11-11 12:52:50.4230,-0.03,0.11,-0.15,0.18
2022-11-11 12:52:50.4270,0.09,0.17,-0.23,0.29
2022-11-11 12:52:50.4360,0.26,0.14,-0.28,0.4
2022-11-11 12:52:50.4390,0.36,0.1,-0.3,0.47
2022-11-11 12:52:50.4510,0.28,0.01,-0.27,0.38
2022-11-11 12:52:50.4550,0.21,0.02,-0.21,0.29
2022-11-11 12:52:50.4670,0.2,0.12,-0.08,0.24
2022-11-11 12:52:50.4700,0.21,0.22,-0.09,0.31
2022-11-11 12:52:50.4830,0.15,0.17,-0.15,0.27
2022-11-11 12:52:50.4870,0.05,0.02,-0.15,0.15
2022-11-11 12:52:50.5400,-0.04,-0.05,-0.07,0.09
2022-11-11 12:52:50.5430,-0.11,-0.04,-0.06,0.13
2022-11-11 12:52:50.5520,-0.19,-0.05,-0.09,0.21
2022-11-11 12:52:50.5560,-0.16,-0.03,-0.11,0.19
2022-11-11 12:52:50.5680,0.02,0.04,-0.12,0.12
2022-11-11 12:52:50.5720,0.17,0.09,-0.17,0.25
2022-11-11 12:52:50.5840,0.16,0.06,-0.16,0.23
2022-11-11 12:52:50.5870,0.09,0.06,-0.12,0.16
2022-11-11 12:52:50.6000,0.08,0.07,-0.11,0.15
2022-11-11 12:52:50.6030,0.12,0.03,-0.18,0.21
2022-11-11 12:52:50.6570,0.27,0.06,-0.21,0.34
2022-11-11 12:52:50.6600,0.41,0.17,-0.28,0.52
2022-11-11 12:52:50.6690,0.47,0.2,-0.34,0.61
2022-11-11 12:52:50.6730,0.43,0.13,-0.31,0.54
2022-11-11 12:52:50.6850,0.37,0.06,-0.22,0.43
2022-11-11 12:52:50.7890,-0.15,0.05,-0.11,0.19
2022-11-11 12:52:50.7930,-0.04,0.09,-0.11,0.14
2022-11-11 12:52:50.7960,0.09,0.09,-0.1,0.16
2022-11-11 12:52:50.8010,0.13,0.07,-0.1,0.17
2022-11-11 12:52:50.8570,0.07,0.08,-0.07,0.12
2022-11-11 12:52:50.8610,-0.03,0.07,-0.07,0.1
2022-11-11 12:52:50.8690,-0.05,0.06,-0.05,0.09
2022-11-11 12:52:50.8720,-0.06,0.06,-0.02,0.08
2022-11-11 12:52:50.8850,-0.07,0.05,-0.03,0.09
2022-11-11 12:52:50.8880,-0.01,0.05,-0.05,0.07
2022-11-11 12:52:50.9000,-0.08,0.0,-0.02,0.08
2022-11-11 12:52:50.9030,-0.07,-0.04,-0.04,0.09
2022-11-11 12:52:50.9170,-0.1,-0.06,-0.03,0.12
2022-11-11 12:52:50.9200,-0.15,-0.02,-0.04,0.15
2022-11-11 12:52:50.9750,-0.15,0.05,-0.03,0.16
2022-11-11 12:52:50.9780,-0.09,0.08,0.01,0.12
2022-11-11 12:52:50.9860,-0.06,0.05,0.02,0.08
2022-11-11 12:52:50.9890,-0.07,0.02,0.01,0.07
2022-11-11 12:52:51.0010,-0.11,0.03,0.03,0.11
2022-11-11 12:52:51.0050,-0.16,0.05,0.05,0.17
2022-11-11 12:52:51.0170,-0.16,0.03,0.02,0.16
2022-11-11 12:52:51.0200,-0.12,0.04,-0.01,0.12
2022-11-11 12:52:51.0330,-0.05,0.07,-0.01,0.08
2022-11-11 12:52:51.0360,-0.02,0.08,-0.02,0.08
2022-11-11 12:52:51.0500,-0.02,0.08,-0.01,0.08
2022-11-11 12:52:51.1040,-0.04,0.02,-0.01,0.04
2022-11-11 12:52:51.1080,-0.1,0.02,-0.01,0.1
2022-11-11 12:52:51.1110,-0.14,0.06,0.01,0.15
2022-11-11 12:52:51.1180,-0.1,0.08,0.02,0.12
2022-11-11 12:52:51.1220,-0.04,0.07,0.03,0.08
2022-11-11 12:52:51.1350,-0.03,0.04,0.01,0.05
2022-11-11 12:52:51.1380,-0.03,0.04,0.03,0.05
2022-11-11 12:52:51.1500,-0.06,0.06,0.04,0.09
2022-11-11 12:52:51.1530,-0.08,0.09,0.03,0.12
2022-11-11 12:52:51.2100,-0.07,0.07,0.02,0.1
2022-11-11 12:52:51.2130,-0.05,0.01,-0.01,0.05
2022-11-11 12:52:51.2190,-0.03,-0.03,-0.02,0.04
2022-11-11 12:52:51.2230,-0.03,0.0,-0.05,0.05
2022-11-11 12:52:51.2350,-0.02,0.05,-0.05,0.07
2022-11-11 12:52:51.2380,0.0,0.1,-0.03,0.1
2022-11-11 12:52:51.2500,0.04,0.1,-0.05,0.11
2022-11-11 12:52:51.2540,0.06,0.07,-0.04,0.1
2022-11-11 12:52:51.2670,0.06,0.05,-0.03,0.08
2022-11-11 12:52:51.2700,0.03,0.03,-0.03,0.05
2022-11-11 12:52:51.3300,0.03,0.03,0.02,0.04
2022-11-11 12:52:51.3340,0.03,0.05,0.02,0.06
2022-11-11 12:52:51.3390,0.02,0.07,0.01,0.07
2022-11-11 12:52:51.3520,-0.01,0.05,0.0,0.05
2022-11-11 12:52:51.3550,-0.02,0.03,0.0,0.03
2022-11-11 12:52:51.3670,0.0,0.02,-0.02,0.02
2022-11-11 12:52:51.3710,0.0,0.02,-0.01,0.02
2022-11-11 12:52:51.3740,-0.01,0.06,0.0,0.06
2022-11-11 12:52:51.3840,-0.02,0.06,-0.02,0.06
2022-11-11 12:52:51.3870,-0.02,0.04,-0.01,0.04
2022-11-11 12:52:51.4460,-0.02,0.05,-0.02,0.05
2022-11-11 12:52:51.4510,0.01,0.07,0.01,0.07
2022-11-11 12:52:51.4550,0.02,0.07,0.03,0.07
2022-11-11 12:52:51.4680,-0.02,0.03,0.02,0.04
2022-11-11 12:52:51.4720,-0.06,0.02,0.04,0.07
2022-11-11 12:52:51.4850,-0.1,0.03,0.03,0.1
2022-11-11 12:52:51.4880,-0.15,0.03,-0.02,0.15
2022-11-11 12:52:51.5010,-0.11,0.05,-0.03,0.12
2022-11-11 12:52:51.5040,-0.02,0.08,0.0,0.08
2022-11-11 12:52:51.5170,0.01,0.04,0.02,0.04
2022-11-11 12:52:51.5750,0.0,0.0,0.04,0.04
2022-11-11 12:52:51.5780,-0.02,-0.02,0.03,0.04
2022-11-11 12:52:51.5860,-0.06,-0.01,0.02,0.06
2022-11-11 12:52:51.5890,-0.1,0.02,0.04,0.1
2022-11-11 12:52:51.6010,-0.12,0.06,0.05,0.14
2022-11-11 12:52:51.6050,-0.17,0.07,0.04,0.18
2022-11-11 12:52:51.6170,-0.17,0.06,0.02,0.18
2022-11-11 12:52:51.6190,-0.09,0.06,0.02,0.1
2022-11-11 12:52:51.6220,-0.05,0.06,0.0,0.07
2022-11-11 12:52:51.6330,-0.01,0.06,0.0,0.06
2022-11-11 12:52:51.6910,0.01,0.06,0.01,0.06
2022-11-11 12:52:51.6940,0.0,0.07,0.0,0.07
2022-11-11 12:52:51.7010,-0.02,0.03,0.01,0.03
2022-11-11 12:52:51.7050,-0.03,-0.01,0.02,0.03
2022-11-11 12:52:51.7180,-0.06,-0.02,0.02,0.06
2022-11-11 12:52:51.7210,-0.12,0.01,0.03,0.12
2022-11-11 12:52:51.7330,-0.12,0.02,0.03,0.12
2022-11-11 12:52:51.7360,-0.11,0.04,0.01,0.11
2022-11-11 12:52:51.7500,-0.11,0.03,0.01,0.11
2022-11-11 12:52:51.7520,-0.11,0.02,-0.01,0.11
2022-11-11 12:52:51.8120,-0.07,0.03,0.0,0.07
2022-11-11 12:52:51.8160,-0.02,0.08,0.01,0.08
2022-11-11 12:52:51.8210,0.03,0.11,0.01,0.11
2022-11-11 12:52:51.8350,0.04,0.09,0.0,0.09
2022-11-11 12:52:51.8380,0.02,0.04,0.01,0.04
2022-11-11 12:52:51.8500,-0.03,-0.01,0.01,0.03
2022-11-11 12:52:51.8540,-0.09,-0.01,0.01,0.09
2022-11-11 12:52:51.8670,-0.08,0.02,0.02,0.08
2022-11-11 12:52:51.8710,-0.04,0.08,0.07,0.11
2022-11-11 12:52:51.8840,-0.01,0.11,0.08,0.13
2022-11-11 12:52:51.9450,-0.02,0.11,0.07,0.13
2022-11-11 12:52:51.9490,-0.1,0.1,0.05,0.15
2022-11-11 12:52:51.9540,-0.18,0.1,0.01,0.2
2022-11-11 12:52:51.9680,-0.16,0.07,-0.01,0.17
2022-11-11 12:52:51.9720,-0.11,0.01,0.01,0.11
2022-11-11 12:52:51.9840,-0.07,0.0,0.02,0.07
2022-11-11 12:52:51.9880,-0.08,0.02,0.01,0.08
2022-11-11 12:52:52.0000,-0.15,0.05,-0.02,0.15
2022-11-11 12:52:52.0040,-0.2,0.05,0.0,0.2
2022-11-11 12:52:52.0170,-0.2,-0.03,0.04,0.2
2022-11-11 12:52:52.0790,-0.09,-0.03,0.02,0.09
2022-11-11 12:52:52.0840,0.01,0.01,-0.02,0.02
2022-11-11 12:52:52.0890,0.02,0.03,-0.07,0.07
2022-11-11 12:52:52.1010,-0.03,0.03,-0.1,0.1
2022-11-11 12:52:52.1050,-0.06,0.04,-0.07,0.1
2022-11-11 12:52:52.1170,-0.01,0.05,-0.06,0.07
2022-11-11 12:52:52.1200,0.09,0.05,-0.07,0.12
2022-11-11 12:52:52.1330,0.09,0.04,-0.08,0.12
2022-11-11 12:52:52.1360,0.01,0.04,-0.11,0.11
2022-11-11 12:52:52.1500,-0.06,0.08,-0.12,0.15
2022-11-11 12:52:52.2150,-0.03,0.13,-0.1,0.16
2022-11-11 12:52:52.2190,0.05,0.13,-0.09,0.16
2022-11-11 12:52:52.2220,0.1,0.07,-0.11,0.16
2022-11-11 12:52:52.2350,0.07,0.02,-0.08,0.1
2022-11-11 12:52:52.2380,0.01,0.0,-0.08,0.08
2022-11-11 12:52:52.2500,0.0,-0.01,-0.1,0.1
2022-11-11 12:52:52.2540,-0.02,-0.06,-0.1,0.11
2022-11-11 12:52:52.2670,-0.03,-0.08,-0.1,0.13
2022-11-11 12:52:52.2700,0.0,-0.06,-0.09,0.1
2022-11-11 12:52:52.2840,0.01,0.03,-0.07,0.07
2022-11-11 12:52:52.3490,0.03,0.13,-0.03,0.13
2022-11-11 12:52:52.3520,0.06,0.19,0.03,0.2
2022-11-11 12:52:52.3690,0.06,0.17,0.06,0.19
2022-11-11 12:52:52.3730,0.05,0.09,0.05,0.11
2022-11-11 12:52:52.3860,0.04,0.03,0.03,0.05
2022-11-11 12:52:52.3900,0.02,0.04,0.03,0.05
2022-11-11 12:52:52.4000,-0.03,0.04,0.01,0.05
2022-11-11 12:52:52.4030,-0.05,0.05,0.04,0.08
2022-11-11 12:52:52.4160,-0.05,0.05,0.06,0.09
2022-11-11 12:52:52.4190,-0.01,0.03,0.06,0.06
2022-11-11 12:52:52.4830,0.03,0.04,0.07,0.08
2022-11-11 12:52:52.4870,0.02,0.06,0.04,0.07
2022-11-11 12:52:52.5020,0.01,0.06,0.03,0.06
2022-11-11 12:52:52.5060,-0.02,0.05,0.04,0.06
2022-11-11 12:52:52.5190,-0.06,0.06,0.05,0.09
2022-11-11 12:52:52.5220,-0.1,0.08,0.07,0.14
2022-11-11 12:52:52.5340,-0.12,0.07,0.08,0.16
2022-11-11 12:52:52.5370,-0.15,0.05,0.08,0.17
2022-11-11 12:52:52.5500,-0.2,0.04,0.07,0.21
2022-11-11 12:52:52.5540,-0.18,0.04,0.06,0.19
2022-11-11 12:52:52.6190,-0.12,0.04,0.03,0.13
2022-11-11 12:52:52.6230,-0.08,0.01,0.0,0.08
2022-11-11 12:52:52.6370,-0.02,0.01,0.01,0.02
2022-11-11 12:52:52.6410,0.01,0.04,0.03,0.05
2022-11-11 12:52:52.6690,0.01,0.05,0.05,0.07
2022-11-11 12:52:52.6720,-0.01,0.05,0.08,0.09
2022-11-11 12:52:52.6840,-0.05,0.05,0.08,0.1
2022-11-11 12:52:52.6870,-0.05,0.05,0.06,0.09
2022-11-11 12:52:52.7000,0.02,0.07,0.05,0.08
2022-11-11 12:52:52.7040,0.07,0.06,0.04,0.1
2022-11-11 12:52:52.7700,0.07,0.03,0.03,0.08
2022-11-11 12:52:52.7730,0.01,0.04,0.02,0.04
2022-11-11 12:52:52.7870,-0.02,0.06,0.02,0.06
2022-11-11 12:52:52.7900,-0.04,0.08,0.02,0.09
2022-11-11 12:52:52.8180,-0.05,0.09,0.02,0.1
2022-11-11 12:52:52.8220,-0.04,0.08,0.0,0.08
2022-11-11 12:52:52.8340,-0.03,0.07,-0.04,0.08
2022-11-11 12:52:52.8370,-0.03,0.06,-0.03,0.07
2022-11-11 12:52:52.8500,-0.02,0.02,-0.02,0.03
2022-11-11 12:52:52.8530,-0.01,-0.01,-0.02,0.02
2022-11-11 12:52:52.9200,-0.03,-0.02,-0.03,0.04
2022-11-11 12:52:52.9240,-0.05,0.0,-0.02,0.05
2022-11-11 12:52:52.9370,-0.03,0.03,-0.01,0.04
2022-11-11 12:52:52.9410,-0.02,0.01,-0.02,0.03
2022-11-11 12:52:52.9690,-0.02,-0.01,-0.05,0.05
2022-11-11 12:52:52.9730,-0.03,0.01,-0.04,0.05
2022-11-11 12:52:52.9840,-0.04,0.05,-0.01,0.06
2022-11-11 12:52:52.9870,-0.03,0.1,0.01,0.1
2022-11-11 12:52:53.0000,0.01,0.12,0.01,0.12
2022-11-11 12:52:53.0040,0.0,0.1,0.01,0.1
2022-11-11 12:52:53.0700,0.0,0.06,0.03,0.06
2022-11-11 12:52:53.0740,-0.02,0.01,0.01,0.02
2022-11-11 12:52:53.0870,-0.01,0.01,0.01,0.01
2022-11-11 12:52:53.0910,-0.02,0.05,0.0,0.05
2022-11-11 12:52:53.1190,-0.04,0.07,-0.01,0.08
2022-11-11 12:52:53.1220,-0.07,0.09,-0.01,0.11
2022-11-11 12:52:53.1340,-0.08,0.1,0.0,0.12
2022-11-11 12:52:53.1370,-0.04,0.08,0.01,0.09
2022-11-11 12:52:53.1500,0.0,0.03,-0.01,0.03
2022-11-11 12:52:53.1540,0.01,0.0,-0.01,0.01
2022-11-11 12:52:53.2220,-0.04,-0.01,0.01,0.04
2022-11-11 12:52:53.2250,-0.1,-0.02,-0.02,0.1
2022-11-11 12:52:53.2370,-0.12,0.0,-0.03,0.12
2022-11-11 12:52:53.2400,-0.11,0.0,-0.02,0.11
2022-11-11 12:52:53.2690,-0.1,0.02,-0.02,0.1
2022-11-11 12:52:53.2720,-0.08,0.04,-0.02,0.09
2022-11-11 12:52:53.2830,-0.05,0.06,-0.01,0.07
2022-11-11 12:52:53.2870,-0.01,0.08,0.02,0.08
2022-11-11 12:52:53.3000,0.0,0.1,0.02,0.1
2022-11-11 12:52:53.3040,0.01,0.09,0.03,0.09
2022-11-11 12:52:53.3730,-0.01,0.06,0.05,0.07
2022-11-11 12:52:53.3760,-0.02,0.0,0.04,0.04
2022-11-11 12:52:53.3860,0.0,-0.02,0.04,0.04
2022-11-11 12:52:53.3890,0.0,0.01,0.02,0.02
2022-11-11 12:52:53.4010,0.02,0.06,0.03,0.06
2022-11-11 12:52:53.4060,0.06,0.07,0.03,0.09
2022-11-11 12:52:53.4170,0.07,0.06,0.03,0.09
2022-11-11 12:52:53.4200,0.04,0.05,0.03,0.07
2022-11-11 12:52:53.4330,-0.03,0.05,0.03,0.06
2022-11-11 12:52:53.4370,-0.09,0.08,0.02,0.12
2022-11-11 12:52:53.5060,-0.08,0.11,0.0,0.13
2022-11-11 12:52:53.5090,-0.05,0.09,-0.02,0.1
2022-11-11 12:52:53.5190,-0.02,0.05,-0.03,0.06
2022-11-11 12:52:53.5230,0.02,0.01,-0.03,0.03
2022-11-11 12:52:53.5350,0.04,0.02,-0.03,0.05
2022-11-11 12:52:53.5390,0.05,0.04,0.01,0.06
2022-11-11 12:52:53.5510,0.04,0.06,0.03,0.07
2022-11-11 12:52:53.5540,0.02,0.08,0.02,0.08
2022-11-11 12:52:53.5670,0.03,0.09,0.01,0.09
2022-11-11 12:52:53.5710,0.05,0.08,0.0,0.09
2022-11-11 12:52:53.6400,0.03,0.08,-0.01,0.08
2022-11-11 12:52:53.6440,0.01,0.08,-0.02,0.08
2022-11-11 12:52:53.6520,0.01,0.09,-0.01,0.09
2022-11-11 12:52:53.6550,0.01,0.09,0.0,0.09
2022-11-11 12:52:53.6670,-0.01,0.06,-0.04,0.07
2022-11-11 12:52:53.6720,0.0,0.08,-0.06,0.1
2022-11-11 12:52:53.6840,0.01,0.07,-0.05,0.08
2022-11-11 12:52:53.6870,0.01,0.02,-0.07,0.07
2022-11-11 12:52:53.7000,-0.03,0.01,-0.1,0.1
2022-11-11 12:52:53.7040,-0.04,0.05,-0.08,0.1
2022-11-11 12:52:53.7760,-0.06,0.07,-0.07,0.11
2022-11-11 12:52:53.7790,-0.05,0.0,-0.12,0.13
2022-11-11 12:52:53.7860,-0.01,-0.07,-0.19,0.2
2022-11-11 12:52:53.7900,0.04,-0.05,-0.18,0.19
2022-11-11 12:52:53.8180,0.08,0.01,-0.17,0.18
2022-11-11 12:52:53.8220,0.09,0.02,-0.15,0.17
2022-11-11 12:52:53.8340,0.03,-0.01,-0.09,0.09
2022-11-11 12:52:53.8380,-0.06,0.0,-0.07,0.09
2022-11-11 12:52:53.8500,-0.08,0.06,-0.03,0.1
2022-11-11 12:52:53.8540,-0.05,0.11,-0.02,0.12
2022-11-11 12:52:53.9250,-0.07,0.08,-0.01,0.1
2022-11-11 12:52:53.9290,-0.08,0.03,-0.01,0.08
2022-11-11 12:52:53.9360,-0.07,0.02,-0.02,0.07
2022-11-11 12:52:53.9390,-0.04,0.04,-0.02,0.06
2022-11-11 12:52:53.9680,-0.03,0.06,-0.02,0.06
2022-11-11 12:52:53.9720,-0.04,0.06,-0.04,0.08
2022-11-11 12:52:53.9830,-0.01,0.06,-0.04,0.07
2022-11-11 12:52:53.9860,0.02,0.06,-0.04,0.07
2022-11-11 12:52:54.0000,0.01,0.09,-0.05,0.1
2022-11-11 12:52:54.0030,-0.03,0.11,-0.02,0.11
2022-11-11 12:52:54.0750,-0.04,0.02,-0.06,0.07
2022-11-11 12:52:54.0790,0.04,-0.13,-0.14,0.19
2022-11-11 12:52:54.0870,0.13,-0.1,-0.16,0.22
2022-11-11 12:52:54.0900,0.16,0.03,-0.18,0.24
2022-11-11 12:52:54.1180,0.19,0.11,-0.17,0.27
2022-11-11 12:52:54.1220,0.23,0.09,-0.17,0.29
2022-11-11 12:52:54.1340,0.24,0.06,-0.13,0.27
2022-11-11 12:52:54.1380,0.21,0.07,-0.06,0.22
2022-11-11 12:52:54.1500,0.18,0.03,-0.05,0.18
2022-11-11 12:52:54.1540,0.13,-0.1,-0.1,0.19
2022-11-11 12:52:54.2260,0.03,-0.16,-0.06,0.17
2022-11-11 12:52:54.2290,-0.09,-0.04,0.02,0.1
2022-11-11 12:52:54.2360,-0.15,0.07,0.0,0.16
2022-11-11 12:52:54.2400,-0.13,0.11,-0.03,0.17
2022-11-11 12:52:54.2680,-0.1,0.09,-0.07,0.15
2022-11-11 12:52:54.2720,-0.05,0.09,-0.09,0.13
2022-11-11 12:52:54.2840,-0.04,0.13,-0.08,0.15
2022-11-11 12:52:54.2870,-0.03,0.15,-0.11,0.18
2022-11-11 12:52:54.3000,0.03,0.05,-0.14,0.15
2022-11-11 12:52:54.3040,0.04,-0.08,-0.14,0.16
2022-11-11 12:52:54.3830,-0.03,-0.13,-0.11,0.17
2022-11-11 12:52:54.3860,-0.1,-0.21,-0.13,0.26
2022-11-11 12:52:54.4030,-0.15,-0.26,-0.13,0.32
2022-11-11 12:52:54.4060,-0.1,-0.09,-0.01,0.13
2022-11-11 12:52:54.4180,0.05,0.19,0.14,0.24
2022-11-11 12:52:54.4220,0.18,0.36,0.23,0.46
2022-11-11 12:52:54.4340,0.25,0.37,0.26,0.51
2022-11-11 12:52:54.4370,0.24,0.3,0.21,0.43
2022-11-11 12:52:54.4500,0.18,0.3,0.13,0.37
2022-11-11 12:52:54.4540,0.13,0.26,0.01,0.29
2022-11-11 12:52:54.5270,0.06,0.11,-0.13,0.18
2022-11-11 12:52:54.5320,0.0,-0.09,-0.23,0.24
2022-11-11 12:52:54.5370,-0.07,-0.11,-0.28,0.3
2022-11-11 12:52:54.5520,-0.11,0.04,-0.2,0.23
2022-11-11 12:52:54.5560,-0.07,0.18,-0.07,0.2
2022-11-11 12:52:54.5670,-0.02,0.22,-0.01,0.22
2022-11-11 12:52:54.5700,0.0,0.16,0.02,0.16
2022-11-11 12:52:54.5840,0.03,0.07,0.05,0.09
2022-11-11 12:52:54.5880,0.04,-0.15,0.0,0.15
2022-11-11 12:52:54.6010,-0.08,-0.3,-0.15,0.34
2022-11-11 12:52:54.6750,-0.25,-0.14,-0.19,0.34
2022-11-11 12:52:54.6790,-0.32,0.18,-0.15,0.39
2022-11-11 12:52:54.6870,-0.3,0.31,-0.1,0.44
2022-11-11 12:52:54.6910,-0.26,0.18,0.01,0.31
2022-11-11 12:52:54.7190,-0.16,-0.03,0.14,0.21
2022-11-11 12:52:54.7220,-0.08,-0.11,0.15,0.2
2022-11-11 12:52:54.7340,-0.04,-0.05,0.12,0.13
2022-11-11 12:52:54.7380,-0.04,0.06,0.14,0.15
2022-11-11 12:52:54.7500,-0.03,0.08,0.19,0.2
2022-11-11 12:52:54.7540,-0.03,-0.06,0.22,0.23
2022-11-11 12:52:54.8290,-0.08,-0.21,0.15,0.27
2022-11-11 12:52:54.8330,-0.18,-0.23,0.1,0.3
2022-11-11 12:52:54.8530,-0.27,-0.12,0.12,0.31
2022-11-11 12:52:54.8570,-0.32,0.0,0.14,0.34
2022-11-11 12:52:54.8690,-0.32,0.07,0.16,0.36
2022-11-11 12:52:54.8730,-0.27,0.1,0.17,0.33
2022-11-11 12:52:54.8840,-0.18,0.05,0.15,0.23
2022-11-11 12:52:54.8870,-0.12,-0.13,0.12,0.21
2022-11-11 12:52:54.9000,-0.19,-0.32,0.06,0.37
2022-11-11 12:52:54.9040,-0.4,-0.31,0.02,0.5
2022-11-11 12:52:54.9810,-0.64,-0.16,-0.01,0.65
2022-11-11 12:52:54.9850,-0.8,0.0,-0.05,0.8
2022-11-11 12:52:55.0030,-0.91,0.04,-0.08,0.91
2022-11-11 12:52:55.0070,-0.99,0.03,-0.14,1.0
2022-11-11 12:52:55.0190,-0.95,0.0,-0.23,0.97
2022-11-11 12:52:55.0220,-0.82,-0.02,-0.23,0.85
2022-11-11 12:52:55.0340,-0.68,-0.01,-0.2,0.7
2022-11-11 12:52:55.0380,-0.57,0.02,-0.14,0.58
2022-11-11 12:52:55.0510,-0.44,0.05,-0.06,0.44
2022-11-11 12:52:55.0540,-0.35,0.07,0.03,0.35
2022-11-11 12:52:55.1310,-0.27,0.04,0.03,0.27
2022-11-11 12:52:55.1340,-0.26,-0.12,-0.01,0.28
2022-11-11 12:52:55.1530,-0.37,-0.27,-0.05,0.46
2022-11-11 12:52:55.1570,-0.56,-0.32,-0.08,0.64
2022-11-11 12:52:55.1690,-0.69,-0.27,-0.09,0.74
2022-11-11 12:52:55.1730,-0.69,-0.2,-0.01,0.71
2022-11-11 12:52:55.1840,-0.54,-0.14,0.08,0.56
2022-11-11 12:52:55.1880,-0.24,-0.1,0.14,0.29
2022-11-11 12:52:55.2000,0.1,-0.09,0.12,0.18
2022-11-11 12:52:55.2040,0.31,-0.13,0.08,0.34
2022-11-11 12:52:55.2820,0.35,-0.15,0.07,0.38
2022-11-11 12:52:55.2860,0.24,-0.14,0.02,0.27
2022-11-11 12:52:55.3030,0.05,-0.04,-0.12,0.13
2022-11-11 12:52:55.3060,-0.12,0.13,-0.31,0.35
2022-11-11 12:52:55.3190,-0.1,0.28,-0.45,0.53
2022-11-11 12:52:55.3230,0.13,0.3,-0.5,0.59
2022-11-11 12:52:55.3340,0.53,0.19,-0.46,0.72
2022-11-11 12:52:55.3370,0.95,0.12,-0.36,1.02
2022-11-11 12:52:55.3510,1.31,0.14,-0.22,1.33
2022-11-11 12:52:55.4190,-0.01,-0.23,-0.16,0.28
2022-11-11 12:52:55.4220,-0.26,-0.26,0.03,0.36
2022-11-11 12:52:55.4360,-0.06,-0.13,0.1,0.17
2022-11-11 12:52:55.4400,0.15,0.3,0.1,0.35
2022-11-11 12:52:55.4520,0.29,0.5,0.09,0.58
2022-11-11 12:52:55.4560,0.42,0.44,0.12,0.62
2022-11-11 12:52:55.4670,0.34,0.39,0.04,0.51
2022-11-11 12:52:55.4710,0.05,0.21,-0.01,0.21
2022-11-11 12:52:55.4840,-0.04,0.15,0.07,0.17
2022-11-11 12:52:55.5510,0.0,0.15,0.1,0.18
2022-11-11 12:52:55.5540,0.04,0.06,0.08,0.1
2022-11-11 12:52:55.5700,-0.01,-0.22,-0.02,0.22
2022-11-11 12:52:55.5740,-0.12,-0.44,-0.1,0.46
2022-11-11 12:52:55.5850,-0.14,-0.4,-0.09,0.43
2022-11-11 12:52:55.5890,-0.07,-0.2,0.0,0.21
2022-11-11 12:52:55.6010,0.1,0.02,0.16,0.18
2022-11-11 12:52:55.6040,0.31,0.22,0.07,0.38
2022-11-11 12:52:55.6170,0.58,0.51,-0.05,0.77
2022-11-11 12:52:55.6210,0.12,0.46,0.14,0.49
2022-11-11 12:52:55.6870,-0.53,0.35,0.21,0.66
2022-11-11 12:52:55.6900,-0.39,0.15,0.05,0.42
2022-11-11 12:52:55.7040,-0.28,-0.35,0.11,0.46
2022-11-11 12:52:55.7080,-0.27,-0.48,0.22,0.59
2022-11-11 12:52:55.7350,-0.09,-0.17,0.03,0.19
2022-11-11 12:52:55.7390,0.07,0.1,0.24,0.26
2022-11-11 12:52:55.7510,0.01,0.27,0.09,0.28
2022-11-11 12:52:55.7540,-0.08,0.16,-0.17,0.24
2022-11-11 12:52:55.7670,-0.41,-0.15,-0.06,0.44
2022-11-11 12:52:55.7710,-0.38,-0.3,-0.18,0.51
2022-11-11 12:52:55.8390,-0.22,-0.24,-0.17,0.36
2022-11-11 12:52:55.8420,-0.01,-0.12,-0.14,0.18
2022-11-11 12:52:55.8540,0.07,-0.07,-0.15,0.17
2022-11-11 12:52:55.8570,-0.02,-0.05,-0.13,0.14
2022-11-11 12:52:55.8860,-0.08,-0.08,-0.02,0.11
2022-11-11 12:52:55.8900,0.01,0.0,0.11,0.11
2022-11-11 12:52:55.9000,0.07,0.17,0.15,0.23
2022-11-11 12:52:55.9040,-0.02,0.22,0.19,0.29
2022-11-11 12:52:55.9170,-0.09,0.22,0.15,0.28
2022-11-11 12:52:55.9200,-0.11,0.14,0.08,0.19
2022-11-11 12:52:55.9890,-0.02,0.1,0.03,0.1
2022-11-11 12:52:55.9930,0.12,0.04,-0.02,0.12
2022-11-11 12:52:56.0030,0.11,0.0,0.0,0.11
2022-11-11 12:52:56.0060,-0.05,0.01,0.02,0.05
2022-11-11 12:52:56.0190,-0.04,0.05,0.03,0.07
2022-11-11 12:52:56.0230,0.08,0.0,0.02,0.08
2022-11-11 12:52:56.0340,0.06,-0.02,0.02,0.06
2022-11-11 12:52:56.0370,0.01,-0.04,0.01,0.04
2022-11-11 12:52:56.0510,-0.01,-0.07,-0.02,0.07
2022-11-11 12:52:56.0540,-0.01,0.03,-0.09,0.09
2022-11-11 12:52:56.1210,0.03,0.27,-0.05,0.27
2022-11-11 12:52:56.1240,-0.1,0.25,0.03,0.27
2022-11-11 12:52:56.1360,-0.23,0.07,-0.03,0.24
2022-11-11 12:52:56.1400,-0.24,-0.16,-0.05,0.29
2022-11-11 12:52:56.1520,-0.08,-0.34,-0.07,0.35
2022-11-11 12:52:56.1570,-0.04,-0.29,-0.1,0.3
2022-11-11 12:52:56.1670,-0.09,0.15,-0.04,0.17
2022-11-11 12:52:56.1710,-0.21,0.16,-0.16,0.3
2022-11-11 12:52:56.1840,-0.25,0.07,-0.02,0.26
2022-11-11 12:52:56.1880,-0.47,-0.17,0.19,0.53
2022-11-11 12:52:56.2550,-0.59,-0.38,0.21,0.73
2022-11-11 12:52:56.2580,-0.14,-0.05,0.27,0.3
2022-11-11 12:52:56.2690,0.21,0.13,0.24,0.34
2022-11-11 12:52:56.2730,0.37,0.3,0.23,0.52
2022-11-11 12:52:56.2860,0.46,0.26,0.11,0.53
2022-11-11 12:52:56.2900,0.43,0.04,0.05,0.43
2022-11-11 12:52:56.3010,0.36,-0.11,0.1,0.38
2022-11-11 12:52:56.3040,0.16,-0.05,0.11,0.2
2022-11-11 12:52:56.3170,-0.02,0.04,0.04,0.06
2022-11-11 12:52:56.3210,-0.27,0.0,-0.07,0.27
2022-11-11 12:52:56.3890,-0.52,0.19,-0.04,0.55
2022-11-11 12:52:56.3930,-0.03,0.39,-0.05,0.39
2022-11-11 12:52:56.4040,0.47,0.11,0.08,0.48
2022-11-11 12:52:56.4080,0.27,-0.25,0.17,0.4
2022-11-11 12:52:56.4360,-0.08,-0.28,0.2,0.35
2022-11-11 12:52:56.4390,-0.31,-0.19,0.33,0.49
2022-11-11 12:52:56.4510,-0.11,-0.01,0.3,0.31
2022-11-11 12:52:56.4540,0.04,0.0,0.15,0.15
2022-11-11 12:52:56.4670,-0.05,-0.05,0.0,0.07
2022-11-11 12:52:56.4710,-0.18,-0.02,-0.08,0.19
2022-11-11 12:52:56.5390,-0.21,0.05,-0.06,0.22
2022-11-11 12:52:56.5420,-0.02,0.05,0.05,0.07
2022-11-11 12:52:56.5540,0.38,0.15,0.03,0.4
2022-11-11 12:52:56.5570,0.61,0.43,0.03,0.74
2022-11-11 12:52:56.5850,0.69,0.61,0.1,0.92
2022-11-11 12:52:56.5890,0.68,0.41,0.05,0.79
2022-11-11 12:52:56.6000,0.45,-0.01,0.01,0.45
2022-11-11 12:52:56.6050,0.09,-0.37,-0.03,0.38
2022-11-11 12:52:56.6170,-0.29,-0.53,-0.11,0.61
2022-11-11 12:52:56.6210,-0.58,-0.54,-0.09,0.79
2022-11-11 12:52:56.6870,-0.74,-0.3,0.0,0.79
2022-11-11 12:52:56.6910,-0.99,0.36,0.0,1.05
2022-11-11 12:52:56.7020,-0.55,0.52,0.21,0.78
2022-11-11 12:52:56.7060,-0.02,0.35,0.15,0.38
2022-11-11 12:52:56.7190,0.14,0.01,-0.06,0.15
2022-11-11 12:52:56.7230,-0.06,-0.36,-0.2,0.41
2022-11-11 12:52:56.7340,-0.21,-0.46,-0.3,0.58
2022-11-11 12:52:56.7380,-0.26,-0.31,-0.26,0.48
2022-11-11 12:52:56.7510,-0.49,-0.16,-0.01,0.51
2022-11-11 12:52:56.7550,-0.55,0.04,0.09,0.55
2022-11-11 12:52:56.8210,-0.17,0.21,0.16,0.31
2022-11-11 12:52:56.8250,0.17,0.19,0.17,0.3
2022-11-11 12:52:56.8360,0.29,0.06,0.05,0.3
2022-11-11 12:52:56.8390,0.12,-0.09,-0.06,0.16
2022-11-11 12:52:56.8520,-0.22,-0.16,-0.01,0.27
2022-11-11 12:52:56.8550,-0.47,-0.14,0.03,0.49
2022-11-11 12:52:56.8670,-0.62,-0.1,0.09,0.63
2022-11-11 12:52:56.8700,-0.54,0.0,0.06,0.54
2022-11-11 12:52:56.8840,-0.24,0.03,-0.07,0.25
2022-11-11 12:52:56.8870,-0.02,-0.06,-0.14,0.15
2022-11-11 12:52:56.9530,-0.04,-0.1,-0.07,0.12
2022-11-11 12:52:56.9560,-0.29,-0.05,-0.03,0.29
2022-11-11 12:52:56.9700,-0.47,0.06,0.03,0.47
2022-11-11 12:52:56.9730,-0.43,0.05,0.07,0.43
2022-11-11 12:52:56.9850,-0.11,0.13,-0.05,0.17
2022-11-11 12:52:56.9890,0.34,0.29,-0.06,0.45
2022-11-11 12:52:57.0010,0.84,0.1,-0.01,0.84
2022-11-11 12:52:57.0040,0.81,-0.16,-0.16,0.84
2022-11-11 12:52:57.0170,0.21,-0.13,0.0,0.24
2022-11-11 12:52:57.0200,0.02,0.22,0.04,0.22
2022-11-11 12:52:57.0850,0.1,0.21,-0.02,0.23
2022-11-11 12:52:57.0890,-0.13,0.09,0.07,0.17
2022-11-11 12:52:57.1030,0.09,-0.17,-0.12,0.22
2022-11-11 12:52:57.1060,0.07,-0.33,0.0,0.33
2022-11-11 12:52:57.1190,-0.15,-0.28,0.1,0.33
2022-11-11 12:52:57.1220,-0.11,-0.1,0.26,0.29
2022-11-11 12:52:57.1340,0.07,0.12,0.3,0.33
2022-11-11 12:52:57.1370,0.22,0.24,0.24,0.4
2022-11-11 12:52:57.1500,0.13,0.26,0.17,0.33
2022-11-11 12:52:57.1540,-0.09,0.23,0.04,0.25
2022-11-11 12:52:57.2200,-0.33,0.1,0.09,0.35
2022-11-11 12:52:57.2230,-0.78,-0.32,-0.1,0.84
2022-11-11 12:52:57.2360,-0.86,-0.47,0.05,0.98
2022-11-11 12:52:57.2390,0.09,0.27,0.24,0.37
2022-11-11 12:52:57.2520,0.34,0.31,-0.01,0.46
2022-11-11 12:52:57.2560,0.23,0.26,-0.02,0.34
2022-11-11 12:52:57.2670,0.03,0.14,-0.07,0.15
2022-11-11 12:52:57.2710,-0.12,-0.12,0.03,0.17
2022-11-11 12:52:57.2840,-0.1,-0.26,0.1,0.29
2022-11-11 12:52:57.2870,-0.03,-0.17,0.14,0.22
2022-11-11 12:52:57.3540,0.03,0.01,0.1,0.1
2022-11-11 12:52:57.3580,0.03,0.08,-0.1,0.13
2022-11-11 12:52:57.3690,-0.09,0.0,-0.24,0.25
2022-11-11 12:52:57.3730,-0.07,0.03,-0.32,0.32
2022-11-11 12:52:57.3850,-0.08,0.03,-0.3,0.31
2022-11-11 12:52:57.3890,-0.06,0.0,-0.11,0.12
2022-11-11 12:52:57.4010,0.18,0.08,-0.09,0.21
2022-11-11 12:52:57.4050,0.31,0.14,-0.25,0.42
2022-11-11 12:52:57.4170,0.14,0.07,-0.27,0.31
2022-11-11 12:52:57.4200,0.12,-0.08,-0.18,0.23
2022-11-11 12:52:57.4880,0.06,-0.16,-0.07,0.18
2022-11-11 12:52:57.4910,0.0,0.01,-0.08,0.08
2022-11-11 12:52:57.5030,0.05,0.24,0.0,0.24
2022-11-11 12:52:57.5060,-0.04,0.28,-0.03,0.28
2022-11-11 12:52:57.5190,-0.09,0.2,-0.17,0.27
2022-11-11 12:52:57.5220,-0.09,0.03,-0.17,0.19
2022-11-11 12:52:57.5340,-0.18,-0.24,-0.04,0.3
2022-11-11 12:52:57.5370,-0.31,-0.53,0.06,0.61
2022-11-11 12:52:57.5500,0.06,-0.3,-0.06,0.31
2022-11-11 12:52:57.5540,0.52,0.29,0.05,0.59
2022-11-11 12:52:57.6240,0.46,0.49,0.14,0.68
2022-11-11 12:52:57.6280,0.15,0.3,0.26,0.42
2022-11-11 12:52:57.6360,-0.01,0.11,0.23,0.25
2022-11-11 12:52:57.6400,-0.22,-0.11,0.3,0.38
2022-11-11 12:52:57.6530,-0.38,-0.32,0.37,0.61
2022-11-11 12:52:57.6560,-0.07,-0.18,0.22,0.29
2022-11-11 12:52:57.6680,0.3,0.13,0.06,0.33
2022-11-11 12:52:57.6710,0.24,0.3,0.05,0.38
2022-11-11 12:52:57.6840,-0.03,0.26,0.12,0.28
2022-11-11 12:52:57.6880,-0.32,-0.03,0.21,0.38
2022-11-11 12:52:57.7560,-0.42,-0.28,0.24,0.55
2022-11-11 12:52:57.7590,-0.16,-0.27,0.12,0.33
2022-11-11 12:52:57.7700,0.11,-0.15,0.01,0.18
2022-11-11 12:52:57.7730,0.35,0.14,0.05,0.38
2022-11-11 12:52:57.7850,0.54,0.46,0.0,0.7
2022-11-11 12:52:57.7890,0.39,0.41,-0.05,0.56
2022-11-11 12:52:57.8010,0.01,0.16,-0.06,0.17
2022-11-11 12:52:57.8040,-0.26,-0.04,-0.05,0.26
2022-11-11 12:52:57.8170,-0.38,-0.21,0.06,0.43
2022-11-11 12:52:57.8210,-0.23,-0.02,0.09,0.24
2022-11-11 12:52:57.8880,-0.1,0.25,0.11,0.29
2022-11-11 12:52:57.8920,0.07,0.3,0.21,0.37
2022-11-11 12:52:57.9030,1.09,0.33,0.2,1.15
2022-11-11 12:52:57.9060,0.21,-0.42,0.1,0.48
2022-11-11 12:52:57.9190,-0.57,-0.47,0.2,0.76
2022-11-11 12:52:57.9220,-0.15,0.35,0.17,0.41
2022-11-11 12:52:57.9340,-0.05,0.78,0.08,0.78
2022-11-11 12:52:57.9380,0.1,0.69,-0.08,0.7
2022-11-11 12:52:57.9510,-0.51,-0.01,-0.06,0.51
2022-11-11 12:52:57.9550,-0.76,-0.84,-0.01,1.13
2022-11-11 12:52:58.0200,-0.61,-1.6,-0.14,1.71
2022-11-11 12:52:58.0230,-0.37,-1.0,0.05,1.06
2022-11-11 12:52:58.0360,-0.63,0.09,0.09,0.64
2022-11-11 12:52:58.0400,-1.15,0.54,-0.29,1.3
2022-11-11 12:52:58.0520,-0.63,0.78,0.0,1.0
2022-11-11 12:52:58.0560,0.3,0.65,-0.17,0.73
2022-11-11 12:52:58.0670,0.3,-0.23,-0.24,0.44
2022-11-11 12:52:58.0710,0.51,-0.02,-0.3,0.59
2022-11-11 12:52:58.0840,0.62,0.61,-0.38,0.94
2022-11-11 12:52:58.0880,0.52,0.69,-0.31,0.91
2022-11-11 12:52:58.1550,-0.03,0.05,-0.04,0.07
2022-11-11 12:52:58.1580,-0.55,-0.57,0.04,0.79
2022-11-11 12:52:58.1690,-0.43,-0.82,0.1,0.93
2022-11-11 12:52:58.1730,-0.32,0.13,0.47,0.58
2022-11-11 12:52:58.1860,-0.54,1.49,0.68,1.72
2022-11-11 12:52:58.1890,0.49,2.43,0.68,2.57
2022-11-11 12:52:58.2010,1.0,1.64,0.37,1.95
2022-11-11 12:52:58.2040,0.39,-1.1,-0.07,1.16
2022-11-11 12:52:58.2180,-0.62,-1.96,0.11,2.05
2022-11-11 12:52:58.2210,-1.09,-0.68,-0.22,1.3
2022-11-11 12:52:58.2850,-1.03,0.98,-0.24,1.44
2022-11-11 12:52:58.2880,-0.83,1.72,-0.21,1.92
2022-11-11 12:52:58.3030,-0.49,1.92,0.05,1.98
2022-11-11 12:52:58.3060,0.1,-0.09,0.04,0.14
2022-11-11 12:52:58.3190,0.39,-2.42,-0.15,2.45
2022-11-11 12:52:58.3230,0.54,-2.45,-0.28,2.52
2022-11-11 12:52:58.3340,0.4,-0.67,-0.06,0.78
2022-11-11 12:52:58.3370,-0.13,1.01,0.03,1.01
2022-11-11 12:52:58.3500,-0.21,1.99,0.0,2.0
2022-11-11 12:52:58.3540,-0.02,2.03,-0.22,2.04
2022-11-11 12:52:58.4110,-0.2,0.32,-0.19,0.42
2022-11-11 12:52:58.4160,-0.81,-1.42,-0.38,1.67
2022-11-11 12:52:58.4210,0.03,-1.19,-0.43,1.26
2022-11-11 12:52:58.4350,0.5,-0.49,0.09,0.7
2022-11-11 12:52:58.4390,0.72,-0.29,0.34,0.84
2022-11-11 12:52:58.4510,0.63,0.22,-0.07,0.67
2022-11-11 12:52:58.4540,0.43,0.94,-0.08,1.03
2022-11-11 12:52:58.4670,0.32,0.84,0.17,0.91
2022-11-11 12:52:58.4710,0.17,0.8,0.03,0.81
2022-11-11 12:52:58.4840,-0.09,0.3,-0.14,0.34
2022-11-11 12:52:58.5400,-0.43,-0.31,-0.08,0.53
2022-11-11 12:52:58.5440,-0.58,-0.04,0.02,0.58
2022-11-11 12:52:58.5530,-0.51,0.19,0.08,0.55
2022-11-11 12:52:58.5560,-0.54,0.04,0.07,0.54
2022-11-11 12:52:58.5690,-0.74,0.03,0.2,0.76
2022-11-11 12:52:58.5720,-0.71,-0.52,0.3,0.92
2022-11-11 12:52:58.5850,-0.44,-0.92,0.19,1.03
2022-11-11 12:52:58.5880,-0.07,-1.13,0.02,1.13
2022-11-11 12:52:58.6000,0.3,-0.53,0.01,0.6
2022-11-11 12:52:58.6040,0.3,-0.09,0.11,0.33
2022-11-11 12:52:58.6620,0.06,0.11,0.11,0.16
2022-11-11 12:52:58.6660,-0.03,0.31,0.12,0.33
2022-11-11 12:52:58.6710,-0.3,-0.37,-0.02,0.47
2022-11-11 12:52:58.6850,-0.2,0.11,0.01,0.22
2022-11-11 12:52:58.6880,0.08,0.22,0.06,0.24
2022-11-11 12:52:58.7000,0.16,-0.27,0.12,0.33
2022-11-11 12:52:58.7040,0.13,-0.21,0.16,0.29
2022-11-11 12:52:58.7170,0.02,-0.4,-0.06,0.4
2022-11-11 12:52:58.7210,-0.23,-0.45,-0.35,0.61
2022-11-11 12:52:58.7340,-0.21,-0.46,-0.31,0.59
2022-11-11 12:52:58.7910,-0.18,0.62,-0.19,0.67
2022-11-11 12:52:58.7950,0.08,0.85,-0.16,0.86
2022-11-11 12:52:58.8030,0.28,-0.04,-0.22,0.35
2022-11-11 12:52:58.8060,0.06,-0.12,0.03,0.13
2022-11-11 12:52:58.8190,-0.12,-0.52,0.1,0.54
2022-11-11 12:52:58.8220,0.04,-0.66,0.19,0.68
2022-11-11 12:52:58.8340,-0.11,-0.64,0.33,0.72
2022-11-11 12:52:58.8380,-0.72,-0.87,0.51,1.23
2022-11-11 12:52:58.8510,-0.91,-0.77,0.69,1.37
2022-11-11 12:52:58.8540,-0.71,-0.56,0.5,1.03
2022-11-11 12:52:58.9110,-0.6,-0.25,0.16,0.66
2022-11-11 12:52:58.9160,-0.57,-0.15,-0.1,0.59
2022-11-11 12:52:58.9220,-0.31,-0.07,0.14,0.34
2022-11-11 12:52:58.9360,-0.02,-0.01,0.07,0.07
2022-11-11 12:52:58.9390,0.19,0.03,-0.26,0.32
2022-11-11 12:52:58.9510,0.45,0.29,-0.43,0.68
2022-11-11 12:52:58.9550,0.73,0.35,-0.57,0.99
2022-11-11 12:52:58.9670,0.84,0.27,-0.45,0.99
2022-11-11 12:52:58.9700,0.67,0.15,-0.13,0.69
2022-11-11 12:52:58.9840,0.59,0.32,0.09,0.67
2022-11-11 12:52:59.0410,0.62,0.32,-0.06,0.7
2022-11-11 12:52:59.0440,0.09,-0.03,0.05,0.1
2022-11-11 12:52:59.0530,-0.75,-2.64,0.98,2.91
2022-11-11 12:52:59.0560,-0.21,-3.15,-0.32,3.17
2022-11-11 12:52:59.0690,0.34,-3.18,-0.18,3.2
2022-11-11 12:52:59.0720,0.5,-1.28,0.04,1.37
2022-11-11 12:52:59.0840,-0.42,1.42,-0.21,1.49
2022-11-11 12:52:59.0870,-0.78,2.81,-0.02,2.91
2022-11-11 12:52:59.1000,-1.15,2.87,-0.13,3.09
2022-11-11 12:52:59.1040,-1.31,1.66,-0.16,2.12
2022-11-11 12:52:59.1590,-1.02,0.32,-0.16,1.08
2022-11-11 12:52:59.1630,-0.72,-0.73,-0.32,1.07
2022-11-11 12:52:59.1700,-0.48,-1.05,-0.33,1.2
2022-11-11 12:52:59.1730,-0.12,-0.65,-0.24,0.7
2022-11-11 12:52:59.1850,2.09,0.96,-0.07,2.3
2022-11-11 12:52:59.1890,2.43,1.37,-0.25,2.8
2022-11-11 12:52:59.2010,0.02,0.3,-0.29,0.41
2022-11-11 12:52:59.2040,-0.78,0.44,0.12,0.9
2022-11-11 12:52:59.2180,-0.38,0.53,0.13,0.66
2022-11-11 12:52:59.2210,0.03,0.06,0.09,0.11
2022-11-11 12:52:59.2780,-0.03,-0.16,0.28,0.32
2022-11-11 12:52:59.2820,-0.33,0.01,0.34,0.47
2022-11-11 12:52:59.2870,-0.7,0.02,0.25,0.74
2022-11-11 12:52:59.3020,-0.8,0.0,0.27,0.84
2022-11-11 12:52:59.3050,-0.01,0.2,0.05,0.2
2022-11-11 12:52:59.3170,0.44,0.01,-0.24,0.5
2022-11-11 12:52:59.3210,0.24,-0.2,-0.04,0.31
2022-11-11 12:52:59.3340,0.21,0.01,-0.35,0.4
2022-11-11 12:52:59.3370,0.34,0.43,-0.47,0.72
2022-11-11 12:52:59.3510,0.35,0.37,-0.41,0.65
2022-11-11 12:52:59.4080,-0.77,-0.32,-0.32,0.89
2022-11-11 12:52:59.4120,-0.78,-0.49,0.53,1.06
2022-11-11 12:52:59.4200,-0.67,-0.31,0.27,0.78
2022-11-11 12:52:59.4240,-0.52,-0.04,0.03,0.52
2022-11-11 12:52:59.4350,0.02,-0.02,0.51,0.51
2022-11-11 12:52:59.4390,-0.27,0.09,0.59,0.65
2022-11-11 12:52:59.4510,-0.42,-0.05,-0.2,0.46
2022-11-11 12:52:59.4540,0.04,0.25,0.11,0.27
2022-11-11 12:52:59.4670,0.21,0.27,0.03,0.34
2022-11-11 12:52:59.4710,0.67,-0.23,-0.28,0.76
2022-11-11 12:52:59.5280,0.88,-0.03,-0.09,0.88
2022-11-11 12:52:59.5320,0.21,-0.04,-0.1,0.23
2022-11-11 12:52:59.5380,-0.55,-0.28,0.1,0.62
2022-11-11 12:52:59.5520,-0.7,-0.24,0.19,0.76
2022-11-11 12:52:59.5550,-0.37,-0.08,0.02,0.37
2022-11-11 12:52:59.5680,0.0,-0.12,-0.12,0.16
2022-11-11 12:52:59.5710,0.15,0.13,-0.29,0.35
2022-11-11 12:52:59.5840,0.43,0.65,0.3,0.83
2022-11-11 12:52:59.5870,0.03,0.41,0.31,0.51
2022-11-11 12:52:59.6010,-0.57,0.21,-0.22,0.64
2022-11-11 12:52:59.6580,-0.81,0.06,-0.28,0.85
2022-11-11 12:52:59.6620,-0.65,-0.13,-0.22,0.69
2022-11-11 12:52:59.6700,-0.3,-0.14,-0.04,0.33
2022-11-11 12:52:59.6730,-0.01,-0.17,0.16,0.23
2022-11-11 12:52:59.6850,0.34,-0.15,0.09,0.38
2022-11-11 12:52:59.6890,0.9,0.03,-0.09,0.9
2022-11-11 12:52:59.7010,1.14,0.12,-0.09,1.14
2022-11-11 12:52:59.7040,0.7,0.12,0.3,0.77
2022-11-11 12:52:59.7170,-0.19,0.11,0.65,0.68
2022-11-11 12:52:59.7210,-0.42,-0.1,-0.47,0.63
2022-11-11 12:52:59.7790,-0.19,-0.06,-0.47,0.51
2022-11-11 12:52:59.7830,-0.43,-0.1,-0.48,0.65
2022-11-11 12:52:59.7880,-0.85,-0.68,-0.7,1.29
2022-11-11 12:52:59.8020,-0.08,-0.2,-0.09,0.23
2022-11-11 12:52:59.8060,0.16,0.66,0.74,1.0
2022-11-11 12:52:59.8170,-0.45,0.45,0.55,0.84
2022-11-11 12:52:59.8210,-0.87,0.59,0.27,1.08
2022-11-11 12:52:59.8340,-0.45,0.37,0.02,0.58
2022-11-11 12:52:59.8370,-0.23,-0.3,-0.25,0.45
2022-11-11 12:52:59.8510,-0.35,-0.31,-0.07,0.47
2022-11-11 12:52:59.9100,-0.49,-0.03,0.23,0.54
2022-11-11 12:52:59.9140,-0.48,-0.01,0.43,0.64
2022-11-11 12:52:59.9200,-0.29,-0.25,0.54,0.66
2022-11-11 12:52:59.9240,-0.28,-0.43,0.58,0.77
2022-11-11 12:52:59.9350,-0.29,-0.36,-0.09,0.47
2022-11-11 12:52:59.9390,0.18,-0.2,-0.25,0.36
2022-11-11 12:52:59.9510,0.85,0.2,0.01,0.87
2022-11-11 12:52:59.9540,0.69,0.34,-0.1,0.77
2022-11-11 12:52:59.9670,0.55,0.1,-0.23,0.6
2022-11-11 12:52:59.9710,0.79,0.05,-0.12,0.8
2022-11-11 12:53:00.0330,0.47,0.07,-0.21,0.51
2022-11-11 12:53:00.0370,0.25,0.14,-0.19,0.34
2022-11-11 12:53:00.0530,0.13,0.49,0.12,0.52
2022-11-11 12:53:00.0560,-0.16,0.24,0.22,0.36
2022-11-11 12:53:00.0690,-0.4,-0.07,0.13,0.42
2022-11-11 12:53:00.0720,-0.39,0.02,0.02,0.39
2022-11-11 12:53:00.0840,-0.44,0.01,0.18,0.47
2022-11-11 12:53:00.0870,-0.59,0.0,0.3,0.66
2022-11-11 12:53:00.1010,-0.29,-0.03,0.19,0.34
2022-11-11 12:53:00.1040,0.31,0.26,0.26,0.48
2022-11-11 12:53:00.1650,0.14,0.38,0.04,0.4
2022-11-11 12:53:00.1690,-1.1,-0.41,-0.19,1.18
2022-11-11 12:53:00.1860,-1.89,-0.98,0.13,2.13
2022-11-11 12:53:00.1900,-1.86,-0.73,0.52,2.06
2022-11-11 12:53:00.2020,-0.82,-0.21,0.62,1.04
2022-11-11 12:53:00.2060,0.75,0.05,0.39,0.84
2022-11-11 12:53:00.2180,1.49,-0.07,-0.14,1.49
2022-11-11 12:53:00.2210,1.7,-0.05,-0.52,1.77
2022-11-11 12:53:00.2340,1.58,0.3,-0.67,1.74
2022-11-11 12:53:00.2370,0.97,0.45,-0.36,1.12
2022-11-11 12:53:00.2990,0.43,0.07,-0.18,0.47
2022-11-11 12:53:00.3030,0.46,-0.12,-0.06,0.47
2022-11-11 12:53:00.3190,-0.12,-0.39,0.3,0.5
2022-11-11 12:53:00.3230,-0.03,-0.55,0.14,0.56
2022-11-11 12:53:00.3360,1.38,0.16,0.22,1.4
2022-11-11 12:53:00.3390,-0.02,0.39,0.26,0.46
2022-11-11 12:53:00.3510,-1.1,0.22,0.08,1.12
2022-11-11 12:53:00.3540,-1.22,0.53,0.12,1.33
2022-11-11 12:53:00.3670,-1.75,0.53,-0.15,1.83
2022-11-11 12:53:00.3700,-1.69,-0.15,-0.09,1.69
2022-11-11 12:53:00.4330,-0.78,-0.29,0.03,0.83
2022-11-11 12:53:00.4360,-0.03,-0.04,-0.01,0.05
2022-11-11 12:53:00.4530,0.51,0.19,-0.25,0.59
2022-11-11 12:53:00.4560,0.7,0.06,-0.18,0.72
2022-11-11 12:53:00.4690,0.55,-0.14,-0.29,0.63
2022-11-11 12:53:00.4730,0.48,-0.18,-0.53,0.73
2022-11-11 12:53:00.4840,0.25,-0.14,-0.27,0.39
2022-11-11 12:53:00.4870,-0.73,-0.2,0.75,1.06
2022-11-11 12:53:00.5010,-1.14,-0.06,0.5,1.24
2022-11-11 12:53:00.5040,-0.87,0.6,-0.42,1.13
2022-11-11 12:53:00.5670,-0.5,0.04,-0.15,0.52
2022-11-11 12:53:00.5700,-0.26,-0.33,0.16,0.44
2022-11-11 12:53:00.5860,-0.08,0.0,-0.23,0.24
2022-11-11 12:53:00.5900,0.68,0.01,-0.62,0.92
2022-11-11 12:53:00.6020,1.31,-0.08,-0.42,1.37
2022-11-11 12:53:00.6060,0.96,0.01,-0.38,1.03
2022-11-11 12:53:00.6180,0.34,0.15,-0.16,0.4
2022-11-11 12:53:00.6210,0.03,0.23,-0.05,0.23
2022-11-11 12:53:00.6340,0.09,0.19,0.16,0.26
2022-11-11 12:53:00.6370,-0.04,0.2,0.27,0.33
2022-11-11 12:53:00.7010,-0.36,0.19,0.07,0.41
2022-11-11 12:53:00.7040,-0.36,-0.13,-0.25,0.45
2022-11-11 12:53:00.7200,-0.23,-0.2,-0.28,0.41
2022-11-11 12:53:00.7230,-0.35,-0.04,-0.08,0.36
2022-11-11 12:53:00.7350,-0.7,0.19,0.02,0.72
2022-11-11 12:53:00.7390,-0.71,0.22,-0.08,0.74
2022-11-11 12:53:00.7510,-0.45,-0.02,-0.12,0.46
2022-11-11 12:53:00.7540,-0.21,-0.02,-0.12,0.24
2022-11-11 12:53:00.7670,-0.25,0.08,-0.28,0.38
2022-11-11 12:53:00.7700,-0.17,0.03,-0.26,0.31
2022-11-11 12:53:00.8350,-0.05,-0.02,-0.21,0.21
2022-11-11 12:53:00.8390,-0.01,-0.01,-0.11,0.11
2022-11-11 12:53:00.8530,0.22,-0.16,0.21,0.34
2022-11-11 12:53:00.8560,0.24,-0.12,0.36,0.44
2022-11-11 12:53:00.8690,0.1,0.02,0.19,0.21
2022-11-11 12:53:00.8720,0.06,-0.17,0.13,0.22
2022-11-11 12:53:00.8840,0.07,-0.3,0.09,0.32
2022-11-11 12:53:00.8870,0.04,-0.32,0.13,0.34
2022-11-11 12:53:00.9010,0.19,-0.06,0.26,0.32
2022-11-11 12:53:00.9040,0.11,0.27,0.21,0.35
2022-11-11 12:53:00.9700,-0.12,0.28,0.12,0.32
2022-11-11 12:53:00.9740,-0.23,0.19,0.07,0.3
2022-11-11 12:53:00.9860,-0.48,0.13,0.0,0.49
2022-11-11 12:53:00.9900,-0.37,-0.07,-0.3,0.48
2022-11-11 12:53:01.0020,-0.02,0.13,-0.4,0.42
2022-11-11 12:53:01.0060,-0.24,0.12,-0.19,0.32
2022-11-11 12:53:01.0180,-0.57,-0.04,0.09,0.57
2022-11-11 12:53:01.0210,-0.21,-0.14,-0.03,0.25
2022-11-11 12:53:01.0340,0.2,-0.26,-0.27,0.42
2022-11-11 12:53:01.0370,0.26,0.03,-0.43,0.5
2022-11-11 12:53:01.1030,-0.19,0.2,-0.14,0.3
2022-11-11 12:53:01.1070,-0.8,-0.12,-0.13,0.81
2022-11-11 12:53:01.1200,-0.52,-0.02,-0.02,0.52
2022-11-11 12:53:01.1230,0.09,0.06,-0.24,0.26
2022-11-11 12:53:01.1360,0.0,0.0,-0.02,0.02
2022-11-11 12:53:01.1390,-0.08,-0.07,0.18,0.2
2022-11-11 12:53:01.1510,-0.28,0.26,0.54,0.66
2022-11-11 12:53:01.1540,-0.54,0.23,0.45,0.73
2022-11-11 12:53:01.1670,-0.47,0.0,0.26,0.53
2022-11-11 12:53:01.1710,-0.26,0.14,0.27,0.4
2022-11-11 12:53:01.2370,-0.2,0.26,0.22,0.39
2022-11-11 12:53:01.2400,-0.39,-0.07,0.16,0.42
2022-11-11 12:53:01.2530,-0.32,-0.27,-0.13,0.43
2022-11-11 12:53:01.2570,0.05,-0.21,-0.38,0.43
2022-11-11 12:53:01.2690,0.3,-0.37,-0.58,0.75
2022-11-11 12:53:01.2720,0.63,-0.21,-0.74,0.99
2022-11-11 12:53:01.2840,0.97,0.11,-0.84,1.28
2022-11-11 12:53:01.2880,1.06,0.41,-0.84,1.41
2022-11-11 12:53:01.3010,1.24,0.58,-0.63,1.5
2022-11-11 12:53:01.3040,1.09,0.39,-0.33,1.2
2022-11-11 12:53:01.3730,0.64,0.21,-0.04,0.67
2022-11-11 12:53:01.3770,-0.66,-0.63,1.27,1.56
2022-11-11 12:53:01.3860,-1.58,-0.24,0.98,1.87
2022-11-11 12:53:01.3900,-3.23,-0.19,3.23,4.57
2022-11-11 12:53:01.4020,-4.09,-0.68,0.73,4.2
2022-11-11 12:53:01.4060,-2.96,0.93,-0.8,3.2
2022-11-11 12:53:01.4180,-0.88,0.13,-0.83,1.21
2022-11-11 12:53:01.4210,1.71,-1.4,-0.94,2.4
2022-11-11 12:53:01.4340,2.56,-1.18,-0.65,2.89
2022-11-11 12:53:01.4370,1.81,-0.14,-0.57,1.9
2022-11-11 12:53:01.5050,0.79,0.65,-1.0,1.43
2022-11-11 12:53:01.5090,0.19,0.47,-0.92,1.05
2022-11-11 12:53:01.5200,-0.27,0.17,-0.47,0.56
2022-11-11 12:53:01.5230,-0.56,0.02,-0.03,0.56
2022-11-11 12:53:01.5360,-1.14,-0.05,0.95,1.48
2022-11-11 12:53:01.5390,-2.63,0.15,3.05,4.03
2022-11-11 12:53:01.5510,-2.66,0.51,0.55,2.76
2022-11-11 12:53:01.5540,-1.53,-0.06,-1.55,2.17
2022-11-11 12:53:01.5670,0.18,-1.16,-0.97,1.52
2022-11-11 12:53:01.5710,1.8,-0.49,0.82,2.03
2022-11-11 12:53:01.6400,0.77,0.22,1.18,1.42
2022-11-11 12:53:01.6430,-0.09,0.72,0.33,0.79
2022-11-11 12:53:01.6530,0.46,0.46,-0.18,0.67
2022-11-11 12:53:01.6560,1.08,-0.15,-0.75,1.32
2022-11-11 12:53:01.6690,1.38,-0.27,-0.89,1.66
2022-11-11 12:53:01.6730,1.04,-0.02,-0.52,1.16
2022-11-11 12:53:01.6840,0.3,0.34,-0.06,0.45
2022-11-11 12:53:01.6880,-0.46,0.41,0.29,0.68
2022-11-11 12:53:01.7010,-1.02,0.15,0.48,1.13
2022-11-11 12:53:01.7040,-1.05,-0.26,-0.27,1.11
2022-11-11 12:53:01.7740,-0.56,-0.38,-0.37,0.77
2022-11-11 12:53:01.7770,0.09,-0.29,-0.28,0.41
2022-11-11 12:53:01.7860,0.38,-0.1,-0.23,0.45
2022-11-11 12:53:01.7900,0.37,0.12,-0.18,0.42
2022-11-11 12:53:01.8020,0.37,0.28,0.13,0.48
2022-11-11 12:53:01.8060,0.57,0.24,0.25,0.66
2022-11-11 12:53:01.8170,0.7,0.05,0.06,0.7
2022-11-11 12:53:01.8210,0.6,-0.08,-0.05,0.6
2022-11-11 12:53:01.8340,0.26,-0.03,0.03,0.26
2022-11-11 12:53:01.8370,-0.13,0.07,0.22,0.26
2022-11-11 12:53:01.9080,-0.22,0.13,0.38,0.45
2022-11-11 12:53:01.9110,-0.09,0.1,0.39,0.41
2022-11-11 12:53:01.9190,-0.04,-0.01,0.25,0.25
2022-11-11 12:53:01.9230,-0.01,-0.04,0.11,0.11
2022-11-11 12:53:01.9360,0.02,-0.03,-0.03,0.04
2022-11-11 12:53:01.9390,-0.02,-0.02,-0.06,0.06
2022-11-11 12:53:01.9510,-0.08,-0.05,-0.18,0.2
2022-11-11 12:53:01.9540,-0.16,-0.02,-0.22,0.27
2022-11-11 12:53:01.9680,-0.07,0.14,-0.16,0.22
2022-11-11 12:53:01.9710,0.12,0.15,-0.08,0.2
2022-11-11 12:53:02.0420,0.22,0.01,0.02,0.22
2022-11-11 12:53:02.0450,0.18,-0.11,0.07,0.22
2022-11-11 12:53:02.0530,-0.03,-0.12,0.0,0.12
2022-11-11 12:53:02.0560,-0.25,-0.09,0.06,0.27
2022-11-11 12:53:02.0690,-0.4,-0.22,-0.07,0.46
2022-11-11 12:53:02.0730,-0.29,-0.25,-0.11,0.39
2022-11-11 12:53:02.0840,-0.45,0.02,-0.03,0.45
2022-11-11 12:53:02.0870,0.05,0.38,0.1,0.39
2022-11-11 12:53:02.1010,0.76,0.28,-0.02,0.81
2022-11-11 12:53:02.1040,0.83,0.09,-0.19,0.85
2022-11-11 12:53:02.1760,0.57,-0.04,-0.31,0.65
2022-11-11 12:53:02.1800,0.23,-0.02,-0.25,0.34
2022-11-11 12:53:02.1860,-0.11,0.04,-0.26,0.28
2022-11-11 12:53:02.1900,-0.23,0.16,-0.01,0.28
2022-11-11 12:53:02.2020,-0.09,0.2,0.2,0.29
2022-11-11 12:53:02.2060,0.1,0.06,0.22,0.24
2022-11-11 12:53:02.2170,0.2,-0.04,0.31,0.37
2022-11-11 12:53:02.2210,0.06,-0.05,0.22,0.23
2022-11-11 12:53:02.2340,-0.13,0.06,0.09,0.16
2022-11-11 12:53:02.2380,-0.23,0.07,0.06,0.24
2022-11-11 12:53:02.3100,-0.22,-0.06,0.05,0.23
2022-11-11 12:53:02.3140,-0.11,-0.15,0.09,0.2
2022-11-11 12:53:02.3200,-0.07,-0.14,0.05,0.16
2022-11-11 12:53:02.3230,-0.13,-0.12,-0.13,0.21
2022-11-11 12:53:02.3360,-0.03,-0.03,-0.22,0.22
2022-11-11 12:53:02.3390,0.13,0.0,-0.11,0.17
2022-11-11 12:53:02.3510,0.16,-0.05,-0.01,0.16
2022-11-11 12:53:02.3540,0.19,-0.06,0.05,0.2
2022-11-11 12:53:02.3670,0.14,-0.04,0.12,0.18
2022-11-11 12:53:02.3710,-0.06,-0.03,0.1,0.12
2022-11-11 12:53:02.4460,-0.18,0.01,0.13,0.22
2022-11-11 12:53:02.4500,-0.07,0.04,0.17,0.18
2022-11-11 12:53:02.4550,-0.02,-0.01,0.07,0.07
2022-11-11 12:53:02.4690,-0.06,-0.04,-0.05,0.08
2022-11-11 12:53:02.4730,-0.19,-0.06,-0.12,0.23
2022-11-11 12:53:02.4840,-0.4,-0.01,0.03,0.4
2022-11-11 12:53:02.4880,-0.3,0.14,0.22,0.39
2022-11-11 12:53:02.5010,-0.06,0.21,0.3,0.37
2022-11-11 12:53:02.5040,-0.05,0.22,0.32,0.39
2022-11-11 12:53:02.5170,-0.09,0.26,0.25,0.37
2022-11-11 12:53:02.5920,-0.1,0.2,0.17,0.28
2022-11-11 12:53:02.5960,-0.18,0.1,0.06,0.21
2022-11-11 12:53:02.6030,-0.1,0.01,-0.11,0.14
2022-11-11 12:53:02.6070,-0.13,-0.17,-0.15,0.26
2022-11-11 12:53:02.6190,-0.16,-0.13,-0.59,0.62
2022-11-11 12:53:02.6230,-0.07,0.03,-0.43,0.43
2022-11-11 12:53:02.6340,-0.26,-0.02,-0.29,0.39
2022-11-11 12:53:02.6380,-0.47,-0.15,-0.39,0.62
2022-11-11 12:53:02.6510,-0.37,-0.14,-0.01,0.39
2022-11-11 12:53:02.6540,-0.21,-0.1,0.12,0.26
2022-11-11 12:53:02.7290,-0.1,-0.13,-0.03,0.16
2022-11-11 12:53:02.7330,0.02,-0.15,0.04,0.15
2022-11-11 12:53:02.7380,0.14,0.01,0.05,0.14
2022-11-11 12:53:02.7520,0.0,0.12,0.16,0.2
2022-11-11 12:53:02.7560,-0.32,0.16,0.35,0.5
2022-11-11 12:53:02.7680,-0.43,0.09,0.3,0.53
2022-11-11 12:53:02.7710,-0.28,-0.06,0.15,0.32
2022-11-11 12:53:02.7840,0.03,0.01,0.08,0.08
2022-11-11 12:53:02.7870,0.34,0.13,-0.1,0.37
2022-11-11 12:53:02.8010,0.23,0.05,-0.12,0.26
2022-11-11 12:53:02.8760,-0.11,-0.06,0.01,0.12
2022-11-11 12:53:02.8790,-0.38,-0.15,0.13,0.42
2022-11-11 12:53:02.8870,-0.3,-0.23,0.14,0.4
2022-11-11 12:53:02.8900,-0.08,-0.18,0.07,0.2
2022-11-11 12:53:02.9020,0.08,0.02,0.01,0.08
2022-11-11 12:53:02.9060,0.17,0.32,0.17,0.4
2022-11-11 12:53:02.9170,-0.22,0.23,-0.05,0.32
2022-11-11 12:53:02.9210,-0.35,0.01,-0.21,0.4
2022-11-11 12:53:02.9340,-0.17,-0.04,-0.04,0.17
2022-11-11 12:53:02.9380,-0.17,0.06,0.04,0.18
2022-11-11 12:53:03.0150,-0.05,0.08,-0.35,0.36
2022-11-11 12:53:03.0190,0.15,-0.02,-0.12,0.19
2022-11-11 12:53:03.0230,0.1,0.01,0.12,0.15
2022-11-11 12:53:03.0360,0.06,-0.08,0.14,0.17
2022-11-11 12:53:03.0390,0.08,-0.19,0.15,0.25
2022-11-11 12:53:03.0510,0.07,-0.18,0.06,0.2
2022-11-11 12:53:03.0540,-0.05,-0.12,0.02,0.13
2022-11-11 12:53:03.0670,-0.13,-0.05,0.0,0.13
2022-11-11 12:53:03.0700,-0.19,0.02,-0.03,0.19
2022-11-11 12:53:03.0840,-0.28,0.06,0.06,0.29
2022-11-11 12:53:03.1630,-0.25,0.08,0.12,0.28
2022-11-11 12:53:03.1680,-0.23,0.0,0.13,0.26
2022-11-11 12:53:03.1720,-0.22,-0.07,0.07,0.24
2022-11-11 12:53:03.1760,-0.15,-0.02,-0.06,0.16
2022-11-11 12:53:03.1790,-0.11,0.05,-0.08,0.14
2022-11-11 12:53:03.1830,-0.11,0.09,0.03,0.14
2022-11-11 12:53:03.1870,-0.07,0.05,0.09,0.12
2022-11-11 12:53:03.2010,-0.04,-0.03,0.07,0.08
2022-11-11 12:53:03.2040,0.0,-0.01,0.03,0.03
2022-11-11 12:53:03.2170,0.07,0.05,-0.01,0.08
2022-11-11 12:53:03.2960,0.08,0.01,0.0,0.08
2022-11-11 12:53:03.2990,0.05,-0.02,-0.03,0.06
2022-11-11 12:53:03.3040,0.1,-0.01,-0.03,0.1
2022-11-11 12:53:03.3190,0.14,0.01,-0.06,0.15
2022-11-11 12:53:03.3220,0.12,0.01,-0.29,0.31
2022-11-11 12:53:03.3340,0.27,0.28,0.05,0.39
2022-11-11 12:53:03.3380,-0.16,0.1,0.24,0.3
2022-11-11 12:53:03.3510,-0.39,0.02,0.19,0.43
2022-11-11 12:53:03.3540,-0.38,0.07,0.2,0.43
2022-11-11 12:53:03.3670,-0.26,0.0,0.28,0.38
2022-11-11 12:53:03.4470,-0.21,-0.23,0.17,0.35
2022-11-11 12:53:03.4510,-0.12,-0.44,-0.1,0.46
2022-11-11 12:53:03.4560,0.23,-0.06,-0.39,0.45
2022-11-11 12:53:03.4690,0.39,0.24,-0.37,0.58
2022-11-11 12:53:03.4730,0.14,0.17,-0.11,0.24
2022-11-11 12:53:03.4840,-0.16,0.07,0.09,0.19
2022-11-11 12:53:03.4880,-0.33,-0.03,0.15,0.36
2022-11-11 12:53:03.5010,-0.32,-0.07,0.07,0.33
2022-11-11 12:53:03.5040,-0.18,-0.02,-0.01,0.18
2022-11-11 12:53:03.5180,-0.13,0.03,0.02,0.13
2022-11-11 12:53:03.5970,-0.22,0.03,0.15,0.26
2022-11-11 12:53:03.6010,-0.23,0.04,0.2,0.3
2022-11-11 12:53:03.6060,-0.2,0.04,0.18,0.27
2022-11-11 12:53:03.6190,-0.06,0.05,0.11,0.13
2022-11-11 12:53:03.6230,0.15,0.05,-0.03,0.16
2022-11-11 12:53:03.6340,0.15,0.01,-0.15,0.21
2022-11-11 12:53:03.6370,0.05,0.02,-0.14,0.15
2022-11-11 12:53:03.6510,0.09,0.07,-0.1,0.15
2022-11-11 12:53:03.6540,0.1,0.05,-0.11,0.15
2022-11-11 12:53:03.6680,-0.05,0.02,-0.09,0.1
2022-11-11 12:53:03.7490,-0.19,0.02,-0.12,0.22
2022-11-11 12:53:03.7520,-0.29,-0.02,-0.14,0.32
2022-11-11 12:53:03.7700,-0.26,-0.06,-0.11,0.28
2022-11-11 12:53:03.7730,-0.11,-0.06,-0.1,0.16
2022-11-11 12:53:03.7850,-0.01,-0.08,-0.09,0.12
2022-11-11 12:53:03.7890,-0.01,-0.02,-0.05,0.05
2022-11-11 12:53:03.8010,-0.12,0.0,0.01,0.12
2022-11-11 12:53:03.8040,-0.19,0.0,0.17,0.25
2022-11-11 12:53:03.8170,-0.15,0.02,0.23,0.27
2022-11-11 12:53:03.8210,-0.04,0.03,0.11,0.12
2022-11-11 12:53:03.9030,0.17,0.02,0.03,0.17
2022-11-11 12:53:03.9060,0.26,0.01,-0.01,0.26
2022-11-11 12:53:03.9200,0.22,0.05,-0.09,0.24
2022-11-11 12:53:03.9230,0.05,0.05,-0.13,0.14
2022-11-11 12:53:03.9360,-0.18,0.02,-0.1,0.2
2022-11-11 12:53:03.9390,-0.32,0.03,-0.08,0.33
2022-11-11 12:53:03.9510,-0.27,0.02,-0.08,0.28
2022-11-11 12:53:03.9540,-0.2,-0.04,-0.02,0.2
2022-11-11 12:53:03.9680,-0.14,-0.06,0.03,0.15
2022-11-11 12:53:03.9710,-0.18,-0.06,0.06,0.19
2022-11-11 12:53:04.0530,-0.33,-0.07,0.16,0.37
2022-11-11 12:53:04.0560,-0.43,-0.09,0.15,0.46
2022-11-11 12:53:04.0700,-0.29,-0.09,0.05,0.3
2022-11-11 12:53:04.0730,-0.05,-0.07,0.0,0.08
2022-11-11 12:53:04.0860,0.12,-0.02,-0.05,0.13
2022-11-11 12:53:04.0900,0.21,0.08,-0.06,0.23
2022-11-11 12:53:04.1010,0.15,0.08,-0.12,0.2
2022-11-11 12:53:04.1040,0.0,0.08,-0.05,0.09
2022-11-11 12:53:04.1170,-0.18,0.07,-0.01,0.19
2022-11-11 12:53:04.1210,-0.1,0.04,-0.09,0.14
2022-11-11 12:53:04.2050,0.14,0.1,-0.13,0.21
2022-11-11 12:53:04.2090,0.19,0.14,-0.08,0.24
2022-11-11 12:53:04.2200,0.0,-0.02,0.01,0.02
2022-11-11 12:53:04.2240,-0.19,-0.19,0.01,0.26
2022-11-11 12:53:04.2360,-0.12,-0.03,-0.13,0.17
2022-11-11 12:53:04.2410,0.01,0.16,-0.11,0.19
2022-11-11 12:53:04.2510,0.0,0.17,0.0,0.17
2022-11-11 12:53:04.2550,-0.03,0.04,-0.02,0.05
2022-11-11 12:53:04.2690,-0.04,-0.07,-0.09,0.12
2022-11-11 12:53:04.2740,0.0,-0.03,-0.11,0.11
2022-11-11 12:53:04.3630,0.06,0.07,-0.02,0.09
2022-11-11 12:53:04.3680,0.18,0.11,0.07,0.22
2022-11-11 12:53:04.3720,0.3,0.04,0.08,0.31
2022-11-11 12:53:04.3860,0.53,-0.06,0.11,0.54
2022-11-11 12:53:04.3890,0.82,-0.01,0.12,0.82
2022-11-11 12:53:04.4010,0.56,0.09,0.0,0.56
2022-11-11 12:53:04.4050,0.12,0.11,-0.12,0.2
2022-11-11 12:53:04.4180,-0.09,0.07,-0.11,0.15
2022-11-11 12:53:04.4210,0.07,0.13,0.02,0.14
2022-11-11 12:53:04.4340,-0.05,0.07,0.07,0.11
2022-11-11 12:53:04.5200,-0.23,-0.11,-0.07,0.26
2022-11-11 12:53:04.5240,-0.23,-0.26,-0.24,0.42
2022-11-11 12:53:04.5360,0.09,-0.09,-0.03,0.13
2022-11-11 12:53:04.5400,0.31,0.21,0.2,0.42
2022-11-11 12:53:04.5530,-0.16,0.18,0.02,0.24
2022-11-11 12:53:04.5560,-0.45,-0.14,-0.06,0.47
2022-11-11 12:53:04.5680,-0.3,-0.28,0.07,0.41
2022-11-11 12:53:04.5710,-0.13,-0.09,0.22,0.27
2022-11-11 12:53:04.5840,-0.37,0.14,0.44,0.59
2022-11-11 12:53:04.5880,-0.58,0.18,0.47,0.76
2022-11-11 12:53:04.6730,-0.28,-0.06,0.3,0.41
2022-11-11 12:53:04.6770,0.13,-0.19,0.16,0.28
2022-11-11 12:53:04.6860,0.55,-0.11,-0.16,0.58
2022-11-11 12:53:04.6900,0.67,-0.2,-0.36,0.78
2022-11-11 12:53:04.7030,0.38,-0.16,-0.26,0.48
2022-11-11 12:53:04.7060,-0.01,0.03,-0.1,0.1
2022-11-11 12:53:04.7180,-0.27,0.15,0.03,0.31
2022-11-11 12:53:04.7210,-0.32,0.18,0.02,0.36
2022-11-11 12:53:04.7340,-0.42,0.14,0.09,0.45
2022-11-11 12:53:04.7370,-0.59,0.0,0.21,0.62
2022-11-11 12:53:04.8230,-0.54,-0.16,0.28,0.62
2022-11-11 12:53:04.8260,-0.18,-0.26,0.2,0.37
2022-11-11 12:53:04.8360,0.3,-0.16,0.01,0.34
2022-11-11 12:53:04.8400,0.64,0.01,-0.11,0.64
2022-11-11 12:53:04.8520,0.76,0.13,-0.14,0.78
2022-11-11 12:53:04.8560,0.47,0.12,-0.02,0.48
2022-11-11 12:53:04.8680,0.2,0.1,0.04,0.22
2022-11-11 12:53:04.8710,0.03,0.02,-0.02,0.04
2022-11-11 12:53:04.8840,-0.37,-0.13,0.01,0.39
2022-11-11 12:53:04.8880,-0.58,-0.19,0.02,0.61
2022-11-11 12:53:04.9730,-0.5,-0.14,-0.03,0.52
2022-11-11 12:53:04.9760,-0.5,-0.1,-0.04,0.51
2022-11-11 12:53:04.9860,-0.55,-0.03,0.09,0.55
2022-11-11 12:53:04.9900,-0.48,0.0,0.2,0.52
2022-11-11 12:53:05.0020,-0.37,-0.01,0.46,0.59
2022-11-11 12:53:05.0060,-0.01,0.12,0.56,0.57
2022-11-11 12:53:05.0180,0.27,0.19,0.46,0.56
2022-11-11 12:53:05.0210,0.21,0.18,0.27,0.38
2022-11-11 12:53:05.0340,0.01,0.08,0.04,0.09
2022-11-11 12:53:05.0380,-0.34,-0.11,-0.07,0.36
2022-11-11 12:53:05.1220,-0.7,-0.28,-0.13,0.76
2022-11-11 12:53:05.1260,-0.78,-0.35,-0.16,0.86
2022-11-11 12:53:05.1360,-0.52,-0.22,-0.3,0.63
2022-11-11 12:53:05.1400,-0.38,-0.07,-0.51,0.63
2022-11-11 12:53:05.1520,-0.35,0.03,-0.32,0.47
2022-11-11 12:53:05.1560,-0.06,0.22,-0.1,0.24
2022-11-11 12:53:05.1670,0.25,0.28,-0.03,0.37
2022-11-11 12:53:05.1710,0.19,0.19,-0.15,0.3
2022-11-11 12:53:05.1840,-0.12,0.04,-0.22,0.25
2022-11-11 12:53:05.1880,-0.44,-0.03,-0.08,0.44
2022-11-11 12:53:05.2730,-0.61,0.01,0.14,0.62
2022-11-11 12:53:05.2760,-0.57,0.03,0.23,0.61
2022-11-11 12:53:05.2860,-0.27,0.02,0.19,0.33
2022-11-11 12:53:05.2900,0.04,0.06,0.1,0.12
2022-11-11 12:53:05.3030,0.09,0.04,0.02,0.1
2022-11-11 12:53:05.3060,-0.05,-0.07,-0.01,0.08
2022-11-11 12:53:05.3180,-0.16,-0.07,0.08,0.19
2022-11-11 12:53:05.3210,-0.06,0.06,0.04,0.09
2022-11-11 12:53:05.3340,0.12,0.07,-0.1,0.17
2022-11-11 12:53:05.3380,0.26,0.05,-0.24,0.35
2022-11-11 12:53:05.4210,0.28,0.04,-0.34,0.44
2022-11-11 12:53:05.4240,0.09,-0.04,-0.3,0.31
2022-11-11 12:53:05.4370,-0.05,-0.09,-0.09,0.13
2022-11-11 12:53:05.4410,0.07,0.04,0.03,0.08
2022-11-11 12:53:05.4530,0.15,0.14,0.08,0.22
2022-11-11 12:53:05.4560,0.07,0.07,0.1,0.14
2022-11-11 12:53:05.4680,0.03,-0.08,0.02,0.08
2022-11-11 12:53:05.4710,0.03,-0.15,-0.05,0.16
2022-11-11 12:53:05.4840,0.0,-0.08,-0.03,0.08
2022-11-11 12:53:05.4870,0.01,0.08,0.02,0.08
2022-11-11 12:53:05.5700,0.08,0.22,0.17,0.28
2022-11-11 12:53:05.5730,0.08,0.23,0.3,0.38
2022-11-11 12:53:05.5860,0.01,0.12,0.12,0.17
2022-11-11 12:53:05.5890,0.01,-0.03,-0.24,0.24
2022-11-11 12:53:05.6030,0.09,-0.06,-0.48,0.49
2022-11-11 12:53:05.6060,-0.32,-0.23,-0.84,0.92
2022-11-11 12:53:05.6180,0.29,0.53,0.11,0.61
2022-11-11 12:53:05.6210,0.51,0.15,0.02,0.53
2022-11-11 12:53:05.6340,0.55,0.16,0.08,0.57
2022-11-11 12:53:05.6380,0.59,0.02,0.03,0.59
2022-11-11 12:53:05.7210,0.45,-0.16,0.24,0.53
2022-11-11 12:53:05.7250,0.23,-0.18,0.41,0.5
2022-11-11 12:53:05.7370,0.15,-0.06,0.59,0.61
2022-11-11 12:53:05.7400,-0.18,-0.03,0.56,0.58
2022-11-11 12:53:05.7520,-0.69,0.09,0.14,0.7
2022-11-11 12:53:05.7560,-0.4,0.3,-0.16,0.52
2022-11-11 12:53:05.7680,0.0,0.2,-0.41,0.45
2022-11-11 12:53:05.7710,0.06,0.1,-0.58,0.59
2022-11-11 12:53:05.7840,0.09,0.05,-0.42,0.43
2022-11-11 12:53:05.7880,0.15,-0.05,-0.19,0.24
2022-11-11 12:53:05.8740,0.17,-0.1,-0.16,0.25
2022-11-11 12:53:05.8780,0.23,0.01,-0.16,0.28
2022-11-11 12:53:05.8860,0.14,0.15,-0.17,0.26
2022-11-11 12:53:05.8900,-0.22,0.17,-0.08,0.28
2022-11-11 12:53:05.9030,-0.64,0.08,0.17,0.66
2022-11-11 12:53:05.9060,-0.88,-0.02,0.25,0.91
2022-11-11 12:53:05.9180,-0.73,-0.07,0.18,0.75
2022-11-11 12:53:05.9210,-0.3,-0.07,0.06,0.31
2022-11-11 12:53:05.9340,0.05,-0.03,-0.16,0.17
2022-11-11 12:53:05.9380,0.33,0.02,-0.2,0.38
2022-11-11 12:53:06.0210,0.52,0.08,-0.15,0.54
2022-11-11 12:53:06.0240,0.56,0.11,-0.16,0.59
2022-11-11 12:53:06.0370,0.48,0.13,-0.14,0.51
2022-11-11 12:53:06.0400,0.28,0.14,-0.01,0.31
2022-11-11 12:53:06.0530,-0.02,0.12,0.11,0.16
2022-11-11 12:53:06.0560,-0.22,0.04,0.09,0.24
2022-11-11 12:53:06.0680,-0.23,-0.03,-0.02,0.23
2022-11-11 12:53:06.0710,-0.24,-0.08,-0.13,0.28
2022-11-11 12:53:06.0840,-0.22,-0.02,-0.15,0.26
2022-11-11 12:53:06.0870,-0.1,0.08,-0.04,0.13
2022-11-11 12:53:06.1710,0.04,0.13,0.02,0.13
2022-11-11 12:53:06.1740,0.09,0.1,0.03,0.13
2022-11-11 12:53:06.1860,0.08,0.02,-0.01,0.08
2022-11-11 12:53:06.1900,0.01,-0.07,-0.01,0.07
2022-11-11 12:53:06.2020,-0.05,-0.03,0.03,0.06
2022-11-11 12:53:06.2060,-0.07,0.05,0.07,0.11
2022-11-11 12:53:06.2180,-0.09,0.06,0.05,0.11
2022-11-11 12:53:06.2210,-0.19,0.01,0.01,0.19
2022-11-11 12:53:06.2340,-0.78,-0.25,-0.61,1.02
2022-11-11 12:53:06.2380,-0.43,0.11,0.17,0.47
2022-11-11 12:53:06.3220,0.35,-0.05,0.27,0.44
2022-11-11 12:53:06.3260,0.08,0.28,0.02,0.29
2022-11-11 12:53:06.3370,0.24,0.28,0.07,0.37
2022-11-11 12:53:06.3410,0.15,-0.09,0.18,0.25
2022-11-11 12:53:06.3530,-0.14,-0.26,0.07,0.3
2022-11-11 12:53:06.3560,-0.49,-0.23,0.09,0.54
2022-11-11 12:53:06.3680,-0.28,-0.01,0.12,0.3
2022-11-11 12:53:06.3710,0.1,0.21,-0.07,0.24
2022-11-11 12:53:06.3840,0.32,0.25,-0.2,0.45
2022-11-11 12:53:06.3880,0.59,0.15,-0.27,0.66
2022-11-11 12:53:06.4710,0.67,-0.01,-0.31,0.73
2022-11-11 12:53:06.4750,0.4,-0.05,-0.26,0.47
2022-11-11 12:53:06.4860,0.07,0.05,-0.07,0.11
2022-11-11 12:53:06.4900,-0.1,0.09,0.03,0.13
2022-11-11 12:53:06.5030,-0.13,0.05,0.16,0.21
2022-11-11 12:53:06.5060,-0.05,-0.01,0.2,0.2
2022-11-11 12:53:06.5180,-0.03,-0.06,0.14,0.15
2022-11-11 12:53:06.5210,-0.04,-0.05,0.08,0.1
2022-11-11 12:53:06.5340,-0.12,-0.03,0.07,0.14
2022-11-11 12:53:06.5380,-0.13,0.01,0.09,0.15
2022-11-11 12:53:06.6210,-0.03,0.05,0.01,0.05
2022-11-11 12:53:06.6250,0.12,0.07,-0.1,0.17
2022-11-11 12:53:06.6360,0.22,0.08,-0.14,0.27
2022-11-11 12:53:06.6400,0.21,0.03,-0.2,0.29
2022-11-11 12:53:06.6530,0.1,-0.03,-0.26,0.28
2022-11-11 12:53:06.6560,-0.02,-0.06,-0.24,0.24
2022-11-11 12:53:06.6680,-0.08,-0.08,-0.15,0.18
2022-11-11 12:53:06.6710,-0.16,-0.09,-0.08,0.2
2022-11-11 12:53:06.6840,-0.16,-0.04,0.04,0.16
2022-11-11 12:53:06.6870,0.04,0.09,0.23,0.25
2022-11-11 12:53:06.7700,0.27,0.15,0.24,0.39
2022-11-11 12:53:06.7730,0.25,0.05,0.15,0.29
2022-11-11 12:53:06.7870,0.12,-0.05,0.13,0.18
2022-11-11 12:53:06.7900,-0.03,-0.04,0.14,0.14
2022-11-11 12:53:06.8030,-0.21,-0.01,0.24,0.31
2022-11-11 12:53:06.8060,-0.32,-0.01,0.27,0.41
2022-11-11 12:53:06.8180,-0.18,0.01,0.17,0.24
2022-11-11 12:53:06.8210,-0.1,-0.02,0.07,0.12
2022-11-11 12:53:06.8340,-0.18,-0.1,-0.07,0.21
2022-11-11 12:53:06.8380,-0.33,-0.12,-0.09,0.36
2022-11-11 12:53:06.9200,-0.4,-0.1,-0.02,0.41
2022-11-11 12:53:06.9230,-0.19,-0.01,0.1,0.21
2022-11-11 12:53:06.9370,0.08,0.11,0.12,0.18
2022-11-11 12:53:06.9400,0.21,0.09,0.01,0.22
2022-11-11 12:53:06.9520,0.22,0.02,-0.07,0.23
2022-11-11 12:53:06.9560,0.13,-0.03,-0.03,0.13
2022-11-11 12:53:06.9680,0.05,-0.01,0.0,0.05
2022-11-11 12:53:06.9710,0.05,0.02,-0.03,0.06
2022-11-11 12:53:06.9840,0.09,0.05,-0.08,0.13
2022-11-11 12:53:06.9870,0.13,0.05,-0.12,0.18
2022-11-11 12:53:07.0710,0.1,0.02,-0.12,0.15
2022-11-11 12:53:07.0740,0.06,0.05,-0.08,0.11
2022-11-11 12:53:07.0860,0.04,0.08,-0.02,0.09
2022-11-11 12:53:07.0900,0.04,0.06,0.06,0.09
2022-11-11 12:53:07.1020,0.11,0.0,0.1,0.14
2022-11-11 12:53:07.1050,0.15,-0.05,0.1,0.18
2022-11-11 12:53:07.1170,0.1,-0.04,0.08,0.13
2022-11-11 12:53:07.1210,0.01,-0.02,0.08,0.08
2022-11-11 12:53:07.1340,-0.1,-0.01,0.17,0.19
2022-11-11 12:53:07.1380,-0.12,0.01,0.19,0.22
2022-11-11 12:53:07.2210,-0.07,-0.01,0.11,0.13
2022-11-11 12:53:07.2250,-0.04,-0.02,-0.01,0.04
2022-11-11 12:53:07.2370,-0.05,-0.03,-0.06,0.08
2022-11-11 12:53:07.2410,-0.11,-0.01,-0.06,0.12
2022-11-11 12:53:07.2520,-0.18,0.02,-0.06,0.19
2022-11-11 12:53:07.2560,-0.16,0.02,-0.05,0.16
2022-11-11 12:53:07.2680,-0.13,-0.01,-0.08,0.15
2022-11-11 12:53:07.2710,-0.13,-0.05,-0.06,0.15
2022-11-11 12:53:07.2730,-0.08,-0.01,0.06,0.1
2022-11-11 12:53:07.2850,0.0,0.05,0.13,0.13
2022-11-11 12:53:07.3680,-0.03,0.06,0.08,0.1
2022-11-11 12:53:07.3720,-0.1,0.03,0.03,0.1
2022-11-11 12:53:07.3870,-0.17,-0.01,-0.04,0.17
2022-11-11 12:53:07.3900,-0.29,-0.04,-0.12,0.31
2022-11-11 12:53:07.4020,-0.31,-0.03,-0.13,0.33
2022-11-11 12:53:07.4060,-0.18,0.01,-0.07,0.19
2022-11-11 12:53:07.4180,0.11,0.12,0.03,0.16
2022-11-11 12:53:07.4210,0.41,0.15,0.0,0.43
2022-11-11 12:53:07.4340,0.43,0.04,-0.01,0.43
2022-11-11 12:53:07.4380,0.29,-0.05,0.06,0.3
2022-11-11 12:53:07.5220,0.12,-0.07,0.1,0.17
2022-11-11 12:53:07.5260,-0.09,-0.05,0.1,0.14
2022-11-11 12:53:07.5360,-0.32,-0.03,0.13,0.34
2022-11-11 12:53:07.5400,-0.37,0.0,0.09,0.38
2022-11-11 12:53:07.5520,-0.26,-0.01,-0.01,0.26
2022-11-11 12:53:07.5560,-0.19,-0.04,-0.05,0.2
2022-11-11 12:53:07.5680,-0.1,-0.04,-0.03,0.11
2022-11-11 12:53:07.5710,-0.02,-0.06,0.01,0.06
2022-11-11 12:53:07.5840,0.04,-0.08,0.01,0.09
2022-11-11 12:53:07.5870,0.06,-0.04,0.0,0.07
2022-11-11 12:53:07.6720,0.05,0.01,-0.05,0.07
2022-11-11 12:53:07.6750,-0.14,-0.04,-0.04,0.15
2022-11-11 12:53:07.6860,-0.27,-0.05,0.07,0.28
2022-11-11 12:53:07.6900,-0.14,0.02,0.19,0.23
2022-11-11 12:53:07.7020,0.04,0.05,0.25,0.25
2022-11-11 12:53:07.7060,0.21,0.07,0.22,0.31
2022-11-11 12:53:07.7180,0.36,0.08,0.18,0.41
2022-11-11 12:53:07.7210,0.38,0.09,0.08,0.39
2022-11-11 12:53:07.7340,0.22,0.1,-0.01,0.24
2022-11-11 12:53:07.7380,-0.08,0.02,0.01,0.08
2022-11-11 12:53:07.8230,-0.3,-0.07,0.07,0.31
2022-11-11 12:53:07.8260,-0.29,-0.12,0.12,0.33
2022-11-11 12:53:07.8370,-0.07,-0.05,0.08,0.11
2022-11-11 12:53:07.8400,0.11,0.05,-0.04,0.12
2022-11-11 12:53:07.8530,0.12,0.1,-0.09,0.18
2022-11-11 12:53:07.8570,0.0,0.12,-0.08,0.14
2022-11-11 12:53:07.8680,-0.25,0.06,0.01,0.25
2022-11-11 12:53:07.8710,-0.4,-0.03,0.04,0.4
2022-11-11 12:53:07.8840,-0.33,-0.1,0.07,0.35
2022-11-11 12:53:07.8880,-0.09,-0.07,0.12,0.16
2022-11-11 12:53:07.9740,0.24,0.03,0.02,0.24
2022-11-11 12:53:07.9780,0.35,0.05,-0.05,0.35
2022-11-11 12:53:07.9860,0.17,0.04,-0.05,0.18
2022-11-11 12:53:07.9900,-0.15,0.0,-0.01,0.15
2022-11-11 12:53:08.0030,-0.44,-0.07,0.05,0.44
2022-11-11 12:53:08.0060,-0.47,-0.05,0.08,0.47
2022-11-11 12:53:08.0180,-0.28,0.01,-0.01,0.28
2022-11-11 12:53:08.0220,-0.09,0.05,-0.08,0.13
2022-11-11 12:53:08.0340,0.01,0.05,-0.11,0.12
2022-11-11 12:53:08.0380,0.02,0.01,-0.08,0.08
2022-11-11 12:53:08.1270,-0.08,-0.07,-0.02,0.1
2022-11-11 12:53:08.1310,-0.17,-0.06,-0.02,0.18
2022-11-11 12:53:08.1370,-0.24,-0.03,0.01,0.24
2022-11-11 12:53:08.1400,-0.15,0.01,0.0,0.15
2022-11-11 12:53:08.1530,0.09,0.06,-0.06,0.12
2022-11-11 12:53:08.1560,0.21,0.12,-0.11,0.26
2022-11-11 12:53:08.1680,0.16,0.14,-0.06,0.22
2022-11-11 12:53:08.1720,0.05,0.12,0.05,0.13
2022-11-11 12:53:08.1850,-0.08,0.02,0.13,0.15
2022-11-11 12:53:08.1880,-0.18,-0.09,0.14,0.24
2022-11-11 12:53:08.2770,-0.21,-0.1,0.08,0.24
2022-11-11 12:53:08.2800,-0.2,-0.06,0.08,0.22
2022-11-11 12:53:08.2860,-0.16,-0.01,0.14,0.21
2022-11-11 12:53:08.2900,-0.12,0.02,0.1,0.15
2022-11-11 12:53:08.3030,-0.08,0.0,-0.03,0.08
2022-11-11 12:53:08.3060,-0.09,-0.02,-0.06,0.11
2022-11-11 12:53:08.3180,-0.17,-0.03,-0.05,0.17
2022-11-11 12:53:08.3210,-0.19,-0.02,-0.05,0.19
2022-11-11 12:53:08.3340,-0.17,-0.04,-0.01,0.17
2022-11-11 12:53:08.3380,-0.07,-0.03,0.0,0.07
2022-11-11 12:53:08.4280,0.06,-0.01,-0.01,0.06
2022-11-11 12:53:08.4310,0.1,0.04,0.12,0.16
2022-11-11 12:53:08.4370,-0.04,0.13,0.31,0.33
2022-11-11 12:53:08.4410,-0.26,0.13,0.21,0.35
2022-11-11 12:53:08.4530,-0.2,0.07,-0.13,0.24
2022-11-11 12:53:08.4570,-0.03,-0.05,-0.2,0.2
2022-11-11 12:53:08.4680,0.0,-0.11,-0.1,0.14
2022-11-11 12:53:08.4730,0.11,-0.06,-0.03,0.12
2022-11-11 12:53:08.4750,0.24,0.03,-0.04,0.24
2022-11-11 12:53:08.4790,0.22,0.08,-0.11,0.25
2022-11-11 12:53:08.5680,0.15,0.08,-0.13,0.21
2022-11-11 12:53:08.5710,0.03,-0.07,0.01,0.07
2022-11-11 12:53:08.5860,-0.07,-0.15,0.04,0.17
2022-11-11 12:53:08.5900,-0.08,0.0,0.02,0.08
2022-11-11 12:53:08.6030,-0.07,0.15,0.03,0.16
2022-11-11 12:53:08.6060,-0.16,0.1,0.1,0.21
2022-11-11 12:53:08.6180,-0.12,0.03,0.2,0.23
2022-11-11 12:53:08.6210,0.09,-0.01,0.11,0.14
2022-11-11 12:53:08.6340,0.21,-0.06,-0.02,0.21
2022-11-11 12:53:08.6380,0.18,-0.01,-0.13,0.22
2022-11-11 12:53:08.7270,0.06,-0.01,-0.15,0.16
2022-11-11 12:53:08.7300,-0.02,0.03,-0.15,0.15
2022-11-11 12:53:08.7360,-0.04,0.06,-0.14,0.15
2022-11-11 12:53:08.7400,-0.11,0.07,-0.11,0.17
2022-11-11 12:53:08.7520,-0.15,-0.02,-0.1,0.18
2022-11-11 12:53:08.7560,-0.2,-0.11,-0.06,0.23
2022-11-11 12:53:08.7680,-0.25,-0.1,0.04,0.27
2022-11-11 12:53:08.7710,-0.2,-0.02,0.21,0.29
2022-11-11 12:53:08.7840,-0.1,0.05,0.26,0.28
2022-11-11 12:53:08.7880,0.08,0.02,0.19,0.2
2022-11-11 12:53:08.8770,0.22,-0.01,0.11,0.24
2022-11-11 12:53:08.8800,0.23,0.0,0.02,0.23
2022-11-11 12:53:08.8870,0.14,0.05,-0.07,0.16
2022-11-11 12:53:08.8910,-0.03,0.07,-0.08,0.11
2022-11-11 12:53:08.9030,-0.19,0.01,-0.09,0.21
2022-11-11 12:53:08.9060,-0.05,0.0,-0.08,0.09
2022-11-11 12:53:08.9180,0.26,0.07,-0.13,0.29
2022-11-11 12:53:08.9210,0.32,0.13,-0.1,0.35
2022-11-11 12:53:08.9340,0.17,0.11,-0.04,0.2
2022-11-11 12:53:08.9380,-0.04,-0.04,-0.01,0.05
2022-11-11 12:53:09.0270,-0.18,-0.08,0.03,0.19
2022-11-11 12:53:09.0310,-0.22,-0.03,0.05,0.22
2022-11-11 12:53:09.0370,-0.21,0.02,0.04,0.21
2022-11-11 12:53:09.0400,-0.11,0.02,-0.02,0.11
2022-11-11 12:53:09.0520,-0.02,0.0,-0.06,0.06
2022-11-11 12:53:09.0560,-0.06,-0.03,-0.02,0.06
2022-11-11 12:53:09.0680,-0.17,-0.05,0.05,0.18
2022-11-11 12:53:09.0710,-0.18,-0.02,0.06,0.19
2022-11-11 12:53:09.0840,-0.08,-0.01,0.01,0.08
2022-11-11 12:53:09.0880,0.03,0.0,-0.04,0.05
2022-11-11 12:53:09.1770,0.11,0.04,-0.04,0.12
2022-11-11 12:53:09.1800,0.18,0.08,-0.02,0.19
2022-11-11 12:53:09.1870,0.19,0.1,-0.05,0.22
2022-11-11 12:53:09.1900,0.11,0.1,-0.06,0.16
2022-11-11 12:53:09.2030,0.09,0.05,-0.05,0.11
2022-11-11 12:53:09.2060,0.07,0.0,-0.01,0.07
2022-11-11 12:53:09.2180,0.01,-0.02,0.02,0.03
2022-11-11 12:53:09.2210,0.01,-0.01,-0.02,0.02
2022-11-11 12:53:09.2340,-0.06,-0.01,-0.02,0.06
2022-11-11 12:53:09.2370,-0.11,0.0,0.01,0.11
2022-11-11 12:53:09.3280,-0.15,0.02,0.01,0.15
2022-11-11 12:53:09.3310,-0.23,0.02,0.02,0.23
2022-11-11 12:53:09.3370,-0.25,-0.01,0.04,0.25
2022-11-11 12:53:09.3410,-0.24,-0.03,0.06,0.24
2022-11-11 12:53:09.3530,-0.12,-0.03,0.08,0.14
2022-11-11 12:53:09.3560,0.02,-0.02,0.08,0.08
2022-11-11 12:53:09.3680,0.05,-0.01,0.05,0.07
2022-11-11 12:53:09.3710,0.02,0.0,0.04,0.04
2022-11-11 12:53:09.3840,-0.03,0.0,0.03,0.04
2022-11-11 12:53:09.3870,-0.12,0.0,0.01,0.12
2022-11-11 12:53:09.4780,-0.1,0.01,0.02,0.1
2022-11-11 12:53:09.4810,0.07,0.04,0.0,0.08
2022-11-11 12:53:09.4870,0.2,0.07,-0.05,0.21
2022-11-11 12:53:09.4900,0.17,0.12,-0.24,0.31
2022-11-11 12:53:09.5030,0.13,0.03,-0.17,0.21
2022-11-11 12:53:09.5060,0.11,-0.08,0.13,0.18
2022-11-11 12:53:09.5180,-0.09,0.05,0.3,0.31
2022-11-11 12:53:09.5210,-0.31,0.04,0.16,0.35
2022-11-11 12:53:09.5340,-0.26,-0.04,0.09,0.27
2022-11-11 12:53:09.5380,-0.06,0.06,-0.02,0.08
2022-11-11 12:53:09.6290,-0.05,0.0,-0.09,0.1
2022-11-11 12:53:09.6330,0.03,-0.08,-0.03,0.09
2022-11-11 12:53:09.6390,0.16,-0.02,0.02,0.16
2022-11-11 12:53:09.6530,0.18,0.05,-0.06,0.19
2022-11-11 12:53:09.6560,0.09,0.03,-0.1,0.13
2022-11-11 12:53:09.6680,0.09,-0.02,-0.06,0.11
2022-11-11 12:53:09.6710,0.05,-0.04,0.01,0.06
2022-11-11 12:53:09.6840,-0.03,0.05,0.03,0.06
2022-11-11 12:53:09.6870,-0.12,0.09,0.05,0.15
2022-11-11 12:53:09.7010,-0.18,0.05,0.05,0.19
2022-11-11 12:53:09.7920,-0.12,-0.02,0.0,0.12
2022-11-11 12:53:09.7960,-0.08,-0.03,-0.01,0.08
2022-11-11 12:53:09.8030,-0.04,0.01,-0.05,0.06
2022-11-11 12:53:09.8070,0.0,0.03,-0.09,0.09
2022-11-11 12:53:09.8190,-0.03,0.0,-0.13,0.13
2022-11-11 12:53:09.8230,-0.13,-0.06,-0.33,0.35
2022-11-11 12:53:09.8350,-0.06,0.01,0.06,0.08
2022-11-11 12:53:09.8380,-0.22,0.04,0.28,0.35
2022-11-11 12:53:09.8510,-0.33,0.08,0.24,0.41
2022-11-11 12:53:09.8540,-0.33,0.03,0.18,0.37
2022-11-11 12:53:09.9470,-0.22,-0.15,0.19,0.32
2022-11-11 12:53:09.9520,-0.04,-0.17,0.14,0.22
2022-11-11 12:53:09.9560,0.07,0.02,-0.02,0.07
2022-11-11 12:53:09.9690,0.21,0.15,-0.1,0.27
2022-11-11 12:53:09.9730,0.31,0.09,-0.15,0.35
2022-11-11 12:53:09.9840,0.28,0.02,-0.18,0.33
2022-11-11 12:53:09.9880,0.2,-0.02,-0.18,0.26
2022-11-11 12:53:10.0010,0.05,0.01,-0.13,0.13
2022-11-11 12:53:10.0040,-0.08,0.09,-0.08,0.14
2022-11-11 12:53:10.0180,-0.19,0.12,-0.01,0.22
2022-11-11 12:53:10.1090,-0.24,0.08,0.04,0.25
2022-11-11 12:53:10.1130,-0.23,0.0,0.07,0.24
2022-11-11 12:53:10.1200,-0.17,-0.05,0.09,0.19
2022-11-11 12:53:10.1240,-0.06,-0.06,0.1,0.13
2022-11-11 12:53:10.1360,0.03,-0.06,0.05,0.08
2022-11-11 12:53:10.1390,0.07,-0.06,0.02,0.09
2022-11-11 12:53:10.1510,0.05,-0.07,-0.27,0.28
2022-11-11 12:53:10.1540,0.11,-0.08,-0.1,0.16
2022-11-11 12:53:10.1680,0.03,0.1,0.16,0.19
2022-11-11 12:53:10.1710,-0.28,0.07,0.29,0.4
2022-11-11 12:53:10.2620,-0.33,0.0,0.2,0.38
2022-11-11 12:53:10.2670,-0.1,0.16,0.07,0.2
2022-11-11 12:53:10.2720,0.0,0.12,-0.13,0.17
2022-11-11 12:53:10.2860,-0.05,-0.07,-0.07,0.11
2022-11-11 12:53:10.2900,-0.04,-0.11,0.07,0.13
2022-11-11 12:53:10.3010,0.14,-0.04,0.01,0.14
2022-11-11 12:53:10.3050,0.35,0.05,-0.16,0.38
2022-11-11 12:53:10.3180,0.35,0.07,-0.17,0.39
2022-11-11 12:53:10.3210,0.17,0.06,-0.1,0.2
2022-11-11 12:53:10.3340,-0.08,0.05,0.0,0.09
2022-11-11 12:53:10.4240,-0.31,0.06,0.08,0.32
2022-11-11 12:53:10.4280,-0.37,0.05,0.1,0.38
2022-11-11 12:53:10.4370,-0.3,0.0,0.09,0.31
2022-11-11 12:53:10.4400,-0.16,-0.06,0.08,0.18
2022-11-11 12:53:10.4530,-0.02,-0.07,0.05,0.08
2022-11-11 12:53:10.4560,0.05,-0.05,0.03,0.07
2022-11-11 12:53:10.4680,0.08,-0.01,0.0,0.08
2022-11-11 12:53:10.4720,0.05,0.03,-0.03,0.06
2022-11-11 12:53:10.4840,-0.05,0.02,-0.02,0.05
2022-11-11 12:53:10.4880,-0.09,0.01,0.02,0.09
2022-11-11 12:53:10.5770,0.0,0.03,0.0,0.03
2022-11-11 12:53:10.5800,0.1,0.05,-0.05,0.12
2022-11-11 12:53:10.5870,0.12,0.06,-0.08,0.15
2022-11-11 12:53:10.5910,0.0,0.01,-0.04,0.04
2022-11-11 12:53:10.6030,-0.09,0.01,-0.02,0.09
2022-11-11 12:53:10.6060,-0.19,0.01,-0.01,0.19
2022-11-11 12:53:10.6180,-0.3,0.02,0.02,0.3
2022-11-11 12:53:10.6210,-0.25,0.01,0.02,0.25
2022-11-11 12:53:10.6340,-0.02,-0.02,0.03,0.04
2022-11-11 12:53:10.6380,0.19,-0.03,0.0,0.19
2022-11-11 12:53:10.7270,0.22,-0.02,0.02,0.22
2022-11-11 12:53:10.7300,0.16,0.03,0.03,0.16
2022-11-11 12:53:10.7370,-0.01,0.03,0.05,0.05
2022-11-11 12:53:10.7400,-0.16,0.03,0.04,0.16
2022-11-11 12:53:10.7530,-0.22,0.04,0.01,0.22
2022-11-11 12:53:10.7560,-0.17,0.02,-0.06,0.18
2022-11-11 12:53:10.7680,-0.04,0.01,-0.1,0.1
2022-11-11 12:53:10.7720,0.12,0.04,-0.11,0.16
2022-11-11 12:53:10.7840,0.16,0.05,-0.08,0.18
2022-11-11 12:53:10.7880,0.13,0.03,-0.02,0.13
2022-11-11 12:53:10.8740,0.06,0.02,0.01,0.06
2022-11-11 12:53:10.8780,-0.05,0.0,0.02,0.05
2022-11-11 12:53:10.8870,-0.12,0.0,0.05,0.13
2022-11-11 12:53:10.8900,-0.14,0.02,0.05,0.15
2022-11-11 12:53:10.9030,-0.18,0.0,0.1,0.2
2022-11-11 12:53:10.9060,-0.2,-0.02,0.16,0.25
2022-11-11 12:53:10.9180,-0.15,-0.03,0.15,0.21
2022-11-11 12:53:10.9210,-0.06,-0.02,0.0,0.06
2022-11-11 12:53:10.9350,0.03,0.0,-0.08,0.08
2022-11-11 12:53:10.9380,0.06,0.03,-0.1,0.12
2022-11-11 12:53:11.0250,0.01,0.06,-0.09,0.1
2022-11-11 12:53:11.0280,-0.02,0.06,-0.07,0.09
2022-11-11 12:53:11.0370,0.04,0.03,-0.04,0.06
2022-11-11 12:53:11.0400,0.07,-0.01,0.02,0.07
2022-11-11 12:53:11.0530,0.03,-0.01,0.06,0.06
2022-11-11 12:53:11.0560,-0.01,0.03,0.07,0.07
2022-11-11 12:53:11.0680,-0.07,0.05,0.04,0.09
2022-11-11 12:53:11.0720,-0.21,0.0,0.03,0.21
2022-11-11 12:53:11.0850,-0.24,-0.06,0.05,0.25
2022-11-11 12:53:11.0880,-0.06,-0.02,-0.01,0.06
2022-11-11 12:53:11.1740,0.07,0.07,-0.1,0.14
2022-11-11 12:53:11.1770,0.06,0.09,-0.08,0.13
2022-11-11 12:53:11.1870,-0.01,0.04,-0.01,0.04
2022-11-11 12:53:11.1900,-0.14,-0.04,0.06,0.15
2022-11-11 12:53:11.2030,-0.16,-0.06,0.04,0.17
2022-11-11 12:53:11.2060,-0.06,-0.1,-0.03,0.12
2022-11-11 12:53:11.2180,0.1,-0.09,-0.1,0.16
2022-11-11 12:53:11.2210,0.32,0.05,-0.13,0.34
2022-11-11 12:53:11.2350,0.35,0.17,-0.04,0.39
2022-11-11 12:53:11.2380,0.12,0.2,0.01,0.23
2022-11-11 12:53:11.3250,-0.12,0.11,-0.01,0.16
2022-11-11 12:53:11.3290,-0.27,0.0,-0.01,0.27
2022-11-11 12:53:11.3370,-0.3,-0.06,0.01,0.3
2022-11-11 12:53:11.3410,-0.23,-0.07,0.08,0.25
2022-11-11 12:53:11.3530,-0.05,-0.02,0.09,0.1
2022-11-11 12:53:11.3570,0.06,-0.01,0.06,0.08
2022-11-11 12:53:11.3680,0.04,-0.02,0.01,0.04
2022-11-11 12:53:11.3710,0.05,-0.03,-0.04,0.07
2022-11-11 12:53:11.3850,0.02,-0.03,0.0,0.03
2022-11-11 12:53:11.3880,-0.02,0.04,0.0,0.04
2022-11-11 12:53:11.4740,-0.03,0.07,-0.02,0.07
2022-11-11 12:53:11.4780,-0.02,0.04,-0.07,0.08
2022-11-11 12:53:11.4870,0.03,0.0,-0.08,0.08
2022-11-11 12:53:11.4900,-0.05,-0.04,-0.01,0.06
2022-11-11 12:53:11.5020,-0.16,-0.03,0.05,0.17
2022-11-11 12:53:11.5060,-0.15,0.02,0.05,0.15
2022-11-11 12:53:11.5170,-0.08,0.02,0.03,0.08
2022-11-11 12:53:11.5210,0.06,0.03,0.02,0.06
2022-11-11 12:53:11.5350,0.09,0.04,0.0,0.09
2022-11-11 12:53:11.5380,0.02,0.02,0.05,0.05
2022-11-11 12:53:11.6220,-0.01,0.0,0.05,0.05
2022-11-11 12:53:11.6260,-0.01,-0.02,-0.03,0.03
2022-11-11 12:53:11.6360,0.06,-0.02,-0.07,0.09
2022-11-11 12:53:11.6400,0.1,0.0,-0.06,0.11
2022-11-11 12:53:11.6430,0.06,0.01,-0.04,0.07
2022-11-11 12:53:11.6520,-0.06,0.02,0.0,0.06
2022-11-11 12:53:11.6560,-0.2,0.02,0.03,0.2
2022-11-11 12:53:11.6680,-0.26,-0.01,0.06,0.26
2022-11-11 12:53:11.6710,-0.2,-0.03,0.06,0.21
2022-11-11 12:53:11.6840,-0.11,-0.02,0.07,0.13
2022-11-11 12:53:11.7680,0.02,0.01,0.1,0.1
2022-11-11 12:53:11.7710,0.13,0.05,0.17,0.21
2022-11-11 12:53:11.7870,-0.2,0.08,-0.17,0.27
2022-11-11 12:53:11.7900,-0.11,-0.04,0.11,0.16
2022-11-11 12:53:11.8030,0.27,0.07,0.15,0.31
2022-11-11 12:53:11.8060,0.35,0.11,-0.11,0.38
2022-11-11 12:53:11.8180,0.19,0.04,-0.13,0.23
2022-11-11 12:53:11.8210,-0.03,-0.01,-0.11,0.11
2022-11-11 12:53:11.8350,-0.28,-0.07,0.01,0.28
2022-11-11 12:53:11.8380,-0.27,-0.04,0.11,0.29
2022-11-11 12:53:11.9210,-0.09,0.02,0.07,0.11
2022-11-11 12:53:11.9250,0.02,0.08,0.02,0.08
2022-11-11 12:53:11.9370,0.09,0.08,0.01,0.12
2022-11-11 12:53:11.9400,0.1,0.07,-0.03,0.12
2022-11-11 12:53:11.9520,0.09,0.07,-0.06,0.12
2022-11-11 12:53:11.9550,-0.04,-0.01,0.0,0.04
2022-11-11 12:53:11.9680,-0.21,-0.06,0.08,0.23
2022-11-11 12:53:11.9710,-0.18,0.0,0.03,0.18
2022-11-11 12:53:11.9840,-0.18,-0.02,0.02,0.18
2022-11-11 12:53:11.9870,-0.15,-0.05,0.02,0.15
2022-11-11 12:53:12.0700,-0.06,-0.04,0.02,0.07
2022-11-11 12:53:12.0730,-0.04,-0.03,0.04,0.06
2022-11-11 12:53:12.0860,0.05,0.0,0.02,0.05
2022-11-11 12:53:12.0900,0.08,0.01,-0.03,0.08
2022-11-11 12:53:12.1030,-0.01,-0.01,-0.05,0.05
2022-11-11 12:53:12.1060,-0.06,-0.01,-0.04,0.07
2022-11-11 12:53:12.1180,-0.03,0.02,-0.05,0.06
2022-11-11 12:53:12.1210,-0.04,0.03,-0.06,0.07
2022-11-11 12:53:12.1350,-0.07,0.04,0.0,0.08
2022-11-11 12:53:12.1380,-0.09,0.02,0.05,0.1
2022-11-11 12:53:12.2210,-0.06,-0.01,0.04,0.07
2022-11-11 12:53:12.2240,0.02,0.03,0.02,0.04
2022-11-11 12:53:12.2370,0.1,0.05,-0.01,0.11
2022-11-11 12:53:12.2400,0.0,0.02,-0.01,0.02
2022-11-11 12:53:12.2530,-0.2,-0.02,0.02,0.2
2022-11-11 12:53:12.2560,-0.31,-0.04,0.02,0.31
2022-11-11 12:53:12.2680,-0.28,-0.05,0.04,0.28
2022-11-11 12:53:12.2720,-0.16,-0.03,0.06,0.17
2022-11-11 12:53:12.2850,-0.02,0.01,0.08,0.08
2022-11-11 12:53:12.2880,0.07,0.07,0.09,0.13
2022-11-11 12:53:12.3700,0.04,0.06,0.08,0.1
2022-11-11 12:53:12.3730,-0.04,0.0,0.12,0.12
2022-11-11 12:53:12.3870,-0.1,-0.02,0.08,0.12
2022-11-11 12:53:12.3900,-0.09,-0.04,-0.03,0.1
2022-11-11 12:53:12.4030,0.03,0.0,-0.06,0.06
2022-11-11 12:53:12.4060,0.12,0.08,-0.1,0.17
2022-11-11 12:53:12.4180,0.13,0.05,-0.13,0.19
2022-11-11 12:53:12.4220,0.13,0.0,-0.09,0.15
2022-11-11 12:53:12.4350,0.06,0.06,-0.07,0.11
2022-11-11 12:53:12.4380,-0.05,0.08,-0.05,0.1
2022-11-11 12:53:12.5200,-0.07,0.04,0.04,0.09
2022-11-11 12:53:12.5230,0.0,-0.02,0.1,0.1
2022-11-11 12:53:12.5370,0.04,-0.07,0.13,0.15
2022-11-11 12:53:12.5400,0.02,-0.06,0.16,0.17
2022-11-11 12:53:12.5520,-0.07,-0.01,0.16,0.17
2022-11-11 12:53:12.5550,-0.15,0.02,0.07,0.16
2022-11-11 12:53:12.5680,-0.26,-0.02,0.06,0.26
2022-11-11 12:53:12.5710,-0.3,-0.05,0.03,0.3
2022-11-11 12:53:12.5840,-0.2,-0.01,-0.04,0.2
2022-11-11 12:53:12.5880,-0.12,0.02,-0.11,0.16
2022-11-11 12:53:12.6690,-0.06,0.05,-0.14,0.16
2022-11-11 12:53:12.6720,-0.06,0.01,-0.15,0.16
2022-11-11 12:53:12.6860,-0.04,0.02,-0.11,0.11
2022-11-11 12:53:12.6900,0.07,0.04,-0.07,0.1
2022-11-11 12:53:12.7030,0.16,0.05,-0.05,0.17
2022-11-11 12:53:12.7060,0.2,0.08,-0.03,0.21
2022-11-11 12:53:12.7180,0.19,0.1,0.02,0.21
2022-11-11 12:53:12.7210,0.14,0.08,0.06,0.17
2022-11-11 12:53:12.7340,0.04,0.05,0.09,0.11
2022-11-11 12:53:12.7380,-0.04,0.02,0.16,0.16
2022-11-11 12:53:12.8180,0.01,0.01,0.16,0.16
2022-11-11 12:53:12.8220,0.07,0.0,0.08,0.1
2022-11-11 12:53:12.8370,0.07,-0.02,-0.02,0.07
2022-11-11 12:53:12.8400,-0.09,-0.03,-0.03,0.09
2022-11-11 12:53:12.8530,-0.23,-0.03,-0.01,0.23
2022-11-11 12:53:12.8560,-0.2,-0.05,-0.02,0.2
2022-11-11 12:53:12.8690,-0.18,-0.03,-0.04,0.18
2022-11-11 12:53:12.8720,-0.14,-0.01,-0.08,0.16
2022-11-11 12:53:12.8850,-0.09,-0.03,-0.05,0.1
2022-11-11 12:53:12.8880,-0.01,-0.03,-0.03,0.04
2022-11-11 12:53:12.9680,0.04,0.0,-0.06,0.07
2022-11-11 12:53:12.9720,0.01,0.01,-0.01,0.01
2022-11-11 12:53:12.9870,0.02,0.02,0.14,0.14
2022-11-11 12:53:12.9900,0.15,0.03,0.15,0.21
2022-11-11 12:53:13.0030,0.19,0.0,0.07,0.2
2022-11-11 12:53:13.0060,0.27,0.04,0.02,0.27
2022-11-11 12:53:13.0180,0.32,0.08,-0.03,0.33
2022-11-11 12:53:13.0210,0.21,0.07,-0.03,0.22
2022-11-11 12:53:13.0350,0.06,0.05,-0.04,0.08
2022-11-11 12:53:13.0380,-0.09,0.01,-0.06,0.1
2022-11-11 12:53:13.1190,-0.14,-0.02,-0.05,0.15
2022-11-11 12:53:13.1240,-0.15,-0.05,-0.01,0.15
2022-11-11 12:53:13.1370,-0.17,-0.02,0.02,0.17
2022-11-11 12:53:13.1400,-0.16,0.04,0.01,0.16
2022-11-11 12:53:13.1520,-0.19,0.04,0.03,0.19
2022-11-11 12:53:13.1560,-0.25,-0.01,0.04,0.25
2022-11-11 12:53:13.1680,-0.29,-0.09,0.03,0.3
2022-11-11 12:53:13.1710,-0.29,-0.11,0.02,0.31
2022-11-11 12:53:13.1850,-0.22,-0.04,0.03,0.22
2022-11-11 12:53:13.1880,-0.02,-0.01,0.01,0.02
2022-11-11 12:53:13.2670,0.14,0.01,-0.06,0.15
2022-11-11 12:53:13.2710,0.15,0.03,-0.12,0.19
2022-11-11 12:53:13.2870,0.07,0.03,-0.16,0.17
2022-11-11 12:53:13.2900,-0.03,0.04,-0.15,0.15
2022-11-11 12:53:13.3030,-0.11,0.05,-0.1,0.15
2022-11-11 12:53:13.3060,-0.14,0.05,-0.05,0.15
2022-11-11 12:53:13.3180,-0.03,0.07,-0.03,0.08
2022-11-11 12:53:13.3210,0.1,0.07,0.0,0.12
2022-11-11 12:53:13.3340,0.08,0.03,0.02,0.08
2022-11-11 12:53:13.3380,-0.04,0.02,0.1,0.1
2022-11-11 12:53:13.4160,-0.2,0.02,0.19,0.27
2022-11-11 12:53:13.4190,-0.34,-0.01,0.21,0.39
2022-11-11 12:53:13.4370,-0.27,-0.02,0.11,0.29
2022-11-11 12:53:13.4400,-0.15,-0.02,0.01,0.15
2022-11-11 12:53:13.4530,-0.11,0.01,-0.01,0.11
2022-11-11 12:53:13.4570,-0.05,0.02,-0.02,0.05
2022-11-11 12:53:13.4680,0.02,-0.02,-0.1,0.1
2022-11-11 12:53:13.4710,0.06,-0.05,-0.12,0.14
2022-11-11 12:53:13.4850,0.08,0.01,-0.13,0.15
2022-11-11 12:53:13.4880,0.1,0.12,-0.1,0.18
2022-11-11 12:53:13.5660,0.16,0.15,-0.07,0.23
2022-11-11 12:53:13.5690,0.2,0.1,-0.02,0.22
2022-11-11 12:53:13.5870,0.19,0.08,0.0,0.2
2022-11-11 12:53:13.5900,0.1,0.04,-0.01,0.1
2022-11-11 12:53:13.6030,-0.04,-0.02,-0.04,0.06
2022-11-11 12:53:13.6060,-0.18,-0.06,-0.07,0.2
2022-11-11 12:53:13.6180,-0.2,-0.07,-0.12,0.24
2022-11-11 12:53:13.6210,-0.12,-0.04,-0.15,0.19
2022-11-11 12:53:13.6350,-0.04,-0.01,-0.12,0.12
2022-11-11 12:53:13.6380,-0.01,0.01,-0.06,0.06
2022-11-11 12:53:13.7140,-0.04,0.02,0.03,0.05
2022-11-11 12:53:13.7190,-0.11,0.01,0.08,0.13
2022-11-11 12:53:13.7230,-0.09,0.04,0.13,0.16
2022-11-11 12:53:13.7360,0.11,0.03,0.13,0.17
2022-11-11 12:53:13.7390,0.27,0.01,0.06,0.27
2022-11-11 12:53:13.7510,0.27,0.03,0.04,0.27
2022-11-11 12:53:13.7540,0.16,0.05,0.0,0.16
2022-11-11 12:53:13.7680,0.04,0.06,-0.08,0.1
2022-11-11 12:53:13.7710,-0.04,0.07,-0.11,0.13
2022-11-11 12:53:13.7850,-0.17,0.04,-0.12,0.21
2022-11-11 12:53:13.8590,-0.28,-0.01,-0.13,0.3
2022-11-11 12:53:13.8630,-0.36,-0.07,-0.05,0.37
2022-11-11 12:53:13.8700,-0.28,-0.06,0.05,0.29
2022-11-11 12:53:13.8740,-0.07,0.0,0.04,0.08
2022-11-11 12:53:13.8860,0.01,0.03,0.0,0.03
2022-11-11 12:53:13.8900,0.01,-0.02,0.02,0.03
2022-11-11 12:53:13.9010,-0.08,-0.08,0.09,0.14
2022-11-11 12:53:13.9040,-0.16,-0.06,0.12,0.2
2022-11-11 12:53:13.9180,-0.08,0.06,0.09,0.13
2022-11-11 12:53:13.9210,0.07,0.11,0.04,0.13
2022-11-11 12:53:13.9960,0.12,0.06,-0.06,0.14
2022-11-11 12:53:14.0000,0.12,0.04,-0.1,0.16
2022-11-11 12:53:14.0050,0.1,0.0,-0.11,0.14
2022-11-11 12:53:14.0190,0.1,-0.02,-0.12,0.15
2022-11-11 12:53:14.0220,0.04,-0.02,-0.09,0.1
2022-11-11 12:53:14.0350,0.0,-0.04,-0.03,0.05
2022-11-11 12:53:14.0380,-0.08,-0.03,-0.03,0.09
2022-11-11 12:53:14.0510,-0.2,0.03,0.03,0.2
2022-11-11 12:53:14.0540,-0.17,0.06,0.09,0.2
2022-11-11 12:53:14.0680,-0.09,0.02,0.11,0.14
2022-11-11 12:53:14.1420,-0.03,-0.01,0.05,0.05
2022-11-11 12:53:14.1460,0.03,-0.02,0.01,0.03
2022-11-11 12:53:14.1530,0.1,-0.01,0.0,0.1
2022-11-11 12:53:14.1570,0.12,0.0,-0.02,0.12
2022-11-11 12:53:14.1690,0.02,-0.02,-0.02,0.03
2022-11-11 12:53:14.1730,-0.09,-0.02,0.02,0.09
2022-11-11 12:53:14.1840,-0.09,0.0,0.01,0.09
2022-11-11 12:53:14.1870,-0.12,0.01,-0.03,0.12
2022-11-11 12:53:14.1910,-0.16,0.04,-0.03,0.16
2022-11-11 12:53:14.2010,-0.2,0.05,-0.02,0.2
2022-11-11 12:53:14.2740,-0.14,0.04,-0.04,0.15
2022-11-11 12:53:14.2780,0.08,-0.03,0.01,0.08
2022-11-11 12:53:14.2870,0.23,-0.06,-0.01,0.23
2022-11-11 12:53:14.2910,0.19,0.0,-0.08,0.2
2022-11-11 12:53:14.3030,0.08,0.04,-0.07,0.11
2022-11-11 12:53:14.3060,-0.04,0.02,0.0,0.04
2022-11-11 12:53:14.3180,-0.16,0.0,0.05,0.16
2022-11-11 12:53:14.3220,-0.2,0.0,0.04,0.2
2022-11-11 12:53:14.3340,-0.16,-0.01,0.03,0.16
2022-11-11 12:53:14.3380,-0.08,0.0,-0.01,0.08
2022-11-11 12:53:14.4140,0.01,0.0,-0.02,0.02
2022-11-11 12:53:14.4180,0.06,0.0,-0.04,0.07
2022-11-11 12:53:14.4230,-0.03,-0.01,-0.02,0.03
2022-11-11 12:53:14.4360,-0.14,-0.01,0.05,0.14
2022-11-11 12:53:14.4390,-0.12,0.0,0.08,0.14
2022-11-11 12:53:14.4510,-0.02,-0.01,0.05,0.05
2022-11-11 12:53:14.4550,0.05,0.01,0.06,0.07
2022-11-11 12:53:14.4680,0.08,0.04,0.06,0.1
2022-11-11 12:53:14.4710,0.05,0.04,0.03,0.07
2022-11-11 12:53:14.4840,-0.02,0.04,0.0,0.04
2022-11-11 12:53:14.5560,-0.08,0.03,-0.03,0.09
2022-11-11 12:53:14.5600,-0.08,0.02,-0.08,0.11
2022-11-11 12:53:14.5700,0.01,0.0,-0.12,0.12
2022-11-11 12:53:14.5740,0.11,0.0,-0.16,0.19
2022-11-11 12:53:14.5860,0.09,0.01,-0.07,0.11
2022-11-11 12:53:14.5900,0.03,0.04,0.01,0.05
2022-11-11 12:53:14.6010,-0.07,0.02,0.02,0.07
2022-11-11 12:53:14.6050,-0.2,0.0,0.02,0.2
2022-11-11 12:53:14.6180,-0.26,-0.02,0.04,0.26
2022-11-11 12:53:14.6210,-0.21,-0.04,0.01,0.21
2022-11-11 12:53:14.6930,-0.12,-0.03,-0.05,0.13
2022-11-11 12:53:14.6960,0.05,0.01,-0.08,0.09
2022-11-11 12:53:14.7040,0.17,0.02,-0.11,0.2
2022-11-11 12:53:14.7070,0.12,0.02,-0.08,0.14
2022-11-11 12:53:14.7200,0.02,0.03,-0.03,0.04
2022-11-11 12:53:14.7230,-0.04,0.04,0.04,0.06
2022-11-11 12:53:14.7350,-0.03,0.04,0.09,0.1
2022-11-11 12:53:14.7380,0.0,0.0,0.1,0.1
2022-11-11 12:53:14.7510,0.06,-0.01,0.1,0.11
2022-11-11 12:53:14.7540,0.2,0.0,0.1,0.22
2022-11-11 12:53:14.8240,0.27,0.05,0.06,0.28
2022-11-11 12:53:14.8270,0.2,0.11,-0.01,0.22
2022-11-11 12:53:14.8370,0.05,0.09,-0.02,0.1
2022-11-11 12:53:14.8410,-0.04,0.03,-0.04,0.06
2022-11-11 12:53:14.8530,-0.11,-0.05,-0.08,0.14
2022-11-11 12:53:14.8560,-0.12,-0.1,-0.09,0.18
2022-11-11 12:53:14.8680,-0.11,-0.05,-0.09,0.15
2022-11-11 12:53:14.8710,-0.1,0.04,-0.06,0.12
2022-11-11 12:53:14.8840,-0.11,0.04,0.01,0.11
2022-11-11 12:53:14.8880,-0.19,-0.03,0.1,0.21
2022-11-11 12:53:14.9570,-0.22,-0.13,0.13,0.28
2022-11-11 12:53:14.9610,-0.16,-0.15,0.07,0.23
2022-11-11 12:53:14.9710,-0.1,-0.08,0.03,0.13
2022-11-11 12:53:14.9740,-0.11,0.07,0.07,0.14
2022-11-11 12:53:14.9860,-0.1,0.13,0.05,0.17
2022-11-11 12:53:14.9900,0.04,0.07,0.04,0.09
2022-11-11 12:53:15.0020,0.27,0.03,0.06,0.27
2022-11-11 12:53:15.0050,0.37,0.02,0.06,0.37
2022-11-11 12:53:15.0180,0.25,0.04,0.06,0.26
2022-11-11 12:53:15.0210,0.07,0.04,0.06,0.1
2022-11-11 12:53:15.0900,-0.1,0.02,0.12,0.15
2022-11-11 12:53:15.0940,-0.16,-0.04,0.17,0.23
2022-11-11 12:53:15.1040,-0.06,-0.02,0.17,0.18
2022-11-11 12:53:15.1070,0.17,0.06,0.17,0.24
2022-11-11 12:53:15.1190,0.34,0.08,0.12,0.36
2022-11-11 12:53:15.1230,0.33,0.07,0.05,0.34
2022-11-11 12:53:15.1350,0.14,0.04,0.01,0.14
2022-11-11 12:53:15.1380,-0.1,-0.01,0.0,0.1
2022-11-11 12:53:15.1520,-0.19,-0.06,0.03,0.2
2022-11-11 12:53:15.1550,-0.26,-0.14,0.13,0.32
2022-11-11 12:53:15.2240,-0.38,-0.2,0.23,0.48
2022-11-11 12:53:15.2280,-0.24,-0.1,0.03,0.26
2022-11-11 12:53:15.2370,0.05,0.01,0.01,0.05
2022-11-11 12:53:15.2400,0.23,0.04,0.05,0.23
2022-11-11 12:53:15.2530,0.32,0.07,0.12,0.34
2022-11-11 12:53:15.2570,0.26,0.06,0.12,0.29
2022-11-11 12:53:15.2680,0.13,-0.01,0.11,0.17
2022-11-11 12:53:15.2720,0.07,-0.05,0.07,0.11
2022-11-11 12:53:15.2850,-0.02,-0.04,0.04,0.06
2022-11-11 12:53:15.2880,-0.08,0.03,0.02,0.08
2022-11-11 12:53:15.3570,-0.12,0.04,0.0,0.12
2022-11-11 12:53:15.3600,-0.16,-0.06,0.01,0.17
2022-11-11 12:53:15.3700,-0.13,-0.14,0.03,0.19
2022-11-11 12:53:15.3740,0.07,-0.09,0.09,0.14
2022-11-11 12:53:15.3870,0.23,-0.03,0.15,0.27
2022-11-11 12:53:15.3900,0.31,0.04,0.28,0.41
2022-11-11 12:53:15.4010,0.34,0.11,0.35,0.5
2022-11-11 12:53:15.4050,0.26,0.13,0.33,0.43
2022-11-11 12:53:15.4180,0.15,0.11,0.28,0.33
2022-11-11 12:53:15.4220,-0.04,0.0,0.27,0.27
2022-11-11 12:53:15.4920,-0.17,-0.07,0.22,0.28
2022-11-11 12:53:15.4950,-0.27,-0.12,0.18,0.34
2022-11-11 12:53:15.5040,-0.32,-0.18,0.17,0.4
2022-11-11 12:53:15.5070,-0.16,-0.11,0.08,0.21
2022-11-11 12:53:15.5200,0.01,0.02,0.01,0.02
2022-11-11 12:53:15.5230,-0.06,0.07,0.02,0.09
2022-11-11 12:53:15.5350,-0.13,-0.01,0.05,0.13
2022-11-11 12:53:15.5380,-0.15,-0.11,0.04,0.19
2022-11-11 12:53:15.5510,-0.24,-0.18,-0.01,0.3
2022-11-11 12:53:15.5550,-0.28,-0.16,-0.01,0.32
2022-11-11 12:53:15.6240,-0.35,-0.11,0.08,0.37
2022-11-11 12:53:15.6270,-0.46,-0.07,0.32,0.56
2022-11-11 12:53:15.6370,-0.31,0.07,0.41,0.51
2022-11-11 12:53:15.6410,-0.09,0.06,0.44,0.45
2022-11-11 12:53:15.6530,0.0,-0.06,0.43,0.43
2022-11-11 12:53:15.6570,0.2,-0.06,0.37,0.42
2022-11-11 12:53:15.6680,0.32,0.02,0.31,0.44
2022-11-11 12:53:15.6710,0.21,0.1,0.37,0.43
2022-11-11 12:53:15.6850,0.17,0.2,0.33,0.42
2022-11-11 12:53:15.6880,0.11,0.15,0.31,0.36
2022-11-11 12:53:15.7570,-0.04,0.0,0.32,0.32
2022-11-11 12:53:15.7610,-0.08,-0.09,0.29,0.31
2022-11-11 12:53:15.7700,-0.12,-0.11,0.3,0.34
2022-11-11 12:53:15.7740,-0.07,-0.03,0.27,0.28
2022-11-11 12:53:15.7870,0.05,0.06,0.22,0.23
2022-11-11 12:53:15.7900,0.07,0.13,0.12,0.19
2022-11-11 12:53:15.8020,-0.02,0.16,0.1,0.18
2022-11-11 12:53:15.8050,-0.27,0.02,0.21,0.34
2022-11-11 12:53:15.8180,-0.46,-0.1,0.29,0.55
2022-11-11 12:53:15.8210,-0.38,-0.04,0.21,0.43
2022-11-11 12:53:15.8910,-0.33,0.04,0.04,0.33
2022-11-11 12:53:15.8950,-0.39,0.0,-0.18,0.42
2022-11-11 12:53:15.9040,-0.33,-0.04,-0.36,0.49
2022-11-11 12:53:15.9070,-0.22,0.04,-0.49,0.53
2022-11-11 12:53:15.9200,-0.32,0.1,-0.52,0.61
2022-11-11 12:53:15.9240,-0.54,-0.01,-0.43,0.69
2022-11-11 12:53:15.9350,-0.55,-0.17,-0.2,0.6
2022-11-11 12:53:15.9380,-0.26,-0.12,0.0,0.28
2022-11-11 12:53:15.9510,0.15,0.04,0.09,0.17
2022-11-11 12:53:15.9550,0.52,0.21,0.1,0.56
2022-11-11 12:53:16.0240,0.72,0.31,0.0,0.78
2022-11-11 12:53:16.0270,0.41,0.21,-0.15,0.48
2022-11-11 12:53:16.0370,-0.19,-0.04,-0.18,0.26
2022-11-11 12:53:16.0410,-0.63,-0.19,-0.12,0.66
2022-11-11 12:53:16.0530,-0.75,-0.16,-0.05,0.76
2022-11-11 12:53:16.0570,-0.62,-0.11,-0.05,0.63
2022-11-11 12:53:16.0680,-0.3,-0.1,-0.13,0.34
2022-11-11 12:53:16.0710,0.06,-0.04,-0.14,0.15
2022-11-11 12:53:16.0850,0.29,0.13,-0.03,0.31
2022-11-11 12:53:16.0880,0.31,0.18,0.06,0.36
2022-11-11 12:53:16.1550,0.18,0.0,0.12,0.21
2022-11-11 12:53:16.1590,0.08,-0.1,0.25,0.28
2022-11-11 12:53:16.1700,-0.03,0.01,0.41,0.41
2022-11-11 12:53:16.1740,-0.03,0.29,0.51,0.58
2022-11-11 12:53:16.1860,-0.02,0.5,0.48,0.69
2022-11-11 12:53:16.1900,-0.16,0.45,0.23,0.53
2022-11-11 12:53:16.2010,-0.4,0.15,-0.1,0.43
2022-11-11 12:53:16.2050,-0.69,-0.15,-0.27,0.75
2022-11-11 12:53:16.2180,-1.03,-0.38,-0.23,1.12
2022-11-11 12:53:16.2220,-1.1,-0.5,-0.49,1.3
2022-11-11 12:53:16.2890,-0.72,-0.42,-0.87,1.2
2022-11-11 12:53:16.2930,-0.33,-0.25,-0.81,0.9
2022-11-11 12:53:16.3040,-0.08,0.02,-0.46,0.46
2022-11-11 12:53:16.3080,-0.08,0.17,-0.21,0.28
2022-11-11 12:53:16.3200,-0.25,0.13,-0.04,0.28
2022-11-11 12:53:16.3230,-0.2,0.14,0.08,0.25
2022-11-11 12:53:16.3350,-0.2,0.08,0.14,0.25
2022-11-11 12:53:16.3380,-0.24,-0.01,0.03,0.24
2022-11-11 12:53:16.3510,-0.19,-0.04,0.0,0.19
2022-11-11 12:53:16.3550,-0.16,-0.17,-0.17,0.28
2022-11-11 12:53:16.4230,-0.1,-0.23,-0.29,0.38
2022-11-11 12:53:16.4260,-0.07,-0.1,-0.14,0.18
2022-11-11 12:53:16.4370,0.02,0.11,-0.11,0.15
2022-11-11 12:53:16.4410,0.26,0.23,-0.23,0.41
2022-11-11 12:53:16.4530,0.2,0.11,-0.28,0.36
2022-11-11 12:53:16.4570,0.07,-0.08,-0.13,0.16
2022-11-11 12:53:16.4680,0.28,0.0,0.17,0.32
2022-11-11 12:53:16.4720,0.55,0.13,0.28,0.63
2022-11-11 12:53:16.4850,0.57,0.13,0.06,0.58
2022-11-11 12:53:16.4880,0.29,0.13,-0.11,0.33
2022-11-11 12:53:16.5550,0.06,0.13,-0.12,0.18
2022-11-11 12:53:16.5590,0.02,0.18,-0.02,0.18
2022-11-11 12:53:16.5700,-0.03,0.33,0.07,0.33
2022-11-11 12:53:16.5740,-0.01,0.36,0.06,0.36
2022-11-11 12:53:16.5860,0.2,0.19,-0.07,0.28
2022-11-11 12:53:16.5900,0.33,0.04,-0.14,0.36
2022-11-11 12:53:16.6020,0.24,-0.02,-0.08,0.25
2022-11-11 12:53:16.6050,0.15,-0.1,0.01,0.18
2022-11-11 12:53:16.6180,0.13,-0.14,0.01,0.19
2022-11-11 12:53:16.6220,0.17,-0.03,-0.12,0.21
2022-11-11 12:53:16.6920,0.11,0.01,-0.32,0.33
2022-11-11 12:53:16.6960,-0.12,-0.08,-0.48,0.5
2022-11-11 12:53:16.7040,-0.51,-0.21,-0.52,0.75
2022-11-11 12:53:16.7080,-0.84,-0.28,-0.45,0.99
2022-11-11 12:53:16.7210,-0.86,-0.22,-0.21,0.91
2022-11-11 12:53:16.7240,-0.66,-0.09,-0.07,0.66
2022-11-11 12:53:16.7350,-0.49,0.01,-0.17,0.51
2022-11-11 12:53:16.7380,-0.36,0.01,-0.18,0.4
2022-11-11 12:53:16.7510,-0.08,0.01,0.08,0.11
2022-11-11 12:53:16.7550,0.12,0.16,0.27,0.33
2022-11-11 12:53:16.8220,-0.07,0.29,0.31,0.43
2022-11-11 12:53:16.8260,-0.3,0.28,0.39,0.56
2022-11-11 12:53:16.8370,-0.32,0.23,0.4,0.56
2022-11-11 12:53:16.8400,-0.24,0.12,0.31,0.41
2022-11-11 12:53:16.8530,0.02,0.02,0.03,0.04
2022-11-11 12:53:16.8570,0.13,0.04,0.0,0.13
2022-11-11 12:53:16.8680,0.19,0.11,0.12,0.25
2022-11-11 12:53:16.8720,0.26,0.13,0.09,0.3
2022-11-11 12:53:16.8850,0.08,0.2,-0.01,0.21
2022-11-11 12:53:16.8880,-0.22,0.27,0.0,0.34
2022-11-11 12:53:16.9550,-0.33,0.27,0.0,0.42
2022-11-11 12:53:16.9580,-0.2,0.15,0.0,0.25
2022-11-11 12:53:16.9700,0.38,0.08,0.11,0.4
2022-11-11 12:53:16.9740,0.83,0.17,0.2,0.87
2022-11-11 12:53:16.9860,0.69,0.24,0.07,0.73
2022-11-11 12:53:16.9900,0.36,0.21,-0.01,0.41
2022-11-11 12:53:17.0020,0.12,0.18,0.03,0.21
2022-11-11 12:53:17.0050,-0.09,0.14,0.03,0.16
2022-11-11 12:53:17.0180,-0.24,0.09,-0.01,0.25
2022-11-11 12:53:17.0220,-0.25,0.0,-0.14,0.28
2022-11-11 12:53:17.0900,-0.15,-0.08,-0.29,0.33
2022-11-11 12:53:17.0930,-0.1,0.0,-0.25,0.26
2022-11-11 12:53:17.1040,-0.07,0.1,-0.2,0.23
2022-11-11 12:53:17.1070,-0.03,0.06,-0.18,0.19
2022-11-11 12:53:17.1200,0.03,-0.04,-0.12,0.13
2022-11-11 12:53:17.1230,0.09,-0.06,-0.08,0.13
2022-11-11 12:53:17.1350,0.21,0.02,-0.04,0.21
2022-11-11 12:53:17.1380,0.38,0.26,0.21,0.5
2022-11-11 12:53:17.1520,0.39,0.4,0.18,0.58
2022-11-11 12:53:17.1550,0.41,0.33,0.12,0.53
2022-11-11 12:53:17.2230,0.46,0.2,0.1,0.51
2022-11-11 12:53:17.2260,0.19,0.01,-0.04,0.19
2022-11-11 12:53:17.2370,-0.22,-0.12,-0.04,0.25
2022-11-11 12:53:17.2400,-0.41,-0.11,-0.26,0.49
2022-11-11 12:53:17.2530,-0.15,-0.04,-0.32,0.35
2022-11-11 12:53:17.2570,0.1,-0.03,-0.24,0.26
2022-11-11 12:53:17.2690,0.29,-0.2,-0.18,0.39
2022-11-11 12:53:17.2720,0.47,-0.25,-0.07,0.53
2022-11-11 12:53:17.2850,0.38,-0.08,0.07,0.39
2022-11-11 12:53:17.2880,0.19,0.09,0.06,0.21
2022-11-11 12:53:17.3560,0.1,0.14,0.04,0.17
2022-11-11 12:53:17.3590,0.0,0.07,0.12,0.13
2022-11-11 12:53:17.3700,-0.19,-0.05,0.15,0.24
2022-11-11 12:53:17.3740,-0.36,0.0,-0.1,0.37
2022-11-11 12:53:17.3870,-0.05,0.18,0.03,0.18
2022-11-11 12:53:17.3900,0.13,0.26,-0.05,0.29
2022-11-11 12:53:17.4020,-0.11,0.2,-0.23,0.32
2022-11-11 12:53:17.4050,-0.25,0.12,-0.14,0.31
2022-11-11 12:53:17.4180,-0.08,0.01,-0.05,0.09
2022-11-11 12:53:17.4210,0.25,-0.06,-0.04,0.26
2022-11-11 12:53:17.4900,0.43,-0.02,0.02,0.43
2022-11-11 12:53:17.4930,0.4,0.06,-0.01,0.4
2022-11-11 12:53:17.5040,0.23,0.17,-0.04,0.28
2022-11-11 12:53:17.5080,0.03,0.18,0.0,0.18
2022-11-11 12:53:17.5200,-0.12,0.13,-0.02,0.17
2022-11-11 12:53:17.5240,-0.28,0.11,-0.07,0.3
2022-11-11 12:53:17.5350,-0.32,0.15,-0.03,0.35
2022-11-11 12:53:17.5380,-0.16,0.08,-0.06,0.18
2022-11-11 12:53:17.5520,0.06,-0.06,-0.1,0.13
2022-11-11 12:53:17.5550,0.14,-0.19,-0.04,0.23
2022-11-11 12:53:17.6220,0.23,-0.16,-0.08,0.29
2022-11-11 12:53:17.6260,0.32,0.1,-0.06,0.34
2022-11-11 12:53:17.6370,0.37,0.37,-0.04,0.52
2022-11-11 12:53:17.6410,0.27,0.35,-0.09,0.45
2022-11-11 12:53:17.6530,0.04,0.11,-0.06,0.13
2022-11-11 12:53:17.6570,-0.14,-0.16,0.04,0.21
2022-11-11 12:53:17.6680,0.0,-0.13,0.08,0.15
2022-11-11 12:53:17.6720,0.12,0.09,0.11,0.18
2022-11-11 12:53:17.6850,0.08,0.15,0.07,0.18
2022-11-11 12:53:17.6880,0.11,0.13,0.01,0.17
2022-11-11 12:53:17.7560,0.21,0.12,-0.02,0.24
2022-11-11 12:53:17.7600,0.37,0.13,-0.04,0.39
2022-11-11 12:53:17.7700,0.32,0.11,-0.08,0.34
2022-11-11 12:53:17.7740,0.26,-0.01,-0.06,0.26
2022-11-11 12:53:17.7870,0.35,0.04,0.03,0.35
2022-11-11 12:53:17.7900,0.29,0.14,0.09,0.33
2022-11-11 12:53:17.8020,0.13,0.13,-0.03,0.18
2022-11-11 12:53:17.8050,0.1,0.11,-0.03,0.15
2022-11-11 12:53:17.8180,0.04,0.21,0.13,0.25
2022-11-11 12:53:17.8210,-0.09,0.17,0.1,0.21
2022-11-11 12:53:17.8890,-0.12,0.09,0.16,0.21
2022-11-11 12:53:17.8920,-0.11,0.0,0.13,0.17
2022-11-11 12:53:17.9040,-0.11,-0.03,0.05,0.12
2022-11-11 12:53:17.9070,0.12,0.11,0.08,0.18
2022-11-11 12:53:17.9200,0.23,0.15,0.0,0.27
2022-11-11 12:53:17.9230,0.1,0.01,-0.18,0.2
2022-11-11 12:53:17.9350,0.06,-0.1,-0.16,0.19
2022-11-11 12:53:17.9390,-0.14,-0.09,-0.08,0.18
2022-11-11 12:53:17.9510,-0.2,0.1,0.03,0.22
2022-11-11 12:53:17.9550,-0.1,0.27,0.02,0.28
2022-11-11 12:53:18.0270,-0.1,0.19,-0.11,0.24
2022-11-11 12:53:18.0300,-0.11,-0.01,-0.1,0.14
2022-11-11 12:53:18.0370,-0.15,-0.08,-0.21,0.27
2022-11-11 12:53:18.0410,-0.04,0.05,-0.22,0.22
2022-11-11 12:53:18.0540,0.13,0.11,-0.25,0.3
2022-11-11 12:53:18.0580,0.28,0.03,-0.27,0.39
2022-11-11 12:53:18.0690,0.34,-0.03,-0.2,0.39
2022-11-11 12:53:18.0730,0.27,-0.04,-0.11,0.29
2022-11-11 12:53:18.0850,0.26,0.08,0.05,0.27
2022-11-11 12:53:18.0900,0.19,0.22,0.07,0.29
2022-11-11 12:53:19.6110,-0.01,0.3,0.07,0.3
2022-11-11 12:53:19.6240,-0.18,0.17,0.12,0.27
2022-11-11 12:53:19.6380,-0.11,0.04,0.22,0.24
2022-11-11 12:53:19.6490,0.0,0.12,0.17,0.2
2022-11-11 12:53:19.6590,-0.07,0.2,0.01,0.21
2022-11-11 12:53:19.6700,-0.12,0.1,-0.16,0.22
2022-11-11 12:53:19.6800,-0.11,-0.08,-0.2,0.24
2022-11-11 12:53:19.6900,-0.03,-0.25,-0.13,0.28
2022-11-11 12:53:19.7000,0.11,-0.27,-0.12,0.31
2022-11-11 12:53:19.7110,0.28,-0.06,-0.15,0.32
2022-11-11 12:53:19.7420,0.33,0.17,-0.12,0.39
2022-11-11 12:53:19.7530,0.28,0.29,-0.09,0.41
2022-11-11 12:53:19.7630,0.16,0.3,-0.09,0.35
2022-11-11 12:53:19.7730,0.07,0.19,-0.1,0.22
2022-11-11 12:53:19.7840,0.19,0.08,-0.04,0.21
2022-11-11 12:53:19.7940,0.28,0.07,-0.02,0.28
2022-11-11 12:53:19.8040,0.3,0.06,-0.02,0.3
2022-11-11 12:53:19.8150,0.29,0.08,0.02,0.3
2022-11-11 12:53:19.8260,0.09,0.04,0.0,0.09
2022-11-11 12:53:19.8360,-0.11,-0.01,0.06,0.12
2022-11-11 12:53:19.8680,-0.28,0.02,0.1,0.29
2022-11-11 12:53:19.9370,-0.31,0.13,0.03,0.33
2022-11-11 12:53:19.9500,-0.22,0.23,-0.12,0.34
2022-11-11 12:53:19.9610,-0.07,0.15,-0.24,0.29
2022-11-11 12:53:19.9730,-0.04,0.01,-0.3,0.3
2022-11-11 12:53:19.9930,0.05,-0.04,-0.26,0.26
2022-11-11 12:53:20.0110,0.12,0.0,-0.27,0.29
2022-11-11 12:53:20.0230,0.1,0.04,-0.21,0.23
2022-11-11 12:53:20.0340,0.03,0.09,0.06,0.11
2022-11-11 12:53:20.0460,0.09,0.26,0.19,0.33
2022-11-11 12:53:20.0780,0.01,0.34,0.2,0.39
2022-11-11 12:53:20.0900,-0.08,0.25,0.25,0.36
2022-11-11 12:53:20.1000,0.06,0.18,0.15,0.24
2022-11-11 12:53:20.1100,0.13,0.19,0.01,0.23
2022-11-11 12:53:20.1220,-0.04,0.15,-0.1,0.18
2022-11-11 12:53:20.1320,-0.06,0.05,-0.19,0.2
2022-11-11 12:53:20.1430,-0.09,-0.05,-0.3,0.31
2022-11-11 12:53:20.1580,-0.1,-0.13,-0.24,0.29
2022-11-11 12:53:20.1700,0.0,-0.14,-0.03,0.14
2022-11-11 12:53:20.1820,0.11,0.0,0.14,0.17
2022-11-11 12:53:20.2160,0.16,0.26,0.21,0.37
2022-11-11 12:53:20.2270,-0.06,0.34,0.12,0.36
2022-11-11 12:53:20.2370,-0.32,0.18,0.01,0.36
2022-11-11 12:53:20.2490,-0.39,0.04,-0.01,0.39
2022-11-11 12:53:20.2600,-0.44,-0.02,-0.12,0.45
2022-11-11 12:53:20.2700,-0.46,-0.07,-0.18,0.49
2022-11-11 12:53:20.2820,-0.23,-0.05,-0.23,0.32
2022-11-11 12:53:20.2930,0.22,-0.03,-0.19,0.29
2022-11-11 12:53:20.3030,0.47,0.03,-0.06,0.47
2022-11-11 12:53:20.3150,0.46,0.18,0.02,0.49
2022-11-11 12:53:20.3490,0.19,0.32,0.07,0.37
2022-11-11 12:53:20.3600,-0.14,0.3,0.06,0.33
2022-11-11 12:53:20.3710,-0.28,0.18,0.1,0.34
2022-11-11 12:53:20.3810,-0.31,0.1,0.11,0.34
2022-11-11 12:53:20.3920,-0.31,0.03,0.0,0.31
2022-11-11 12:53:20.4030,-0.23,0.0,-0.14,0.26
2022-11-11 12:53:20.4130,-0.1,-0.03,-0.27,0.28
2022-11-11 12:53:20.4250,0.1,-0.14,-0.22,0.27
2022-11-11 12:53:20.4350,0.31,-0.13,-0.01,0.33
2022-11-11 12:53:20.4460,0.4,0.05,0.22,0.45
2022-11-11 12:53:20.4810,0.3,0.31,0.3,0.52
2022-11-11 12:53:20.4940,-0.03,0.37,0.27,0.45
2022-11-11 12:53:20.5050,-0.33,0.22,0.2,0.44
2022-11-11 12:53:20.5170,-0.57,0.01,0.1,0.57
2022-11-11 12:53:20.5280,-0.61,-0.15,0.01,0.62
2022-11-11 12:53:20.5380,-0.32,-0.15,-0.09,0.36
2022-11-11 12:53:20.5480,0.01,-0.09,-0.22,0.23
2022-11-11 12:53:20.5620,0.33,-0.01,-0.3,0.44
2022-11-11 12:53:20.5780,0.52,0.07,-0.24,0.57
2022-11-11 12:53:20.5890,0.59,0.18,-0.12,0.62
2022-11-11 12:53:20.6210,0.54,0.23,-0.01,0.58
2022-11-11 12:53:20.6310,0.23,0.14,0.09,0.28
2022-11-11 12:53:20.8030,0.04,0.09,0.14,0.17
2022-11-11 12:53:20.8800,-0.13,0.1,0.13,0.2
2022-11-11 12:53:21.0220,-0.23,0.09,0.13,0.27
2022-11-11 12:53:21.0420,-0.14,0.09,0.12,0.2
2022-11-11 12:53:21.0610,-0.02,0.05,0.0,0.05
2022-11-11 12:53:21.0730,0.1,-0.01,-0.12,0.15
2022-11-11 12:53:21.0860,0.19,-0.02,-0.15,0.24
2022-11-11 12:53:21.0990,0.24,-0.01,-0.13,0.27
2022-11-11 12:53:21.1350,0.32,0.01,-0.02,0.32
2022-11-11 12:53:21.1460,0.27,0.05,0.11,0.29
2022-11-11 12:53:21.1670,0.02,0.1,0.09,0.13
2022-11-11 12:53:21.1790,-0.23,0.12,0.14,0.29
2022-11-11 12:53:21.1900,-0.49,0.06,0.15,0.51
2022-11-11 12:53:21.2000,-0.61,-0.02,-0.01,0.61
2022-11-11 12:53:21.2110,-0.41,-0.03,-0.03,0.41
2022-11-11 12:53:21.2220,-0.04,0.0,-0.02,0.04
2022-11-11 12:53:21.2350,0.22,-0.03,-0.08,0.23
2022-11-11 12:53:21.2460,0.35,-0.04,-0.03,0.35
2022-11-11 12:53:21.2880,0.45,0.08,0.05,0.45
2022-11-11 12:53:21.2980,0.36,0.19,0.08,0.41
2022-11-11 12:53:21.3090,0.09,0.12,0.08,0.17
2022-11-11 12:53:21.3230,0.0,0.07,0.09,0.11
2022-11-11 12:53:21.3350,-0.05,0.14,0.11,0.18
2022-11-11 12:53:21.3750,-0.2,0.13,0.06,0.24
2022-11-11 12:53:21.3870,-0.27,-0.02,-0.03,0.27
2022-11-11 12:53:21.3980,-0.14,-0.08,-0.06,0.17
2022-11-11 12:53:21.4110,0.12,0.01,-0.11,0.16
2022-11-11 12:53:21.4230,0.28,0.04,-0.16,0.32
2022-11-11 12:53:21.4530,0.27,0.06,-0.09,0.29
2022-11-11 12:53:21.4630,0.08,0.01,-0.06,0.1
2022-11-11 12:53:21.4740,-0.08,-0.02,0.05,0.09
2022-11-11 12:53:21.4860,-0.02,0.14,0.16,0.21
2022-11-11 12:53:21.4980,-0.03,0.23,0.14,0.27
2022-11-11 12:53:21.5090,-0.04,0.11,0.1,0.15
2022-11-11 12:53:21.5390,0.09,0.02,0.02,0.09
2022-11-11 12:53:21.5510,0.22,0.01,0.04,0.22
2022-11-11 12:53:21.5620,0.27,0.04,0.08,0.28
2022-11-11 12:53:21.5750,0.29,0.2,0.04,0.35
2022-11-11 12:53:21.6060,0.12,0.29,0.02,0.31
2022-11-11 12:53:21.6170,-0.16,0.05,0.0,0.16
2022-11-11 12:53:21.6310,-0.26,-0.14,-0.08,0.3
2022-11-11 12:53:21.6450,-0.28,-0.12,-0.11,0.32
2022-11-11 12:53:21.6550,-0.27,-0.02,-0.11,0.29
2022-11-11 12:53:21.6670,-0.21,0.02,-0.14,0.25
2022-11-11 12:53:21.6930,-0.03,0.06,-0.1,0.12
2022-11-11 12:53:21.7030,0.24,0.1,-0.03,0.26
2022-11-11 12:53:21.7140,0.35,0.16,0.01,0.38
2022-11-11 12:53:21.7720,0.3,0.22,0.03,0.37
2022-11-11 12:53:21.8100,0.1,0.21,0.01,0.23
2022-11-11 12:53:21.8240,-0.06,0.12,-0.01,0.13
2022-11-11 12:53:21.8400,-0.09,0.03,0.06,0.11
2022-11-11 12:53:21.8520,-0.14,-0.04,0.16,0.21
2022-11-11 12:53:21.8620,-0.13,0.0,0.19,0.23
2022-11-11 12:53:21.8730,0.04,0.14,0.09,0.17
2022-11-11 12:53:21.9110,0.06,0.17,-0.04,0.18
2022-11-11 12:53:21.9230,0.08,0.07,-0.1,0.14
2022-11-11 12:53:21.9330,0.15,0.02,-0.06,0.16
2022-11-11 12:53:21.9450,0.09,0.03,-0.02,0.09
2022-11-11 12:53:22.0060,-0.01,0.13,0.01,0.13
2022-11-11 12:53:22.0170,-0.16,0.16,-0.03,0.22
2022-11-11 12:53:22.0270,-0.17,0.1,-0.1,0.22
2022-11-11 12:53:22.0370,-0.24,0.0,-0.17,0.29
2022-11-11 12:53:22.0470,-0.27,-0.08,-0.23,0.36
2022-11-11 12:53:22.0570,-0.04,-0.09,-0.25,0.26
2022-11-11 12:53:22.0670,0.26,-0.03,-0.22,0.34
2022-11-11 12:53:22.0780,0.4,0.12,-0.03,0.41
2022-11-11 12:53:22.0880,0.41,0.25,0.12,0.49
2022-11-11 12:53:22.0970,0.35,0.32,0.21,0.51
2022-11-11 12:53:22.1270,0.09,0.29,0.2,0.36
2022-11-11 12:53:22.1370,-0.26,0.13,0.16,0.33
2022-11-11 12:53:22.1480,-0.38,0.02,0.11,0.39
2022-11-11 12:53:22.1580,-0.26,0.03,0.11,0.28
2022-11-11 12:53:22.1680,-0.11,-0.02,0.04,0.11
2022-11-11 12:53:22.1770,0.11,0.02,-0.14,0.17
2022-11-11 12:53:22.1870,0.22,0.04,-0.23,0.32
2022-11-11 12:53:22.1970,0.06,-0.03,-0.23,0.23
2022-11-11 12:53:22.2090,-0.01,-0.03,-0.16,0.16
2022-11-11 12:53:22.2180,-0.01,0.03,0.01,0.03
2022-11-11 12:53:22.2470,-0.13,0.13,0.1,0.2
2022-11-11 12:53:22.2570,-0.25,0.14,0.13,0.31
2022-11-11 12:53:22.2670,-0.2,0.08,0.12,0.24
2022-11-11 12:53:22.2780,0.0,0.07,0.02,0.07
2022-11-11 12:53:22.2880,0.04,0.08,-0.03,0.09
2022-11-11 12:53:22.2980,0.05,0.09,-0.09,0.13
2022-11-11 12:53:22.3080,0.18,0.12,-0.1,0.23
2022-11-11 12:53:22.3180,0.22,0.12,-0.09,0.26
2022-11-11 12:53:22.3290,0.1,0.08,-0.1,0.16
2022-11-11 12:53:22.3390,0.0,0.07,-0.03,0.07
2022-11-11 12:53:22.3680,-0.04,0.05,0.08,0.1
2022-11-11 12:53:22.3780,-0.12,0.02,0.13,0.17
2022-11-11 12:53:22.3870,-0.16,0.02,0.13,0.2
2022-11-11 12:53:22.3960,-0.07,0.07,0.09,0.13
2022-11-11 12:53:22.4070,-0.03,0.12,0.02,0.12
2022-11-11 12:53:22.4160,-0.05,0.12,-0.07,0.14
2022-11-11 12:53:22.4260,-0.07,0.08,-0.16,0.19
2022-11-11 12:53:22.4360,-0.03,0.05,-0.12,0.13
2022-11-11 12:53:22.4460,0.01,0.04,-0.09,0.09
2022-11-11 12:53:22.4560,0.05,0.0,-0.07,0.08
2022-11-11 12:53:22.4850,0.11,0.06,0.02,0.12
2022-11-11 12:53:22.4960,0.12,0.16,0.03,0.2
2022-11-11 12:53:22.5060,-0.02,0.13,0.06,0.14
2022-11-11 12:53:22.5150,-0.11,0.04,0.08,0.14
2022-11-11 12:53:22.5260,-0.07,0.05,0.06,0.1
2022-11-11 12:53:22.5350,-0.05,0.09,0.06,0.11
2022-11-11 12:53:22.5450,-0.1,0.06,-0.01,0.11
2022-11-11 12:53:22.5550,-0.12,0.01,-0.13,0.17
2022-11-11 12:53:22.5650,-0.11,-0.04,-0.15,0.19
2022-11-11 12:53:22.5760,-0.04,0.0,-0.12,0.12
2022-11-11 12:53:22.6060,0.06,0.07,-0.04,0.1
2022-11-11 12:53:22.6170,0.09,0.11,-0.05,0.15
2022-11-11 12:53:22.6270,0.09,0.09,-0.11,0.16
2022-11-11 12:53:22.6370,0.16,0.05,-0.09,0.19
2022-11-11 12:53:22.6460,0.28,0.05,0.0,0.28
2022-11-11 12:53:22.6560,0.47,0.14,0.13,0.5
2022-11-11 12:53:22.6660,0.46,0.29,0.16,0.56
2022-11-11 12:53:22.6760,0.26,0.33,0.13,0.43
2022-11-11 12:53:22.6860,-0.04,0.25,0.02,0.25
2022-11-11 12:53:22.6970,-0.41,0.07,-0.09,0.42
2022-11-11 12:53:22.7250,-0.67,-0.12,-0.21,0.71
2022-11-11 12:53:22.7360,-0.59,-0.22,-0.27,0.68
2022-11-11 12:53:22.7450,-0.29,-0.21,-0.27,0.44
2022-11-11 12:53:22.7560,0.11,-0.1,-0.19,0.24
2022-11-11 12:53:22.7660,0.37,0.07,-0.07,0.38
2022-11-11 12:53:22.7760,0.41,0.2,0.01,0.45
2022-11-11 12:53:22.7870,0.35,0.29,0.08,0.46
2022-11-11 12:53:22.7970,0.14,0.31,0.09,0.35
2022-11-11 12:53:22.8070,-0.06,0.24,0.08,0.26
2022-11-11 12:53:22.8220,-0.18,0.11,0.05,0.21
2022-11-11 12:53:22.8510,-0.25,0.0,-0.02,0.25
2022-11-11 12:53:22.8610,-0.21,-0.08,-0.08,0.23
2022-11-11 12:53:22.8700,-0.03,-0.08,-0.08,0.11
2022-11-11 12:53:22.8810,0.17,0.01,-0.11,0.2
2022-11-11 12:53:22.8900,0.34,0.09,-0.11,0.36
2022-11-11 12:53:22.9000,0.42,0.2,-0.03,0.46
2022-11-11 12:54:31.2200,0.23,0.22,-0.03,0.31
2022-11-11 12:54:31.2220,0.03,0.14,-0.02,0.14
2022-11-11 12:54:31.2240,-0.07,0.02,-0.03,0.07
2022-11-11 12:54:31.2260,-0.06,-0.05,-0.05,0.09
2022-11-11 12:54:31.2360,0.05,0.01,0.02,0.05
2022-11-11 12:54:31.2380,0.06,0.13,0.06,0.15
2022-11-11 12:54:31.2400,0.14,0.18,0.08,0.24
2022-11-11 12:54:31.2420,0.25,0.19,0.06,0.31
2022-11-11 12:54:31.2440,0.07,0.17,-0.04,0.18
2022-11-11 12:54:31.2460,-0.2,0.07,-0.1,0.23
2022-11-11 12:54:31.2490,-0.35,-0.05,-0.12,0.37
2022-11-11 12:54:31.2510,-0.31,-0.09,-0.05,0.32
2022-11-11 12:54:31.2530,-0.16,-0.07,-0.07,0.18
2022-11-11 12:54:31.2580,-0.1,0.0,-0.14,0.17
2022-11-11 12:54:31.2700,-0.06,0.02,-0.13,0.14
2022-11-11 12:54:31.3100,0.09,0.07,-0.07,0.13
2022-11-11 12:54:31.3140,0.18,0.12,-0.03,0.21
2022-11-11 12:54:31.3190,0.15,0.11,-0.01,0.18
2022-11-11 12:54:31.3230,0.02,0.09,-0.07,0.11
2022-11-11 12:54:31.3280,0.02,0.08,-0.08,0.11
2022-11-11 12:54:31.3300,0.19,0.18,-0.01,0.26
2022-11-11 12:54:31.3360,0.2,0.18,-0.02,0.26
2022-11-11 12:54:31.3440,0.19,0.1,-0.06,0.22
2022-11-11 12:54:31.3470,0.21,0.08,-0.06,0.23
2022-11-11 12:54:31.3650,0.08,0.01,-0.1,0.12
2022-11-11 12:54:31.3700,0.03,0.01,-0.1,0.1
2022-11-11 12:54:31.3770,0.02,0.12,-0.06,0.13
2022-11-11 12:54:31.3810,0.05,0.12,-0.06,0.14
2022-11-11 12:54:31.3930,0.15,0.08,-0.09,0.19
2022-11-11 12:54:31.3980,0.24,0.11,-0.07,0.27
2022-11-11 12:54:31.4100,0.21,0.14,-0.03,0.25
2022-11-11 12:54:31.4140,0.02,0.11,-0.12,0.16
2022-11-11 12:54:31.4300,-0.13,0.1,-0.12,0.2
2022-11-11 12:54:31.4320,-0.28,0.04,-0.14,0.31
2022-11-11 12:54:31.4490,-0.39,-0.06,-0.18,0.43
2022-11-11 12:54:31.4540,-0.31,-0.07,-0.09,0.33
2022-11-11 12:54:31.4590,-0.14,0.04,0.0,0.14
2022-11-11 12:54:31.4630,-0.02,0.11,-0.04,0.11
2022-11-11 12:54:31.4780,-0.09,0.07,-0.15,0.18
2022-11-11 12:54:31.4810,-0.05,0.01,-0.14,0.14
2022-11-11 12:54:31.4940,0.17,-0.03,-0.03,0.17
2022-11-11 12:54:31.5010,0.28,0.05,0.09,0.29
2022-11-11 12:54:31.5100,0.16,0.14,0.1,0.23
2022-11-11 12:54:31.5140,0.02,0.16,0.03,0.16
2022-11-11 12:54:31.5280,-0.04,0.17,0.12,0.21
2022-11-11 12:54:31.5320,-0.02,0.11,0.17,0.2
2022-11-11 12:54:31.5430,0.06,0.12,0.19,0.23
2022-11-11 12:54:31.5460,0.03,0.14,0.1,0.17
2022-11-11 12:54:31.5600,0.06,0.12,0.02,0.13
2022-11-11 12:54:31.5630,0.05,0.1,0.03,0.11
2022-11-11 12:54:31.5760,-0.04,0.05,0.01,0.06
2022-11-11 12:54:31.5800,-0.03,0.03,-0.01,0.04
2022-11-11 12:54:31.5930,-0.08,0.0,-0.11,0.13
2022-11-11 12:54:31.5970,-0.18,-0.04,-0.18,0.25
2022-11-11 12:54:31.6110,-0.07,-0.06,-0.04,0.1
2022-11-11 12:54:31.6150,0.0,-0.01,0.08,0.08
2022-11-11 12:54:31.6260,-0.04,0.09,0.14,0.17
2022-11-11 12:54:31.6300,-0.12,0.12,0.1,0.19
2022-11-11 12:54:31.6440,-0.13,0.12,0.08,0.19
2022-11-11 12:54:31.6470,-0.18,0.08,0.08,0.21
2022-11-11 12:54:31.6590,-0.18,0.04,-0.03,0.18
2022-11-11 12:54:31.6630,-0.1,0.07,-0.1,0.15
2022-11-11 12:54:31.6700,0.01,0.07,-0.14,0.15
2022-11-11 12:54:31.6760,0.06,0.03,-0.16,0.17
2022-11-11 12:54:31.6900,0.07,0.03,-0.14,0.15
2022-11-11 12:54:31.6940,0.08,0.08,-0.04,0.12
2022-11-11 12:54:31.6970,0.03,0.09,0.07,0.11
2022-11-11 12:54:31.7100,-0.05,0.09,0.08,0.13
2022-11-11 12:54:31.7130,-0.07,0.08,0.06,0.12
2022-11-11 12:54:31.7270,-0.13,0.05,0.06,0.15
2022-11-11 12:54:31.7310,-0.21,0.04,-0.01,0.21
2022-11-11 12:54:31.7440,-0.2,0.07,-0.06,0.22
2022-11-11 12:54:31.7490,-0.14,0.08,-0.08,0.18
2022-11-11 12:54:31.7600,-0.09,0.04,-0.07,0.12
2022-11-11 12:54:31.7770,-0.07,0.0,-0.08,0.1
2022-11-11 12:54:31.7820,0.03,0.03,-0.07,0.08
2022-11-11 12:54:31.7940,0.13,0.08,0.0,0.15
2022-11-11 12:54:31.7990,0.16,0.11,0.03,0.19
2022-11-11 12:54:31.8140,0.04,0.12,0.03,0.13
2022-11-11 12:54:31.8390,-0.12,0.08,-0.01,0.14
2022-11-11 12:54:31.8410,-0.13,0.06,-0.03,0.14
2022-11-11 12:54:31.8450,-0.08,0.07,-0.02,0.1
2022-11-11 12:54:31.8470,-0.09,0.08,-0.02,0.12
2022-11-11 12:54:31.8520,-0.12,0.08,-0.02,0.14
2022-11-11 12:54:31.8660,-0.09,0.1,-0.01,0.13
2022-11-11 12:54:31.8700,-0.09,0.07,-0.07,0.13
2022-11-11 12:54:31.8730,-0.01,-0.01,-0.1,0.1
2022-11-11 12:54:31.8770,0.07,0.0,-0.08,0.1
2022-11-11 12:54:31.8850,0.06,0.06,-0.12,0.14
2022-11-11 12:54:31.8880,0.0,0.08,-0.12,0.14
2022-11-11 12:54:31.9010,-0.08,0.04,-0.08,0.12
2022-11-11 12:54:31.9050,-0.01,0.02,0.07,0.07
2022-11-11 12:54:31.9180,0.07,0.07,0.21,0.23
2022-11-11 12:54:31.9210,0.02,0.14,0.28,0.31
2022-11-11 12:54:31.9350,-0.02,0.21,0.29,0.35
2022-11-11 12:54:31.9380,-0.08,0.21,0.19,0.29
2022-11-11 12:54:31.9530,-0.25,0.1,0.02,0.27
2022-11-11 12:54:31.9570,-0.36,-0.03,-0.09,0.37
2022-11-11 12:54:31.9690,-0.28,-0.07,-0.12,0.31
2022-11-11 12:54:31.9730,-0.17,-0.02,-0.16,0.23
2022-11-11 12:54:31.9850,-0.01,0.0,-0.21,0.21
2022-11-11 12:54:31.9880,0.17,0.0,-0.16,0.23
2022-11-11 12:54:32.0010,0.19,0.05,0.0,0.19
2022-11-11 12:54:32.0050,0.13,0.12,0.08,0.19
2022-11-11 12:54:32.0180,-0.03,0.16,0.1,0.19
2022-11-11 12:54:32.0220,-0.13,0.18,0.14,0.26
2022-11-11 12:54:32.0360,-0.12,0.19,0.15,0.27
2022-11-11 12:54:32.0400,-0.12,0.12,0.09,0.19
2022-11-11 12:54:32.0520,-0.07,0.04,-0.01,0.08
2022-11-11 12:54:32.0550,-0.01,-0.02,-0.13,0.13
2022-11-11 12:54:32.0680,0.01,-0.01,-0.17,0.17
2022-11-11 12:54:32.0710,0.11,0.01,-0.09,0.14
2022-11-11 12:54:32.0850,0.2,0.01,0.03,0.2
2022-11-11 12:54:32.0880,0.26,0.02,0.05,0.26
2022-11-11 12:54:32.1010,0.18,0.1,-0.01,0.2
2022-11-11 12:54:32.1050,-0.07,0.14,-0.07,0.17
2022-11-11 12:54:32.1200,-0.16,0.12,-0.04,0.2
2022-11-11 12:54:32.1230,-0.13,0.08,-0.01,0.15
2022-11-11 12:54:32.1360,-0.08,0.01,-0.04,0.09
2022-11-11 12:54:32.1390,0.1,0.01,-0.03,0.1
2022-11-11 12:54:32.1510,0.3,0.12,-0.06,0.32
2022-11-11 12:54:32.1550,0.24,0.08,-0.12,0.27
2022-11-11 12:54:32.1680,0.34,0.03,-0.02,0.34
2022-11-11 12:54:32.1720,0.48,0.19,0.07,0.52
2022-11-11 12:54:32.1850,0.43,0.26,-0.05,0.5
2022-11-11 12:54:32.1890,0.42,0.21,-0.11,0.48
2022-11-11 12:54:32.2030,0.36,0.15,-0.12,0.4
2022-11-11 12:54:32.2070,0.22,0.08,-0.13,0.26
2022-11-11 12:54:32.2190,0.2,0.09,-0.06,0.22
2022-11-11 12:54:32.2230,0.23,0.16,-0.04,0.28
2022-11-11 12:54:32.2350,0.27,0.08,-0.07,0.29
2022-11-11 12:54:32.2380,0.38,0.07,0.03,0.38
2022-11-11 12:54:32.2510,0.29,0.14,0.05,0.32
2022-11-11 12:54:32.2550,0.2,0.14,-0.05,0.24
2022-11-11 12:54:32.2680,0.44,0.22,-0.03,0.49
2022-11-11 12:54:32.2720,0.45,0.26,-0.06,0.52
2022-11-11 12:54:32.2860,0.18,0.17,-0.12,0.27
2022-11-11 12:54:32.2900,-0.02,0.08,-0.13,0.15
2022-11-11 12:54:32.3020,-0.23,-0.01,-0.13,0.26
2022-11-11 12:54:32.3050,-0.36,-0.12,-0.1,0.39
2022-11-11 12:54:32.3180,-0.24,-0.13,-0.07,0.28
2022-11-11 12:54:32.3220,-0.05,-0.08,0.03,0.09
2022-11-11 12:54:32.3350,-0.06,0.05,0.08,0.11
2022-11-11 12:54:32.3390,-0.21,0.13,0.0,0.24
2022-11-11 12:54:32.3530,-0.09,0.16,-0.02,0.18
2022-11-11 12:54:32.3560,-0.04,0.1,0.06,0.12
2022-11-11 12:54:32.3690,-0.24,-0.03,0.05,0.24
2022-11-11 12:54:32.3730,-0.45,-0.07,0.01,0.45
2022-11-11 12:54:32.3860,-0.59,-0.07,-0.13,0.6
2022-11-11 12:54:32.3890,-0.42,-0.08,-0.16,0.45
2022-11-11 12:54:32.4010,0.03,0.04,-0.08,0.09
2022-11-11 12:54:32.4050,0.37,0.15,-0.07,0.4
2022-11-11 12:54:32.4180,0.49,0.14,0.06,0.51
2022-11-11 12:54:32.4220,0.53,0.17,0.1,0.56
2022-11-11 12:54:32.4350,0.42,0.2,-0.07,0.47
2022-11-11 12:54:32.4390,0.22,0.08,-0.05,0.23
2022-11-11 12:54:32.4530,-0.11,-0.04,-0.01,0.11
2022-11-11 12:54:32.4570,-0.25,-0.09,-0.08,0.27
2022-11-11 12:54:32.4690,0.0,0.05,0.01,0.05
2022-11-11 12:54:32.4730,0.26,0.17,0.07,0.31
2022-11-11 12:54:32.4850,0.55,0.2,0.03,0.58
2022-11-11 12:54:32.4880,0.7,0.17,0.01,0.72
2022-11-11 12:54:32.5010,0.5,0.06,0.01,0.5
2022-11-11 12:54:32.5050,0.29,0.01,0.0,0.29
2022-11-11 12:54:32.5180,0.21,0.13,0.03,0.24
2022-11-11 12:54:32.5220,0.07,0.23,-0.04,0.24
2022-11-11 12:54:32.5360,-0.13,0.16,-0.03,0.2
2022-11-11 12:54:32.5400,-0.4,-0.01,-0.11,0.41
2022-11-11 12:54:32.5520,-0.51,-0.17,-0.31,0.62
2022-11-11 12:54:32.5560,-0.5,-0.29,-0.29,0.64
2022-11-11 12:54:32.5680,-0.52,-0.31,-0.32,0.68
2022-11-11 12:54:32.5710,-0.6,-0.2,-0.26,0.68
2022-11-11 12:54:32.5850,-0.92,-0.05,-0.09,0.92
2022-11-11 12:54:32.5880,-0.98,0.18,-0.04,0.99
2022-11-11 12:54:32.6010,-0.39,0.4,0.13,0.57
2022-11-11 12:54:32.6050,0.04,0.23,0.12,0.26
2022-11-11 12:54:32.6200,0.22,0.06,0.0,0.22
2022-11-11 12:54:32.6230,0.21,0.08,-0.08,0.23
2022-11-11 12:54:32.6360,0.01,0.05,-0.17,0.17
2022-11-11 12:54:32.6390,0.0,0.02,-0.17,0.17
2022-11-11 12:54:32.6510,0.15,-0.02,-0.11,0.18
2022-11-11 12:54:32.6550,0.24,-0.02,-0.1,0.26
2022-11-11 12:54:32.6680,0.31,0.02,-0.08,0.32
2022-11-11 12:54:32.6710,0.31,0.0,-0.1,0.32
2022-11-11 12:54:32.6840,0.33,-0.05,-0.14,0.36
2022-11-11 12:54:32.6880,0.2,-0.08,-0.21,0.3
2022-11-11 12:54:32.7030,-0.14,-0.04,-0.29,0.32
2022-11-11 12:54:32.7060,-0.37,-0.04,-0.15,0.4
2022-11-11 12:54:32.7190,-0.57,-0.07,0.03,0.57
2022-11-11 12:54:32.7220,-0.56,0.07,0.04,0.56
2022-11-11 12:54:32.7350,-0.27,0.21,0.22,0.4
2022-11-11 12:54:32.7380,-0.04,0.16,0.14,0.21
2022-11-11 12:54:32.7510,0.27,0.16,0.0,0.31
2022-11-11 12:54:32.7550,0.43,0.2,-0.05,0.47
2022-11-11 12:54:32.7680,0.42,0.18,-0.09,0.46
2022-11-11 12:54:32.7720,0.28,0.08,-0.01,0.29
2022-11-11 12:54:32.7860,-0.04,0.03,0.0,0.05
2022-11-11 12:54:32.7890,-0.2,0.07,0.0,0.21
2022-11-11 12:54:32.8020,-0.24,0.08,0.03,0.25
2022-11-11 12:54:32.8050,-0.25,-0.01,0.03,0.25
2022-11-11 12:54:32.8180,-0.18,-0.1,0.03,0.2
2022-11-11 12:54:32.8210,-0.08,-0.08,0.0,0.11
2022-11-11 12:54:32.8350,0.08,-0.06,-0.02,0.1
2022-11-11 12:54:32.8380,0.04,0.01,-0.06,0.07
2022-11-11 12:54:32.8510,-0.05,0.18,-0.11,0.21
2022-11-11 12:54:32.8550,-0.12,0.16,-0.05,0.2
2022-11-11 12:54:32.8690,-0.31,0.01,0.01,0.31
2022-11-11 12:54:32.8730,-0.44,-0.09,-0.03,0.45
2022-11-11 12:54:32.8860,-0.38,-0.1,0.06,0.39
2022-11-11 12:54:32.8890,-0.36,-0.03,-0.13,0.38
2022-11-11 12:54:32.9020,-0.19,0.05,-0.21,0.28
2022-11-11 12:54:32.9050,0.03,0.1,-0.15,0.18
2022-11-11 12:54:32.9180,0.22,0.17,-0.09,0.29
2022-11-11 12:54:32.9220,0.26,0.25,-0.02,0.36
2022-11-11 12:54:32.9350,0.14,0.19,0.11,0.26
2022-11-11 12:54:32.9380,-0.08,0.04,0.15,0.17
2022-11-11 12:54:32.9530,-0.2,-0.03,0.16,0.25
2022-11-11 12:54:32.9570,-0.3,-0.01,0.16,0.34
2022-11-11 12:54:32.9690,-0.37,0.06,0.14,0.4
2022-11-11 12:54:32.9720,-0.42,0.08,0.05,0.43
2022-11-11 12:54:32.9850,-0.23,0.07,-0.05,0.24
2022-11-11 12:54:32.9880,0.06,0.05,-0.13,0.15
2022-11-11 12:54:33.0010,0.22,0.05,-0.16,0.27
2022-11-11 12:54:33.0050,0.24,0.02,-0.17,0.29
2022-11-11 12:54:33.0180,0.17,0.05,-0.11,0.2
2022-11-11 12:54:33.0220,-0.09,0.05,0.02,0.1
