time,ax,ay,az,atotal
2022-11-11 12:52:44.4240,-0.14,-0.22,-0.16,0.3
2022-11-11 12:52:44.4250,-0.35,0.3,-0.03,0.46
2022-11-11 12:52:44.4290,-0.29,0.45,0.19,0.56
2022-11-11 12:52:44.4470,-0.02,0.24,0.15,0.28
2022-11-11 12:52:44.4490,0.19,0.01,0.02,0.19
2022-11-11 12:52:44.4590,0.18,-0.11,-0.06,0.21
2022-11-11 12:52:44.4690,0.12,-0.1,-0.06,0.16
2022-11-11 12:52:44.4790,0.05,-0.02,-0.01,0.05
2022-11-11 12:52:44.4890,-0.02,0.04,0.01,0.04
2022-11-11 12:52:44.4990,-0.07,0.01,-0.06,0.09
2022-11-11 12:52:44.5220,-0.11,-0.01,-0.11,0.15
2022-11-11 12:52:44.5230,-0.12,0.02,-0.09,0.15
2022-11-11 12:52:44.5290,-0.05,0.05,-0.05,0.08
2022-11-11 12:52:44.5390,0.02,0.05,-0.02,0.05
2022-11-11 12:52:44.5490,0.03,0.03,0.0,0.04
2022-11-11 12:52:44.5590,0.01,-0.01,0.04,0.04
2022-11-11 12:52:44.5690,-0.03,-0.02,0.03,0.04
2022-11-11 12:52:44.5790,-0.03,0.04,0.01,0.05
2022-11-11 12:52:44.5880,-0.07,0.1,0.04,0.12
2022-11-11 12:52:44.5990,-0.14,0.1,0.05,0.17
2022-11-11 12:52:44.6210,-0.08,0.05,0.06,0.11
2022-11-11 12:52:44.6230,0.06,-0.02,-0.06,0.08
2022-11-11 12:52:44.6280,0.15,-0.02,-0.12,0.19
2022-11-11 12:52:44.6380,0.25,-0.04,-0.09,0.26
2022-11-11 12:52:44.6480,0.2,-0.01,-0.13,0.23
2022-11-11 12:52:44.6580,0.05,0.02,-0.08,0.09
2022-11-11 12:52:44.6680,-0.08,0.03,0.01,0.08
2022-11-11 12:52:44.6780,-0.22,0.06,-0.05,0.23
2022-11-11 12:52:44.6880,-0.31,0.11,0.0,0.32
2022-11-11 12:52:44.6980,-0.25,0.16,0.12,0.32
2022-11-11 12:52:44.7210,-0.11,0.09,0.07,0.15
2022-11-11 12:52:44.7220,0.06,-0.01,0.01,0.06
2022-11-11 12:52:44.7270,0.1,-0.06,-0.07,0.13
2022-11-11 12:52:44.7370,0.07,-0.05,-0.09,0.12
2022-11-11 12:52:44.7480,0.02,0.02,-0.08,0.08
2022-11-11 12:52:44.7570,-0.14,0.07,-0.13,0.2
2022-11-11 12:52:44.7670,-0.21,0.08,-0.13,0.25
2022-11-11 12:52:44.7770,-0.14,-0.01,-0.06,0.15
2022-11-11 12:52:44.7870,-0.25,-0.29,0.14,0.4
2022-11-11 12:52:44.7970,-0.27,-0.22,0.09,0.35
2022-11-11 12:52:44.8200,-0.17,0.12,-0.03,0.21
2022-11-11 12:52:44.8220,-0.14,0.32,0.04,0.35
2022-11-11 12:52:44.8270,-0.08,0.26,0.07,0.28
2022-11-11 12:52:44.8370,0.06,0.03,0.06,0.09
2022-11-11 12:52:44.8470,0.19,-0.08,0.02,0.2
2022-11-11 12:52:44.8570,0.2,0.01,-0.03,0.2
2022-11-11 12:52:44.8670,0.23,0.06,-0.13,0.27
2022-11-11 12:52:44.8770,0.29,-0.03,-0.13,0.31
2022-11-11 12:52:44.8870,0.29,-0.09,-0.01,0.3
2022-11-11 12:52:44.8970,0.25,-0.1,0.06,0.27
2022-11-11 12:52:44.9200,0.19,-0.08,0.1,0.22
2022-11-11 12:52:44.9220,0.1,-0.01,0.04,0.1
2022-11-11 12:52:44.9260,0.14,0.03,0.01,0.14
2022-11-11 12:52:44.9360,0.18,0.01,0.05,0.18
2022-11-11 12:52:44.9460,0.14,0.0,0.09,0.16
2022-11-11 12:52:44.9560,0.02,-0.01,0.11,0.11
2022-11-11 12:52:44.9660,-0.09,0.0,0.08,0.12
2022-11-11 12:52:44.9760,-0.08,0.0,0.16,0.17
2022-11-11 12:52:44.9860,-0.08,0.0,0.14,0.16
2022-11-11 12:52:44.9960,-0.09,0.0,0.08,0.12
2022-11-11 12:52:45.0210,-0.06,0.01,0.1,0.11
2022-11-11 12:52:45.0220,-0.06,0.04,0.11,0.13
2022-11-11 12:52:45.0250,-0.1,0.08,0.15,0.19
2022-11-11 12:52:45.0360,-0.14,0.09,0.19,0.25
2022-11-11 12:52:45.0460,-0.16,0.06,0.26,0.31
2022-11-11 12:52:45.0560,-0.15,0.05,0.24,0.28
2022-11-11 12:52:45.0650,-0.09,0.04,0.12,0.15
2022-11-11 12:52:45.0750,0.02,0.01,0.06,0.06
2022-11-11 12:52:45.0850,0.12,-0.05,-0.07,0.14
2022-11-11 12:52:45.0960,0.22,-0.07,-0.11,0.25
2022-11-11 12:52:45.1200,0.22,-0.04,-0.02,0.22
2022-11-11 12:52:45.1220,0.16,-0.02,0.05,0.16
2022-11-11 12:52:45.1250,0.06,-0.01,0.11,0.12
2022-11-11 12:52:45.1350,-0.01,-0.01,0.1,0.1
2022-11-11 12:52:45.1450,-0.04,0.02,0.19,0.19
2022-11-11 12:52:45.1550,-0.07,0.07,0.28,0.29
2022-11-11 12:52:45.1650,-0.15,0.07,0.27,0.31
2022-11-11 12:52:45.1750,-0.19,0.05,0.23,0.3
2022-11-11 12:52:45.1850,-0.09,0.03,0.2,0.22
2022-11-11 12:52:45.1950,0.13,-0.01,0.14,0.19
2022-11-11 12:52:45.2200,0.34,-0.08,0.01,0.34
2022-11-11 12:52:45.2210,0.41,-0.12,-0.05,0.43
2022-11-11 12:52:45.2240,0.34,-0.09,-0.13,0.37
2022-11-11 12:52:45.2340,0.19,-0.01,-0.15,0.24
2022-11-11 12:52:45.2450,0.07,0.02,0.0,0.07
2022-11-11 12:52:45.2540,0.05,-0.02,0.15,0.15
2022-11-11 12:52:45.2640,0.05,-0.08,0.23,0.24
2022-11-11 12:52:45.2740,0.08,-0.08,0.21,0.23
2022-11-11 12:52:45.2840,0.11,-0.02,0.09,0.14
2022-11-11 12:52:45.2940,0.17,0.04,0.03,0.17
2022-11-11 12:52:45.3180,0.28,0.0,0.0,0.28
2022-11-11 12:52:45.3200,0.36,-0.11,-0.07,0.38
2022-11-11 12:52:45.3240,0.28,-0.17,-0.05,0.33
2022-11-11 12:52:45.3340,0.11,-0.13,-0.01,0.17
2022-11-11 12:52:45.3440,0.14,-0.02,0.07,0.15
2022-11-11 12:52:45.3540,0.35,0.03,-0.07,0.35
2022-11-11 12:52:45.3640,0.46,-0.04,-0.16,0.48
2022-11-11 12:52:45.3740,0.41,-0.08,-0.04,0.41
2022-11-11 12:52:45.3830,0.13,-0.08,0.0,0.15
2022-11-11 12:52:45.3940,-0.12,-0.03,0.23,0.26
2022-11-11 12:52:45.4180,-0.33,0.06,0.28,0.43
2022-11-11 12:52:45.4200,-0.46,0.09,0.28,0.54
2022-11-11 12:52:45.4230,-0.23,0.09,0.17,0.29
2022-11-11 12:52:45.4330,0.4,0.04,-0.18,0.44
2022-11-11 12:52:45.4430,0.84,-0.1,-0.38,0.92
2022-11-11 12:52:45.4530,0.85,-0.17,-0.36,0.93
2022-11-11 12:52:45.4630,0.4,-0.08,-0.27,0.48
2022-11-11 12:52:45.4730,-0.25,0.06,-0.11,0.27
2022-11-11 12:52:45.4830,-0.6,0.13,0.19,0.64
2022-11-11 12:52:45.4930,-0.59,0.1,0.28,0.66
2022-11-11 12:52:45.5170,-0.32,0.03,0.19,0.37
2022-11-11 12:52:45.5180,-0.07,0.06,0.09,0.12
2022-11-11 12:52:45.5230,-0.06,0.15,-0.15,0.22
2022-11-11 12:52:45.5320,-0.03,0.16,-0.24,0.29
2022-11-11 12:52:45.5430,0.11,0.07,-0.21,0.24
2022-11-11 12:52:45.5520,0.38,-0.06,-0.25,0.45
2022-11-11 12:52:45.5620,0.58,-0.15,-0.28,0.66
2022-11-11 12:52:45.5720,0.51,-0.12,-0.21,0.56
2022-11-11 12:52:45.5820,0.24,0.08,-0.21,0.32
2022-11-11 12:52:45.5930,0.05,0.21,-0.25,0.33
2022-11-11 12:52:45.6180,-0.13,0.23,-0.23,0.35
2022-11-11 12:52:45.6190,-0.25,0.18,-0.15,0.34
2022-11-11 12:52:45.6220,-0.15,-0.02,0.02,0.15
2022-11-11 12:52:45.6320,0.02,-0.24,-0.1,0.26
2022-11-11 12:52:45.6420,0.32,-0.25,-0.37,0.54
2022-11-11 12:52:45.6520,0.64,-0.11,-0.56,0.85
2022-11-11 12:52:45.6620,0.67,0.01,-0.61,0.9
2022-11-11 12:52:45.6720,0.52,0.06,-0.55,0.75
2022-11-11 12:52:45.6820,0.22,-0.04,-0.3,0.37
2022-11-11 12:52:45.6920,-0.1,-0.08,-0.08,0.15
2022-11-11 12:52:45.7160,-0.26,0.01,0.1,0.27
2022-11-11 12:52:45.7180,-0.17,0.21,0.19,0.33
2022-11-11 12:52:45.7210,0.11,0.42,0.14,0.45
2022-11-11 12:52:45.7310,0.42,0.39,-0.07,0.57
2022-11-11 12:52:45.7410,0.5,0.18,-0.28,0.6
2022-11-11 12:52:45.7510,0.34,-0.01,-0.42,0.54
2022-11-11 12:52:45.7610,-0.01,-0.04,-0.37,0.37
2022-11-11 12:52:45.7710,-0.3,0.06,-0.18,0.35
2022-11-11 12:52:45.7810,-0.43,0.17,0.02,0.46
2022-11-11 12:52:45.7910,-0.41,0.13,0.15,0.45
2022-11-11 12:52:45.8170,-0.26,-0.07,0.34,0.43
2022-11-11 12:52:45.8180,-0.15,-0.19,0.32,0.4
2022-11-11 12:52:45.8210,0.11,-0.08,0.11,0.17
2022-11-11 12:52:45.8310,0.37,0.16,-0.11,0.41
2022-11-11 12:52:45.8410,0.29,0.3,-0.25,0.48
2022-11-11 12:52:45.8510,-0.03,0.29,-0.14,0.32
2022-11-11 12:52:45.8610,-0.31,0.14,0.01,0.34
2022-11-11 12:52:45.8710,-0.47,-0.02,0.08,0.47
2022-11-11 12:52:45.8810,-0.49,-0.14,0.2,0.54
2022-11-11 12:52:45.8910,-0.62,-0.11,0.54,0.82
2022-11-11 12:52:45.9170,-0.74,0.02,0.5,0.89
2022-11-11 12:52:45.9180,-0.39,0.12,0.28,0.49
2022-11-11 12:52:45.9200,0.24,0.19,-0.04,0.3
2022-11-11 12:52:45.9300,0.79,0.14,-0.43,0.91
2022-11-11 12:52:45.9400,0.99,-0.05,-0.55,1.13
2022-11-11 12:52:45.9500,0.75,-0.14,-0.52,0.92
2022-11-11 12:52:45.9600,0.31,-0.08,-0.47,0.56
2022-11-11 12:52:45.9700,-0.23,0.06,-0.26,0.35
2022-11-11 12:52:45.9800,-0.83,0.15,0.04,0.84
2022-11-11 12:52:45.9900,-1.06,0.11,0.16,1.07
2022-11-11 12:52:46.0130,-0.61,0.03,0.15,0.62
2022-11-11 12:52:46.0150,0.11,0.12,-0.03,0.16
2022-11-11 12:52:46.0200,0.61,0.19,-0.2,0.66
2022-11-11 12:52:46.0300,0.65,0.15,-0.13,0.67
2022-11-11 12:52:46.0400,0.22,0.12,0.02,0.25
2022-11-11 12:52:46.0500,-0.07,0.13,0.26,0.29
2022-11-11 12:52:46.0600,-0.15,0.05,0.48,0.5
2022-11-11 12:52:46.0700,-0.22,-0.09,0.52,0.57
2022-11-11 12:52:46.0790,-0.26,-0.3,0.46,0.6
2022-11-11 12:52:46.0900,-0.21,-0.4,0.39,0.59
2022-11-11 12:52:46.1150,-0.25,-0.24,0.1,0.36
2022-11-11 12:52:46.1160,-0.37,0.08,-0.08,0.38
2022-11-11 12:52:46.1190,-0.36,0.47,-0.15,0.61
2022-11-11 12:52:46.1290,-0.28,0.65,-0.14,0.72
2022-11-11 12:52:46.1390,-0.02,0.4,-0.1,0.41
2022-11-11 12:52:46.1490,0.23,-0.15,-0.03,0.27
2022-11-11 12:52:46.1590,0.23,-0.5,0.12,0.56
2022-11-11 12:52:46.1690,0.21,-0.45,0.15,0.51
2022-11-11 12:52:46.1790,0.3,-0.13,0.13,0.35
2022-11-11 12:52:46.1890,0.3,0.22,-0.02,0.37
2022-11-11 12:52:46.2150,0.06,0.29,-0.01,0.29
2022-11-11 12:52:46.2170,-0.34,0.23,0.22,0.46
2022-11-11 12:52:46.2180,-0.73,0.14,0.27,0.79
2022-11-11 12:52:46.2280,-0.81,-0.01,0.25,0.84
2022-11-11 12:52:46.2380,-0.67,-0.11,0.12,0.68
2022-11-11 12:52:46.2480,-0.5,-0.1,0.02,0.51
2022-11-11 12:52:46.2580,-0.32,0.08,0.0,0.32
2022-11-11 12:52:46.2680,-0.09,0.2,-0.19,0.29
2022-11-11 12:52:46.2780,0.25,0.19,-0.35,0.47
2022-11-11 12:52:46.2880,0.58,0.16,-0.51,0.78
2022-11-11 12:52:46.3130,0.69,0.14,-0.5,0.86
2022-11-11 12:52:46.3140,0.58,0.14,-0.31,0.67
2022-11-11 12:52:46.3180,0.08,0.04,-0.13,0.15
2022-11-11 12:52:46.3280,-0.41,0.02,0.15,0.43
2022-11-11 12:52:46.3380,-0.37,0.1,0.12,0.4
2022-11-11 12:52:46.3480,0.06,0.06,-0.05,0.09
2022-11-11 12:52:46.3580,0.45,0.03,-0.26,0.52
2022-11-11 12:52:46.3680,0.45,0.02,-0.44,0.62
2022-11-11 12:52:46.3780,0.11,0.08,-0.25,0.28
2022-11-11 12:52:46.3880,-0.44,0.18,0.13,0.49
2022-11-11 12:52:46.4130,-0.77,0.17,0.31,0.84
2022-11-11 12:52:46.4150,-0.44,0.09,0.3,0.54
2022-11-11 12:52:46.4170,0.04,0.03,0.17,0.17
2022-11-11 12:52:46.4270,0.25,0.0,0.06,0.25
2022-11-11 12:52:46.4370,0.18,0.03,-0.02,0.18
2022-11-11 12:52:46.4470,0.02,0.03,-0.15,0.15
2022-11-11 12:52:46.4570,-0.04,-0.09,-0.09,0.13
2022-11-11 12:52:46.4670,-0.08,-0.19,-0.1,0.22
2022-11-11 12:52:46.4770,-0.07,-0.12,-0.06,0.15
2022-11-11 12:52:46.4870,-0.08,0.06,-0.04,0.1
2022-11-11 12:52:46.5130,-0.05,0.17,-0.11,0.2
2022-11-11 12:52:46.5140,0.05,0.16,-0.06,0.17
2022-11-11 12:52:46.5160,0.13,0.09,-0.02,0.15
2022-11-11 12:52:46.5270,0.28,-0.02,-0.04,0.28
2022-11-11 12:52:46.5370,0.39,-0.08,-0.17,0.43
2022-11-11 12:52:46.5470,0.38,0.01,-0.18,0.42
2022-11-11 12:52:46.5560,0.27,0.15,-0.16,0.34
2022-11-11 12:52:46.5660,0.14,0.15,-0.02,0.2
2022-11-11 12:52:46.5760,-0.04,-0.09,-0.07,0.12
2022-11-11 12:52:46.5860,-0.13,-0.26,-0.01,0.29
2022-11-11 12:52:46.6130,0.15,-0.1,-0.07,0.19
2022-11-11 12:52:46.6140,0.39,0.22,-0.24,0.5
2022-11-11 12:52:46.6160,0.28,0.39,-0.27,0.55
2022-11-11 12:52:46.6260,-0.03,0.27,-0.23,0.35
2022-11-11 12:52:46.6360,-0.1,0.09,-0.05,0.14
2022-11-11 12:52:46.6460,0.14,0.03,0.09,0.16
2022-11-11 12:52:46.6560,0.36,0.04,-0.07,0.36
2022-11-11 12:52:46.6660,0.41,0.02,-0.1,0.42
2022-11-11 12:52:46.6760,0.12,0.06,-0.11,0.17
2022-11-11 12:52:46.6850,-0.36,0.06,0.02,0.36
2022-11-11 12:52:46.7120,-0.61,0.01,0.2,0.64
2022-11-11 12:52:46.7130,-0.42,0.04,0.08,0.42
2022-11-11 12:52:46.7150,0.0,0.1,-0.21,0.23
2022-11-11 12:52:46.7250,0.29,0.08,-0.32,0.43
2022-11-11 12:52:46.7350,0.29,-0.04,-0.29,0.41
2022-11-11 12:52:46.7450,0.08,-0.12,-0.23,0.27
2022-11-11 12:52:46.7550,-0.15,0.01,-0.09,0.17
2022-11-11 12:52:46.7650,-0.37,0.21,-0.01,0.42
2022-11-11 12:52:46.7750,-0.4,0.29,0.07,0.49
2022-11-11 12:52:46.7850,-0.28,0.21,0.04,0.35
2022-11-11 12:52:46.8110,-0.13,0.07,-0.07,0.16
2022-11-11 12:52:46.8120,0.0,0.01,-0.21,0.21
2022-11-11 12:52:46.8140,0.13,0.07,-0.23,0.27
2022-11-11 12:52:46.8250,0.13,0.15,-0.2,0.28
2022-11-11 12:52:46.8350,0.04,0.09,-0.17,0.19
2022-11-11 12:52:46.8450,-0.02,0.01,-0.09,0.09
2022-11-11 12:52:46.8550,-0.11,0.04,-0.01,0.11
2022-11-11 12:52:46.8640,-0.15,0.13,-0.01,0.19
2022-11-11 12:52:46.8750,0.05,0.15,-0.04,0.16
2022-11-11 12:52:46.8850,0.4,0.13,-0.15,0.44
2022-11-11 12:52:46.9120,0.54,0.04,-0.38,0.66
2022-11-11 12:52:46.9130,0.32,-0.11,-0.34,0.47
2022-11-11 12:52:46.9140,-0.19,-0.1,-0.02,0.21
2022-11-11 12:52:46.9240,-0.66,0.06,0.12,0.67
2022-11-11 12:52:46.9340,-0.76,0.2,0.19,0.8
2022-11-11 12:52:46.9440,-0.46,0.23,0.14,0.53
2022-11-11 12:52:46.9540,-0.04,0.11,-0.01,0.11
2022-11-11 12:52:46.9640,0.19,0.01,-0.12,0.22
2022-11-11 12:52:46.9740,0.21,-0.08,-0.23,0.32
2022-11-11 12:52:46.9840,0.04,-0.09,-0.14,0.17
2022-11-11 12:52:47.0110,-0.14,0.05,0.09,0.17
2022-11-11 12:52:47.0130,-0.25,0.21,0.2,0.38
2022-11-11 12:52:47.0140,-0.28,0.25,0.22,0.43
2022-11-11 12:52:47.0240,-0.21,0.18,0.15,0.31
2022-11-11 12:52:47.0330,0.01,0.03,0.02,0.03
2022-11-11 12:52:47.0440,0.27,-0.09,-0.17,0.33
2022-11-11 12:52:47.0540,0.25,-0.14,-0.24,0.37
2022-11-11 12:52:47.0630,0.01,-0.12,0.0,0.12
2022-11-11 12:52:47.0730,-0.19,-0.04,0.15,0.24
2022-11-11 12:52:47.0830,-0.25,0.05,0.12,0.28
2022-11-11 12:52:47.1120,0.0,0.07,-0.01,0.07
2022-11-11 12:52:47.1140,0.34,0.02,-0.12,0.36
2022-11-11 12:52:47.1150,0.39,-0.06,-0.18,0.43
2022-11-11 12:52:47.1230,0.17,-0.08,-0.05,0.19
2022-11-11 12:52:47.1330,-0.13,0.03,0.18,0.22
2022-11-11 12:52:47.1430,-0.42,0.17,0.25,0.51
2022-11-11 12:52:47.1530,-0.36,0.2,0.23,0.47
2022-11-11 12:52:47.1630,0.01,0.14,0.11,0.17
2022-11-11 12:52:47.1730,0.37,0.05,-0.06,0.37
2022-11-11 12:52:47.1830,0.43,-0.04,-0.16,0.46
2022-11-11 12:52:47.2110,0.15,-0.09,-0.2,0.26
2022-11-11 12:52:47.2120,-0.11,-0.09,0.02,0.14
2022-11-11 12:52:47.2130,-0.18,0.06,0.16,0.24
2022-11-11 12:52:47.2220,-0.27,0.13,0.12,0.32
2022-11-11 12:52:47.2320,-0.28,0.08,0.06,0.29
2022-11-11 12:52:47.2420,-0.15,0.01,-0.02,0.15
2022-11-11 12:52:47.2520,0.06,-0.01,-0.04,0.07
2022-11-11 12:52:47.2620,0.19,-0.01,-0.08,0.2
2022-11-11 12:52:47.2720,0.21,0.03,-0.17,0.27
2022-11-11 12:52:47.2820,0.11,0.13,-0.13,0.21
2022-11-11 12:52:47.3110,0.03,0.19,-0.05,0.19
2022-11-11 12:52:47.3130,0.02,0.09,0.03,0.09
2022-11-11 12:52:47.3140,-0.01,-0.04,0.1,0.1
2022-11-11 12:52:47.3220,-0.07,-0.1,0.06,0.13
2022-11-11 12:52:47.3340,-0.1,0.0,0.0,0.1
2022-11-11 12:52:47.3420,-0.07,0.14,-0.12,0.19
2022-11-11 12:52:47.3510,0.04,0.17,-0.18,0.25
2022-11-11 12:52:47.3620,0.11,0.14,-0.17,0.24
2022-11-11 12:52:47.3710,0.11,0.08,-0.12,0.18
2022-11-11 12:52:47.3810,0.11,0.0,-0.1,0.14
2022-11-11 12:52:47.4100,0.12,-0.08,-0.09,0.17
2022-11-11 12:52:47.4120,0.09,-0.08,-0.07,0.13
2022-11-11 12:52:47.4130,-0.11,0.04,0.03,0.12
2022-11-11 12:52:47.4210,-0.37,0.2,0.19,0.46
2022-11-11 12:52:47.4310,-0.43,0.3,0.19,0.55
2022-11-11 12:52:47.4410,-0.27,0.22,0.05,0.35
2022-11-11 12:52:47.4510,0.1,0.0,-0.09,0.13
2022-11-11 12:52:47.4610,0.38,-0.13,-0.1,0.41
2022-11-11 12:52:47.4710,0.33,-0.1,-0.22,0.4
2022-11-11 12:52:47.4810,0.15,0.02,-0.18,0.23
2022-11-11 12:52:47.5100,0.03,0.12,-0.12,0.17
2022-11-11 12:52:47.5110,-0.06,0.16,-0.12,0.2
2022-11-11 12:52:47.5130,-0.11,0.15,-0.02,0.18
2022-11-11 12:52:47.5200,-0.17,0.08,0.0,0.18
2022-11-11 12:52:47.5300,-0.25,-0.04,0.06,0.26
2022-11-11 12:52:47.5410,-0.16,-0.02,0.12,0.2
2022-11-11 12:52:47.5500,-0.05,0.12,0.04,0.13
2022-11-11 12:52:47.5600,0.0,0.18,-0.02,0.18
2022-11-11 12:52:47.5700,0.06,0.1,-0.02,0.11
2022-11-11 12:52:47.5800,0.14,0.01,-0.12,0.18
2022-11-11 12:52:47.6090,0.24,-0.02,-0.16,0.28
2022-11-11 12:52:47.6100,0.48,0.0,-0.2,0.52
2022-11-11 12:52:47.6120,0.49,-0.04,-0.44,0.65
2022-11-11 12:52:47.6200,0.12,-0.08,-0.16,0.21
2022-11-11 12:52:47.6300,-0.31,0.07,0.19,0.37
2022-11-11 12:52:47.6400,-0.63,0.33,0.25,0.75
2022-11-11 12:52:47.6500,-0.57,0.33,0.2,0.68
2022-11-11 12:52:47.6600,-0.18,0.04,0.05,0.19
2022-11-11 12:52:47.6700,0.18,-0.15,-0.04,0.23
2022-11-11 12:52:47.6800,0.32,-0.06,-0.13,0.35
2022-11-11 12:52:47.7090,0.28,0.04,-0.29,0.4
2022-11-11 12:52:47.7110,0.17,0.04,-0.29,0.33
2022-11-11 12:52:47.7120,-0.07,0.08,-0.05,0.11
2022-11-11 12:52:47.7190,-0.35,0.19,0.11,0.41
2022-11-11 12:52:47.7290,-0.41,0.19,0.21,0.49
2022-11-11 12:52:47.7390,-0.22,0.03,0.1,0.24
2022-11-11 12:52:47.7490,0.14,-0.08,0.03,0.16
2022-11-11 12:52:47.7590,0.4,-0.03,-0.1,0.41
2022-11-11 12:52:47.7690,0.39,0.05,-0.28,0.48
2022-11-11 12:52:47.7790,0.24,0.05,-0.39,0.46
2022-11-11 12:52:47.8090,0.01,0.06,-0.16,0.17
2022-11-11 12:52:47.8100,-0.27,0.16,0.11,0.33
2022-11-11 12:52:47.8120,-0.42,0.22,0.21,0.51
2022-11-11 12:52:47.8190,-0.23,0.12,0.12,0.28
2022-11-11 12:52:47.8290,0.19,-0.03,0.0,0.19
2022-11-11 12:52:47.8390,0.45,-0.07,-0.11,0.46
2022-11-11 12:52:47.8490,0.47,-0.01,-0.28,0.54
2022-11-11 12:52:47.8590,0.25,0.04,-0.29,0.38
2022-11-11 12:52:47.8690,-0.1,0.06,-0.03,0.12
2022-11-11 12:52:47.8780,-0.41,0.13,0.18,0.46
2022-11-11 12:52:47.9080,-0.56,0.19,0.2,0.62
2022-11-11 12:52:47.9090,-0.36,0.12,0.1,0.39
2022-11-11 12:52:47.9110,0.07,0.0,-0.03,0.07
2022-11-11 12:52:47.9180,0.44,-0.04,-0.18,0.47
2022-11-11 12:52:47.9280,0.6,-0.06,-0.34,0.69
2022-11-11 12:52:47.9380,0.49,-0.06,-0.29,0.57
2022-11-11 12:52:47.9480,0.14,0.0,0.01,0.14
2022-11-11 12:52:47.9580,-0.3,0.11,0.21,0.38
2022-11-11 12:52:47.9680,-0.5,0.23,0.25,0.6
2022-11-11 12:52:47.9780,-0.28,0.19,0.12,0.35
2022-11-11 12:52:48.0090,0.12,0.02,-0.05,0.13
2022-11-11 12:52:48.0100,0.34,-0.05,-0.21,0.4
2022-11-11 12:52:48.0120,0.3,-0.08,-0.24,0.39
2022-11-11 12:52:48.0170,0.12,-0.08,-0.07,0.16
2022-11-11 12:52:48.0270,-0.11,0.01,0.08,0.13
2022-11-11 12:52:48.0380,-0.28,0.16,0.17,0.36
2022-11-11 12:52:48.0470,-0.21,0.21,0.19,0.35
2022-11-11 12:52:48.0570,-0.01,0.12,0.05,0.13
2022-11-11 12:52:48.0670,0.22,-0.01,-0.1,0.24
2022-11-11 12:52:48.0770,0.35,-0.06,-0.16,0.38
2022-11-11 12:52:48.1080,0.4,-0.06,-0.25,0.47
2022-11-11 12:52:48.1100,0.3,-0.08,-0.2,0.36
2022-11-11 12:52:48.1110,-0.01,-0.03,-0.04,0.05
2022-11-11 12:52:48.1170,-0.36,0.15,0.16,0.42
2022-11-11 12:52:48.1270,-0.51,0.28,0.21,0.61
2022-11-11 12:52:48.1370,-0.33,0.17,0.16,0.4
2022-11-11 12:52:48.1470,0.01,-0.03,0.06,0.06
2022-11-11 12:52:48.1570,0.24,-0.11,-0.06,0.27
2022-11-11 12:52:48.1670,0.34,-0.06,-0.15,0.37
2022-11-11 12:52:48.1770,0.34,0.03,-0.22,0.4
2022-11-11 12:52:48.2090,0.24,0.06,-0.22,0.33
2022-11-11 12:52:48.2100,0.04,0.08,-0.1,0.13
2022-11-11 12:52:48.2110,-0.24,0.1,0.03,0.26
2022-11-11 12:52:48.2160,-0.47,0.13,0.16,0.51
2022-11-11 12:52:48.2260,-0.44,0.12,0.18,0.49
2022-11-11 12:52:48.2360,-0.18,0.07,0.12,0.22
2022-11-11 12:52:48.2460,0.16,0.02,0.02,0.16
2022-11-11 12:52:48.2560,0.42,0.0,-0.12,0.43
2022-11-11 12:52:48.2660,0.47,-0.02,-0.28,0.54
2022-11-11 12:52:48.2760,0.33,-0.03,-0.26,0.42
2022-11-11 12:52:48.3060,0.14,0.0,-0.07,0.15
2022-11-11 12:52:48.3080,-0.1,0.08,0.02,0.12
2022-11-11 12:52:48.3090,-0.29,0.15,0.04,0.32
2022-11-11 12:52:48.3180,-0.32,0.13,0.1,0.35
2022-11-11 12:52:48.3260,-0.24,0.05,0.08,0.25
2022-11-11 12:52:48.3360,-0.08,0.02,0.04,0.09
2022-11-11 12:52:48.3450,0.04,0.04,-0.04,0.06
2022-11-11 12:52:48.3560,0.11,0.07,-0.09,0.15
2022-11-11 12:52:48.3650,0.09,0.08,-0.13,0.17
2022-11-11 12:52:48.3750,0.02,0.07,-0.12,0.14
2022-11-11 12:52:48.4070,-0.06,0.03,-0.07,0.09
2022-11-11 12:52:48.4090,-0.11,0.02,0.01,0.11
2022-11-11 12:52:48.4100,-0.1,0.03,0.02,0.1
2022-11-11 12:52:48.4150,-0.02,0.04,-0.02,0.04
2022-11-11 12:52:48.4250,0.1,0.05,-0.06,0.12
2022-11-11 12:52:48.4350,0.16,0.04,-0.12,0.2
2022-11-11 12:52:48.4450,0.12,0.06,-0.18,0.22
2022-11-11 12:52:48.4550,0.07,0.09,-0.13,0.17
2022-11-11 12:52:48.4650,0.01,0.08,-0.09,0.12
2022-11-11 12:52:48.4750,-0.11,0.05,-0.08,0.14
2022-11-11 12:52:48.5060,-0.21,0.04,0.02,0.21
2022-11-11 12:52:48.5080,-0.14,0.06,0.02,0.15
2022-11-11 12:52:48.5090,0.02,0.07,-0.04,0.08
2022-11-11 12:52:48.5150,0.2,0.06,-0.17,0.26
2022-11-11 12:52:48.5240,0.28,0.01,-0.19,0.33
2022-11-11 12:52:48.5350,0.18,0.02,-0.13,0.22
2022-11-11 12:52:48.5450,-0.05,0.04,-0.16,0.17
2022-11-11 12:52:48.5550,-0.21,0.02,-0.1,0.23
2022-11-11 12:52:48.5640,-0.25,0.05,0.1,0.27
2022-11-11 12:52:48.5740,-0.23,0.15,0.13,0.3
2022-11-11 12:52:48.6060,-0.17,0.2,-0.02,0.26
2022-11-11 12:52:48.6080,-0.06,0.12,-0.18,0.22
2022-11-11 12:52:48.6090,0.15,-0.09,-0.3,0.34
2022-11-11 12:52:48.6140,0.37,-0.19,-0.27,0.49
2022-11-11 12:52:48.6240,0.44,-0.1,-0.26,0.52
2022-11-11 12:52:48.6340,0.31,0.01,-0.37,0.48
2022-11-11 12:52:48.6440,0.11,0.06,-0.23,0.26
2022-11-11 12:52:48.6540,-0.1,0.08,-0.04,0.13
2022-11-11 12:52:48.6640,-0.28,0.14,0.07,0.32
2022-11-11 12:52:48.6740,-0.37,0.19,0.2,0.46
2022-11-11 12:52:48.7060,-0.37,0.17,0.17,0.44
2022-11-11 12:52:48.7080,-0.23,0.06,0.05,0.24
2022-11-11 12:52:48.7090,0.02,-0.05,-0.03,0.06
2022-11-11 12:52:48.7130,0.22,-0.05,-0.06,0.23
2022-11-11 12:52:48.7230,0.21,0.01,-0.09,0.22
2022-11-11 12:52:48.7330,0.06,0.07,-0.05,0.1
2022-11-11 12:52:48.7430,-0.1,0.1,-0.07,0.15
2022-11-11 12:52:48.7530,-0.17,0.1,-0.09,0.21
2022-11-11 12:52:48.7630,-0.13,0.09,0.03,0.16
2022-11-11 12:52:48.7730,-0.15,0.11,0.03,0.18
2022-11-11 12:52:48.8050,-0.2,0.08,-0.03,0.21
2022-11-11 12:52:48.8070,-0.12,0.02,-0.01,0.12
2022-11-11 12:52:48.8080,0.02,0.03,-0.05,0.06
2022-11-11 12:52:48.8120,0.11,0.09,-0.19,0.23
2022-11-11 12:52:48.8230,0.17,0.12,-0.33,0.39
2022-11-11 12:52:48.8320,0.14,0.11,-0.16,0.23
2022-11-11 12:52:48.8420,-0.05,0.11,-0.06,0.13
2022-11-11 12:52:48.8530,-0.32,0.08,-0.05,0.33
2022-11-11 12:52:48.8620,-0.38,0.09,0.07,0.39
2022-11-11 12:52:48.8720,-0.15,0.08,0.1,0.19
2022-11-11 12:52:48.9050,0.22,0.03,-0.15,0.26
2022-11-11 12:52:48.9070,0.55,-0.07,-0.36,0.66
2022-11-11 12:52:48.9080,0.69,-0.12,-0.44,0.82
2022-11-11 12:52:48.9120,0.61,-0.17,-0.43,0.76
2022-11-11 12:52:48.9220,0.4,-0.18,-0.34,0.55
2022-11-11 12:52:48.9320,0.24,-0.15,-0.17,0.33
2022-11-11 12:52:48.9420,0.18,-0.1,0.04,0.2
2022-11-11 12:52:48.9520,0.11,-0.03,0.2,0.23
2022-11-11 12:52:48.9620,0.07,0.06,0.22,0.23
2022-11-11 12:52:48.9720,0.08,0.13,0.1,0.18
2022-11-11 12:52:49.0050,0.06,0.22,-0.1,0.24
2022-11-11 12:52:49.0070,0.04,0.25,-0.31,0.4
2022-11-11 12:52:49.0080,0.1,0.12,-0.17,0.23
2022-11-11 12:52:49.0110,0.05,-0.02,-0.05,0.07
2022-11-11 12:52:49.0210,-0.15,-0.08,-0.09,0.19
2022-11-11 12:52:49.0320,-0.19,-0.09,-0.13,0.24
2022-11-11 12:52:49.0410,0.03,-0.1,-0.06,0.12
2022-11-11 12:52:49.0510,0.41,-0.09,0.14,0.44
2022-11-11 12:52:49.0610,0.68,-0.19,0.07,0.7
2022-11-11 12:52:49.0710,0.57,-0.25,-0.27,0.67
2022-11-11 12:52:49.1050,0.28,-0.12,-0.41,0.51
2022-11-11 12:52:49.1070,-0.03,0.08,-0.06,0.1
2022-11-11 12:52:49.1080,-0.36,0.31,0.36,0.59
2022-11-11 12:52:49.1110,-0.53,0.38,0.39,0.75
2022-11-11 12:52:49.1210,-0.37,0.18,0.15,0.43
2022-11-11 12:52:49.1310,0.12,-0.04,-0.27,0.29
2022-11-11 12:52:49.1410,0.65,-0.22,-0.68,0.96
2022-11-11 12:52:49.1510,0.91,-0.29,-0.53,1.09
2022-11-11 12:52:49.1600,0.61,-0.3,-0.17,0.7
2022-11-11 12:52:49.1710,-0.23,-0.06,0.16,0.28
2022-11-11 12:52:49.2050,-0.91,0.4,0.37,1.06
2022-11-11 12:52:49.2070,-1.03,0.7,0.5,1.34
2022-11-11 12:52:49.2080,-0.63,0.68,0.48,1.04
2022-11-11 12:52:49.2100,-0.17,0.34,0.05,0.38
2022-11-11 12:52:49.2200,0.14,-0.14,-0.34,0.39
2022-11-11 12:52:49.2300,0.37,-0.54,-0.43,0.78
2022-11-11 12:52:49.2400,0.39,-0.62,-0.3,0.79
2022-11-11 12:52:49.2500,0.15,-0.25,-0.07,0.29
2022-11-11 12:52:49.2600,-0.24,0.2,-0.11,0.33
2022-11-11 12:52:49.2700,-0.6,0.49,-0.07,0.77
2022-11-11 12:52:49.3040,-0.62,0.51,0.26,0.84
2022-11-11 12:52:49.3060,-0.49,0.39,0.41,0.74
2022-11-11 12:52:49.3070,-0.32,0.23,0.29,0.48
2022-11-11 12:52:49.3090,-0.03,0.0,0.03,0.04
2022-11-11 12:52:49.3200,0.44,-0.21,-0.18,0.51
2022-11-11 12:52:49.3300,0.78,-0.27,-0.34,0.89
2022-11-11 12:52:49.3400,0.68,-0.16,-0.55,0.88
2022-11-11 12:52:49.3490,0.25,0.01,-0.48,0.54
2022-11-11 12:52:49.3590,-0.02,0.15,-0.14,0.2
2022-11-11 12:52:49.3690,-0.13,0.18,0.08,0.23
2022-11-11 12:52:49.4050,-0.16,0.18,0.24,0.34
2022-11-11 12:52:49.4060,0.01,0.19,0.43,0.47
2022-11-11 12:52:49.4080,0.37,0.07,0.19,0.42
2022-11-11 12:52:49.4100,0.8,-0.23,-0.34,0.89
2022-11-11 12:52:49.4190,1.15,-0.45,-0.59,1.36
2022-11-11 12:52:49.4290,1.06,-0.38,-0.6,1.27
2022-11-11 12:52:49.4390,0.39,0.02,-0.57,0.69
2022-11-11 12:52:49.4490,-0.32,0.42,-0.17,0.55
2022-11-11 12:52:49.4590,-0.71,0.48,0.28,0.9
2022-11-11 12:52:49.4690,-0.85,0.23,0.36,0.95
2022-11-11 12:52:49.5050,-0.64,-0.09,0.28,0.7
2022-11-11 12:52:49.5060,-0.12,-0.14,0.24,0.3
2022-11-11 12:52:49.5080,0.4,0.02,-0.01,0.4
2022-11-11 12:52:49.5100,0.83,-0.01,-0.27,0.87
2022-11-11 12:52:49.5180,1.16,-0.26,-0.26,1.21
2022-11-11 12:52:49.5280,1.11,-0.33,-0.28,1.19
2022-11-11 12:52:49.5380,0.46,0.02,-0.31,0.55
2022-11-11 12:52:49.5480,-0.64,0.65,-0.09,0.91
2022-11-11 12:52:49.5580,-1.48,1.02,0.52,1.87
2022-11-11 12:52:49.5680,-1.61,0.75,0.97,2.02
2022-11-11 12:52:49.5990,-1.27,0.05,0.89,1.55
2022-11-11 12:52:49.6000,-0.68,-0.51,0.39,0.93
2022-11-11 12:52:49.6020,0.11,-0.62,0.0,0.62
2022-11-11 12:52:49.6080,0.97,-0.43,-0.11,1.06
2022-11-11 12:52:49.6180,1.49,-0.19,-0.26,1.52
2022-11-11 12:52:49.6280,1.52,0.0,-0.43,1.57
2022-11-11 12:52:49.6380,0.85,0.15,-0.48,0.98
2022-11-11 12:52:49.6480,-0.36,0.28,-0.29,0.54
2022-11-11 12:52:49.6570,-1.31,0.31,0.2,1.36
2022-11-11 12:52:49.6680,-1.52,0.13,0.62,1.64
2022-11-11 12:52:49.6980,-1.1,-0.14,0.61,1.26
2022-11-11 12:52:49.7000,-0.43,-0.26,0.37,0.62
2022-11-11 12:52:49.7010,0.18,-0.14,0.19,0.29
2022-11-11 12:52:49.7070,0.58,0.03,-0.01,0.58
2022-11-11 12:52:49.7170,0.85,0.17,-0.27,0.9
2022-11-11 12:52:49.7270,0.94,0.18,-0.35,1.01
2022-11-11 12:52:49.7370,0.71,0.07,-0.25,0.75
2022-11-11 12:52:49.7470,0.22,-0.03,-0.12,0.25
2022-11-11 12:52:49.7570,-0.21,-0.04,0.07,0.22
2022-11-11 12:52:49.7670,-0.44,-0.04,0.15,0.46
2022-11-11 12:52:49.8000,-0.43,-0.03,0.15,0.45
2022-11-11 12:52:49.8020,-0.27,0.0,0.09,0.28
2022-11-11 12:52:49.8030,-0.06,0.04,0.03,0.07
2022-11-11 12:52:49.8060,0.13,0.02,-0.07,0.14
2022-11-11 12:52:49.8170,0.21,-0.06,-0.13,0.25
2022-11-11 12:52:49.8260,0.15,-0.08,-0.13,0.21
2022-11-11 12:52:49.8370,0.0,0.0,-0.01,0.01
2022-11-11 12:52:49.8460,-0.16,0.12,0.13,0.23
2022-11-11 12:52:49.8560,-0.23,0.2,0.12,0.32
2022-11-11 12:52:49.8660,-0.33,0.19,0.25,0.45
2022-11-11 12:52:49.8970,-0.44,0.12,0.45,0.64
2022-11-11 12:52:49.8980,-0.51,0.07,0.37,0.63
2022-11-11 12:52:49.9000,-0.38,-0.02,0.21,0.43
2022-11-11 12:52:49.9060,-0.09,-0.08,0.07,0.13
2022-11-11 12:52:49.9160,0.16,-0.06,-0.08,0.18
2022-11-11 12:52:49.9260,0.23,-0.05,-0.23,0.32
2022-11-11 12:52:49.9360,0.16,-0.02,-0.23,0.28
2022-11-11 12:52:49.9460,0.0,0.09,-0.02,0.09
2022-11-11 12:52:49.9560,-0.28,0.23,0.17,0.4
2022-11-11 12:52:49.9660,-0.47,0.29,0.29,0.62
2022-11-11 12:52:49.9970,-0.34,0.22,0.27,0.48
2022-11-11 12:52:49.9990,-0.09,0.09,0.26,0.28
2022-11-11 12:52:50.0000,-0.09,0.04,0.1,0.14
2022-11-11 12:52:50.0050,-0.12,0.01,-0.15,0.19
2022-11-11 12:52:50.0150,0.1,-0.02,-0.2,0.22
2022-11-11 12:52:50.0250,0.38,-0.05,-0.17,0.41
2022-11-11 12:52:50.0350,0.47,-0.08,-0.23,0.52
2022-11-11 12:52:50.0450,0.29,-0.11,-0.16,0.34
2022-11-11 12:52:50.0550,-0.05,0.04,-0.21,0.21
2022-11-11 12:52:50.0650,-0.35,0.27,-0.26,0.51
2022-11-11 12:52:50.0970,-0.38,0.38,-0.19,0.57
2022-11-11 12:52:50.0980,-0.18,0.19,-0.12,0.28
2022-11-11 12:52:50.0990,0.11,-0.12,-0.11,0.19
2022-11-11 12:52:50.1050,0.29,-0.22,-0.22,0.42
2022-11-11 12:52:50.1150,0.28,-0.06,-0.34,0.44
2022-11-11 12:52:50.1250,0.18,0.13,-0.27,0.34
2022-11-11 12:52:50.1350,0.05,0.16,-0.2,0.26
2022-11-11 12:52:50.1450,-0.03,0.02,-0.21,0.21
2022-11-11 12:52:50.1540,-0.02,-0.09,-0.17,0.19
2022-11-11 12:52:50.1650,0.06,-0.07,-0.12,0.15
2022-11-11 12:52:50.1980,0.19,0.03,-0.13,0.23
2022-11-11 12:52:50.1990,0.27,0.1,-0.21,0.35
2022-11-11 12:52:50.2000,0.23,0.12,-0.22,0.34
2022-11-11 12:52:50.2040,0.08,0.1,-0.2,0.23
2022-11-11 12:52:50.2140,-0.02,0.06,-0.1,0.11
2022-11-11 12:52:50.2240,-0.04,0.03,-0.07,0.08
2022-11-11 12:52:50.2340,-0.03,0.02,-0.17,0.17
2022-11-11 12:52:50.2440,0.09,0.0,-0.24,0.25
2022-11-11 12:52:50.2540,0.21,0.01,-0.24,0.31
2022-11-11 12:52:50.2640,0.19,0.05,-0.27,0.33
2022-11-11 12:52:50.2970,0.18,0.02,-0.2,0.26
2022-11-11 12:52:50.2980,0.22,-0.03,-0.06,0.23
2022-11-11 12:52:50.2990,0.2,-0.01,-0.09,0.21
2022-11-11 12:52:50.3030,0.16,0.04,-0.14,0.21
2022-11-11 12:52:50.3130,0.16,0.07,-0.06,0.18
2022-11-11 12:52:50.3230,0.02,0.05,-0.04,0.06
2022-11-11 12:52:50.3340,-0.16,0.06,0.07,0.18
2022-11-11 12:52:50.3430,-0.17,0.07,0.15,0.23
2022-11-11 12:52:50.3530,0.01,0.11,0.05,0.12
2022-11-11 12:52:50.3630,0.15,0.1,-0.13,0.22
2022-11-11 12:52:50.3970,0.16,0.04,-0.25,0.29
2022-11-11 12:52:50.3980,0.1,-0.05,-0.21,0.23
2022-11-11 12:52:50.4000,0.0,-0.07,-0.1,0.12
2022-11-11 12:52:50.4030,-0.09,0.01,0.09,0.12
2022-11-11 12:52:50.4130,0.01,0.15,0.17,0.22
2022-11-11 12:52:50.4230,0.07,0.23,0.04,0.24
2022-11-11 12:52:50.4330,-0.18,0.23,-0.04,0.29
2022-11-11 12:52:50.4430,-0.34,0.12,0.02,0.36
2022-11-11 12:52:50.4530,-0.28,-0.04,0.18,0.33
2022-11-11 12:52:50.4630,-0.16,-0.11,0.19,0.27
2022-11-11 12:52:50.4960,-0.04,-0.04,0.05,0.07
2022-11-11 12:52:50.4980,0.06,0.06,-0.09,0.12
2022-11-11 12:52:50.4990,0.14,0.08,-0.12,0.2
2022-11-11 12:52:50.5020,0.12,0.06,-0.13,0.18
2022-11-11 12:52:50.5120,0.04,0.0,-0.07,0.08
2022-11-11 12:52:50.5220,-0.08,-0.04,0.01,0.09
2022-11-11 12:52:50.5320,-0.12,-0.02,0.06,0.13
2022-11-11 12:52:50.5420,-0.03,0.02,0.08,0.08
2022-11-11 12:52:50.5520,0.09,0.07,0.03,0.11
2022-11-11 12:52:50.5620,0.04,0.12,0.04,0.13
2022-11-11 12:52:50.5960,-0.07,0.16,0.04,0.17
2022-11-11 12:52:50.5970,-0.15,0.18,-0.01,0.23
2022-11-11 12:52:50.5980,-0.29,0.14,-0.04,0.32
2022-11-11 12:52:50.6010,-0.3,0.02,-0.05,0.3
2022-11-11 12:52:50.6120,-0.1,-0.06,-0.06,0.13
2022-11-11 12:52:50.6220,0.09,-0.04,-0.02,0.1
2022-11-11 12:52:50.6320,0.2,-0.02,0.02,0.2
2022-11-11 12:52:50.6410,0.17,-0.03,-0.03,0.17
2022-11-11 12:52:50.6520,0.07,-0.01,-0.1,0.12
2022-11-11 12:52:50.6620,-0.01,0.05,-0.09,0.1
2022-11-11 12:52:50.6960,-0.05,0.09,-0.03,0.1
2022-11-11 12:52:50.6970,-0.03,0.11,-0.01,0.11
2022-11-11 12:52:50.6990,-0.1,0.11,-0.03,0.15
2022-11-11 12:52:50.7010,-0.12,0.05,0.04,0.13
2022-11-11 12:52:50.7110,-0.04,0.04,0.09,0.1
2022-11-11 12:52:50.7210,0.05,0.05,0.01,0.07
2022-11-11 12:52:50.7310,0.05,0.02,-0.04,0.06
2022-11-11 12:52:50.7410,0.01,0.01,-0.01,0.01
2022-11-11 12:52:50.7510,0.0,-0.03,0.0,0.03
2022-11-11 12:52:50.7610,0.06,-0.03,-0.02,0.06
2022-11-11 12:52:50.7960,0.2,0.0,-0.06,0.2
2022-11-11 12:52:50.7970,0.17,0.06,-0.15,0.23
2022-11-11 12:52:50.7980,0.02,0.07,-0.12,0.14
2022-11-11 12:52:50.8000,-0.04,0.03,0.01,0.05
2022-11-11 12:52:50.8100,-0.04,0.01,0.0,0.04
2022-11-11 12:52:50.8200,-0.06,0.0,0.02,0.06
2022-11-11 12:52:50.8300,-0.05,0.02,0.08,0.09
2022-11-11 12:52:50.8400,-0.02,0.07,0.03,0.07
2022-11-11 12:52:50.8500,0.0,0.09,-0.03,0.09
2022-11-11 12:52:50.8600,0.02,0.01,-0.11,0.11
2022-11-11 12:52:50.8950,0.08,-0.07,-0.11,0.15
2022-11-11 12:52:50.8970,0.21,-0.03,-0.08,0.22
2022-11-11 12:52:50.8980,0.16,0.12,-0.13,0.23
2022-11-11 12:52:50.9000,0.01,0.18,-0.19,0.26
2022-11-11 12:52:50.9100,-0.08,0.08,-0.11,0.15
2022-11-11 12:52:50.9200,-0.15,-0.01,-0.08,0.17
2022-11-11 12:52:50.9300,-0.24,-0.06,-0.04,0.25
2022-11-11 12:52:50.9400,-0.28,-0.02,0.0,0.28
2022-11-11 12:52:50.9500,-0.24,0.08,0.01,0.25
2022-11-11 12:52:50.9600,-0.23,0.15,-0.01,0.27
2022-11-11 12:52:50.9950,-0.18,0.11,-0.02,0.21
2022-11-11 12:52:50.9960,-0.07,0.03,0.04,0.08
2022-11-11 12:52:50.9970,0.03,0.04,0.04,0.06
2022-11-11 12:52:50.9990,0.1,0.12,0.08,0.17
2022-11-11 12:52:51.0090,0.16,0.17,0.04,0.23
2022-11-11 12:52:51.0190,0.16,0.13,-0.07,0.21
2022-11-11 12:52:51.0290,0.0,0.14,-0.14,0.19
2022-11-11 12:52:51.0390,-0.17,0.17,-0.09,0.25
2022-11-11 12:52:51.0490,-0.22,0.14,-0.01,0.26
2022-11-11 12:52:51.0590,-0.15,0.04,-0.03,0.15
2022-11-11 12:52:51.0950,-0.04,-0.06,-0.08,0.1
2022-11-11 12:52:51.0970,0.06,-0.1,-0.13,0.17
2022-11-11 12:52:51.0980,0.09,-0.07,-0.16,0.19
2022-11-11 12:52:51.1000,0.15,-0.02,-0.16,0.22
2022-11-11 12:52:51.1090,0.19,-0.01,-0.14,0.23
2022-11-11 12:52:51.1190,0.22,0.01,-0.09,0.23
2022-11-11 12:52:51.1280,0.23,0.01,-0.11,0.25
2022-11-11 12:52:51.1390,0.19,0.0,-0.13,0.23
2022-11-11 12:52:51.1490,0.09,0.01,-0.11,0.14
2022-11-11 12:52:51.1590,0.02,0.02,-0.02,0.03
2022-11-11 12:52:51.1950,-0.01,0.03,0.06,0.06
2022-11-11 12:52:51.1960,0.02,0.01,0.1,0.1
2022-11-11 12:52:51.1970,0.13,0.02,0.09,0.15
2022-11-11 12:52:51.1990,0.18,0.06,0.04,0.19
2022-11-11 12:52:51.2080,0.18,0.08,0.01,0.19
2022-11-11 12:52:51.2180,0.13,0.05,0.0,0.13
2022-11-11 12:52:51.2280,0.06,-0.01,0.06,0.08
2022-11-11 12:52:51.2380,-0.04,0.01,0.01,0.04
2022-11-11 12:52:51.2480,-0.14,0.08,-0.02,0.16
2022-11-11 12:52:51.2580,-0.17,0.1,0.02,0.19
2022-11-11 12:52:51.2940,-0.16,0.08,0.0,0.17
2022-11-11 12:52:51.2960,-0.1,0.02,-0.02,0.1
2022-11-11 12:52:51.2970,-0.01,-0.01,0.0,0.01
2022-11-11 12:52:51.2990,0.04,0.0,0.02,0.04
2022-11-11 12:52:51.3070,0.05,0.06,-0.01,0.07
2022-11-11 12:52:51.3170,0.04,0.09,-0.06,0.11
2022-11-11 12:52:51.3270,-0.01,0.08,-0.1,0.12
2022-11-11 12:52:51.3370,-0.04,0.05,-0.1,0.11
2022-11-11 12:52:51.3470,-0.03,0.02,-0.06,0.06
2022-11-11 12:52:51.3570,-0.04,-0.02,0.04,0.06
2022-11-11 12:52:51.3940,-0.07,0.01,0.01,0.07
2022-11-11 12:52:51.3960,-0.08,0.05,-0.06,0.11
2022-11-11 12:52:51.3970,-0.04,0.09,-0.09,0.13
2022-11-11 12:52:51.3990,0.02,0.08,-0.1,0.12
2022-11-11 12:52:51.4060,0.06,0.07,-0.08,0.12
2022-11-11 12:52:51.4170,0.07,0.03,-0.03,0.08
2022-11-11 12:52:51.4270,0.08,-0.02,0.07,0.1
2022-11-11 12:52:51.4370,0.07,-0.01,0.02,0.07
2022-11-11 12:52:51.4470,-0.02,0.05,-0.08,0.09
2022-11-11 12:52:51.4570,-0.13,0.1,-0.08,0.18
2022-11-11 12:52:51.4940,-0.15,0.08,-0.11,0.2
2022-11-11 12:52:51.4950,-0.07,0.06,-0.08,0.12
2022-11-11 12:52:51.4970,0.04,0.05,0.02,0.06
2022-11-11 12:52:51.4990,0.03,0.03,0.04,0.05
2022-11-11 12:52:51.5060,0.0,0.03,-0.02,0.03
2022-11-11 12:52:51.5160,0.02,0.05,-0.04,0.06
2022-11-11 12:52:51.5260,0.06,0.06,-0.05,0.09
2022-11-11 12:52:51.5360,0.07,0.04,-0.06,0.1
2022-11-11 12:52:51.5460,0.06,0.05,-0.02,0.08
2022-11-11 12:52:51.5560,0.01,0.04,0.0,0.04
2022-11-11 12:52:51.5930,-0.01,0.02,0.02,0.03
2022-11-11 12:52:51.5940,0.0,0.02,-0.03,0.03
2022-11-11 12:52:51.5960,0.02,0.04,-0.06,0.07
2022-11-11 12:52:51.5970,0.01,0.06,-0.08,0.1
2022-11-11 12:52:51.6050,-0.03,0.05,-0.08,0.09
2022-11-11 12:52:51.6160,-0.03,0.01,-0.02,0.03
2022-11-11 12:52:51.6250,0.02,-0.01,0.02,0.03
2022-11-11 12:52:51.6360,0.11,0.03,0.05,0.12
2022-11-11 12:52:51.6460,0.17,0.08,-0.02,0.18
2022-11-11 12:52:51.6550,0.03,0.09,-0.15,0.17
2022-11-11 12:52:51.6930,-0.19,0.08,-0.13,0.24
2022-11-11 12:52:51.6940,-0.21,0.04,-0.03,0.21
2022-11-11 12:52:51.6960,-0.12,0.02,0.02,0.12
2022-11-11 12:52:51.6970,-0.05,0.03,0.05,0.07
2022-11-11 12:52:51.7050,0.02,0.05,0.04,0.06
2022-11-11 12:52:51.7150,0.1,0.05,0.05,0.12
2022-11-11 12:52:51.7250,0.09,0.06,-0.03,0.11
2022-11-11 12:52:51.7350,0.01,0.07,-0.11,0.13
2022-11-11 12:52:51.7450,0.02,0.02,-0.15,0.15
2022-11-11 12:52:51.7550,0.0,0.01,-0.16,0.16
2022-11-11 12:52:51.7920,-0.04,0.06,-0.1,0.12
2022-11-11 12:52:51.7930,-0.04,0.07,-0.02,0.08
2022-11-11 12:52:51.7950,-0.06,0.06,0.05,0.09
2022-11-11 12:52:51.7960,-0.17,0.06,0.06,0.19
2022-11-11 12:52:51.8040,-0.21,0.08,0.01,0.22
2022-11-11 12:52:51.8140,-0.09,0.08,-0.06,0.13
2022-11-11 12:52:51.8240,0.13,0.07,-0.11,0.18
2022-11-11 12:52:51.8340,0.31,0.03,-0.16,0.35
2022-11-11 12:52:51.8440,0.24,0.0,-0.12,0.26
2022-11-11 12:52:51.8540,0.07,-0.02,-0.01,0.07
2022-11-11 12:52:51.8920,-0.08,0.0,0.04,0.08
2022-11-11 12:52:51.8930,-0.14,0.07,-0.01,0.15
2022-11-11 12:52:51.8950,-0.04,0.1,-0.04,0.11
2022-11-11 12:52:51.8970,0.08,0.06,-0.08,0.12
2022-11-11 12:52:51.9030,0.12,0.02,-0.12,0.17
2022-11-11 12:52:51.9140,0.11,0.0,-0.07,0.13
2022-11-11 12:52:51.9240,0.07,0.01,-0.02,0.07
2022-11-11 12:52:51.9340,0.02,0.04,-0.05,0.06
2022-11-11 12:52:51.9440,-0.04,0.06,-0.03,0.07
2022-11-11 12:52:51.9540,-0.14,0.09,-0.04,0.17
2022-11-11 12:52:51.9910,-0.14,0.08,-0.03,0.16
2022-11-11 12:52:51.9920,-0.08,0.06,-0.04,0.1
2022-11-11 12:52:51.9940,-0.01,0.01,-0.05,0.05
2022-11-11 12:52:51.9950,0.06,-0.04,-0.01,0.07
2022-11-11 12:52:52.0030,0.09,-0.02,-0.02,0.09
2022-11-11 12:52:52.0130,0.09,0.04,-0.06,0.11
2022-11-11 12:52:52.0230,0.06,0.1,-0.06,0.13
2022-11-11 12:52:52.0330,0.01,0.1,-0.09,0.13
2022-11-11 12:52:52.0430,-0.06,0.06,-0.09,0.12
2022-11-11 12:52:52.0530,-0.06,0.01,-0.01,0.06
2022-11-11 12:52:52.0920,-0.04,0.02,0.0,0.04
2022-11-11 12:52:52.0940,-0.06,0.05,-0.05,0.09
2022-11-11 12:52:52.0950,-0.06,0.08,-0.01,0.1
2022-11-11 12:52:52.0960,-0.06,0.09,-0.01,0.1
2022-11-11 12:52:52.1020,-0.04,0.04,-0.04,0.06
2022-11-11 12:52:52.1130,0.01,-0.01,-0.02,0.02
2022-11-11 12:52:52.1220,0.07,0.0,0.0,0.07
2022-11-11 12:52:52.1320,0.08,0.03,-0.01,0.08
2022-11-11 12:52:52.1420,0.08,0.07,-0.06,0.12
2022-11-11 12:52:52.1520,0.04,0.09,-0.06,0.11
2022-11-11 12:52:52.1920,-0.01,0.07,-0.07,0.09
2022-11-11 12:52:52.1940,-0.04,0.02,-0.08,0.09
2022-11-11 12:52:52.1950,-0.05,0.02,-0.05,0.07
2022-11-11 12:52:52.2100,-0.02,0.04,0.03,0.05
2022-11-11 12:52:52.2110,-0.01,0.05,0.02,0.05
2022-11-11 12:52:52.2130,-0.02,0.09,-0.04,0.1
2022-11-11 12:52:52.2220,-0.03,0.08,-0.05,0.09
2022-11-11 12:52:52.2320,-0.01,0.04,-0.04,0.05
2022-11-11 12:52:52.2420,0.0,0.01,-0.05,0.05
2022-11-11 12:52:52.2520,0.03,0.0,-0.07,0.07
2022-11-11 12:52:52.2900,0.07,0.01,-0.07,0.09
2022-11-11 12:52:52.2920,0.08,0.02,-0.04,0.09
2022-11-11 12:52:52.2930,0.02,0.05,-0.06,0.08
2022-11-11 12:52:52.3110,-0.07,0.08,-0.03,0.11
2022-11-11 12:52:52.3120,-0.11,0.06,-0.02,0.12
2022-11-11 12:52:52.3140,-0.09,0.05,-0.02,0.1
2022-11-11 12:52:52.3210,-0.04,0.03,-0.01,0.05
2022-11-11 12:52:52.3310,0.04,0.02,-0.06,0.07
2022-11-11 12:52:52.3410,0.07,0.01,-0.06,0.09
2022-11-11 12:52:52.3510,0.08,0.02,-0.04,0.09
2022-11-11 12:52:52.3900,0.04,0.03,-0.04,0.06
2022-11-11 12:52:52.3910,-0.04,0.07,-0.04,0.09
2022-11-11 12:52:52.3930,-0.1,0.08,-0.03,0.13
2022-11-11 12:52:52.4110,-0.09,0.08,-0.01,0.12
2022-11-11 12:52:52.4120,-0.06,0.07,-0.04,0.1
2022-11-11 12:52:52.4140,-0.01,0.04,-0.05,0.06
2022-11-11 12:52:52.4200,0.04,0.01,-0.05,0.06
2022-11-11 12:52:52.4310,0.05,-0.01,-0.03,0.05
2022-11-11 12:52:52.4410,0.02,0.01,-0.04,0.04
2022-11-11 12:52:52.4510,0.05,0.04,-0.05,0.08
2022-11-11 12:52:52.4900,0.02,0.09,-0.07,0.11
2022-11-11 12:52:52.4910,-0.04,0.09,-0.06,0.11
2022-11-11 12:52:52.4920,-0.03,0.07,-0.06,0.09
2022-11-11 12:52:52.4940,0.01,0.03,-0.06,0.06
2022-11-11 12:52:52.5000,0.04,0.01,-0.06,0.07
2022-11-11 12:52:52.5100,0.07,0.0,-0.06,0.09
2022-11-11 12:52:52.5200,0.07,0.01,-0.06,0.09
2022-11-11 12:52:52.5300,0.05,0.04,-0.04,0.07
2022-11-11 12:52:52.5400,0.0,0.08,-0.05,0.09
2022-11-11 12:52:52.5500,-0.03,0.08,-0.05,0.09
2022-11-11 12:52:52.5900,-0.02,0.09,-0.02,0.09
2022-11-11 12:52:52.5920,0.02,0.09,0.02,0.09
2022-11-11 12:52:52.5930,0.01,0.04,0.0,0.04
2022-11-11 12:52:52.5940,-0.02,-0.01,-0.02,0.03
2022-11-11 12:52:52.5990,-0.03,-0.04,-0.01,0.05
2022-11-11 12:52:52.6090,-0.03,0.02,-0.03,0.04
2022-11-11 12:52:52.6190,0.02,0.09,-0.06,0.11
2022-11-11 12:52:52.6290,0.06,0.08,-0.03,0.1
2022-11-11 12:52:52.6390,0.07,0.03,-0.05,0.09
2022-11-11 12:52:52.6490,0.0,0.02,-0.03,0.03
2022-11-11 12:52:52.6890,-0.07,0.03,0.06,0.09
2022-11-11 12:52:52.6900,-0.11,0.08,0.03,0.13
2022-11-11 12:52:52.6920,-0.09,0.11,0.02,0.14
2022-11-11 12:52:52.6930,-0.01,0.07,0.0,0.07
2022-11-11 12:52:52.6990,0.05,0.0,0.0,0.05
2022-11-11 12:52:52.7090,0.08,-0.04,0.0,0.08
2022-11-11 12:52:52.7190,0.08,-0.03,0.0,0.08
2022-11-11 12:52:52.7290,0.06,0.03,-0.02,0.06
2022-11-11 12:52:52.7390,0.0,0.11,-0.06,0.12
2022-11-11 12:52:52.7490,-0.1,0.11,-0.05,0.15
2022-11-11 12:52:52.7890,-0.17,0.04,-0.03,0.17
2022-11-11 12:52:52.7910,-0.13,-0.01,-0.01,0.13
2022-11-11 12:52:52.7920,-0.03,0.01,0.0,0.03
2022-11-11 12:52:52.7940,0.05,0.03,-0.02,0.06
2022-11-11 12:52:52.7980,0.1,0.05,-0.04,0.11
2022-11-11 12:52:52.8080,0.1,0.01,0.03,0.1
2022-11-11 12:52:52.8180,0.06,-0.01,0.02,0.06
2022-11-11 12:52:52.8280,0.01,0.03,-0.02,0.03
2022-11-11 12:52:52.8380,-0.03,0.04,-0.02,0.05
2022-11-11 12:52:52.8480,-0.05,0.03,-0.03,0.06
2022-11-11 12:52:52.8880,-0.05,0.07,0.01,0.08
2022-11-11 12:52:52.8890,-0.07,0.11,0.01,0.13
2022-11-11 12:52:52.8900,-0.08,0.13,0.02,0.15
2022-11-11 12:52:52.8920,-0.1,0.08,0.02,0.12
2022-11-11 12:52:52.8970,-0.08,0.04,0.03,0.09
2022-11-11 12:52:52.9080,-0.03,0.02,0.02,0.04
2022-11-11 12:52:52.9180,0.03,-0.01,-0.03,0.04
2022-11-11 12:52:52.9280,0.09,-0.04,-0.05,0.11
2022-11-11 12:52:52.9370,0.08,-0.04,-0.09,0.12
2022-11-11 12:52:52.9480,0.03,0.01,-0.11,0.11
2022-11-11 12:52:52.9870,-0.06,0.07,-0.04,0.1
2022-11-11 12:52:52.9890,-0.15,0.1,0.0,0.18
2022-11-11 12:52:52.9900,-0.16,0.05,0.09,0.19
2022-11-11 12:52:52.9920,-0.12,0.0,0.1,0.15
2022-11-11 12:52:52.9970,-0.04,0.0,0.03,0.05
2022-11-11 12:52:53.0070,0.09,0.02,0.03,0.09
2022-11-11 12:52:53.0170,0.12,0.04,0.02,0.12
2022-11-11 12:52:53.0270,0.05,0.08,-0.03,0.09
2022-11-11 12:52:53.0370,-0.02,0.14,-0.04,0.14
2022-11-11 12:52:53.0470,-0.09,0.19,-0.03,0.21
2022-11-11 12:52:53.0880,-0.03,0.17,-0.03,0.17
2022-11-11 12:52:53.0890,0.01,0.05,-0.08,0.09
2022-11-11 12:52:53.0910,-0.03,-0.03,-0.07,0.08
2022-11-11 12:52:53.0920,-0.03,-0.04,-0.05,0.07
2022-11-11 12:52:53.0960,-0.06,-0.02,-0.06,0.08
2022-11-11 12:52:53.1060,-0.05,0.01,-0.08,0.09
2022-11-11 12:52:53.1160,-0.02,0.03,-0.13,0.13
2022-11-11 12:52:53.1260,-0.02,0.04,-0.13,0.13
2022-11-11 12:52:53.1360,-0.07,0.05,-0.15,0.17
2022-11-11 12:52:53.1460,0.0,0.03,-0.11,0.11
2022-11-11 12:52:53.1880,0.18,-0.02,0.03,0.18
2022-11-11 12:52:53.1890,0.23,-0.01,0.05,0.23
2022-11-11 12:52:53.1910,0.12,0.04,-0.1,0.16
2022-11-11 12:52:53.1920,0.08,0.05,-0.12,0.15
2022-11-11 12:52:53.1960,0.05,0.06,-0.08,0.11
2022-11-11 12:52:53.2060,0.0,0.09,-0.02,0.09
2022-11-11 12:52:53.2160,0.0,0.09,0.1,0.13
2022-11-11 12:52:53.2260,0.04,0.05,0.04,0.07
2022-11-11 12:52:53.2360,0.21,0.02,-0.1,0.23
2022-11-11 12:52:53.2460,0.29,0.03,-0.2,0.35
2022-11-11 12:52:53.2870,0.11,0.03,-0.24,0.26
2022-11-11 12:52:53.2880,-0.07,-0.07,-0.11,0.14
2022-11-11 12:52:53.2890,-0.13,-0.1,0.07,0.17
2022-11-11 12:52:53.2910,-0.19,0.03,0.08,0.2
2022-11-11 12:52:53.2950,-0.16,0.13,0.1,0.22
2022-11-11 12:52:53.3050,0.03,0.09,0.05,0.1
2022-11-11 12:52:53.3150,0.24,0.01,-0.07,0.25
2022-11-11 12:52:53.3250,0.24,-0.03,-0.03,0.24
2022-11-11 12:52:53.3350,0.0,-0.01,0.04,0.04
2022-11-11 12:52:53.3450,-0.13,0.01,0.11,0.17
2022-11-11 12:52:53.3870,-0.21,0.07,0.13,0.25
2022-11-11 12:52:53.3890,-0.29,0.12,0.16,0.35
2022-11-11 12:52:53.3900,-0.21,0.15,0.06,0.26
2022-11-11 12:52:53.3920,-0.03,0.13,-0.05,0.14
2022-11-11 12:52:53.3940,0.01,0.06,0.0,0.06
2022-11-11 12:52:53.4050,-0.07,-0.02,0.22,0.23
2022-11-11 12:52:53.4150,-0.18,0.0,0.27,0.32
2022-11-11 12:52:53.4250,-0.14,0.1,0.07,0.18
2022-11-11 12:52:53.4340,0.13,0.14,-0.12,0.22
2022-11-11 12:52:53.4450,0.39,0.09,-0.23,0.46
2022-11-11 12:52:53.4870,0.44,-0.06,-0.31,0.54
2022-11-11 12:52:53.4880,0.41,-0.22,-0.13,0.48
2022-11-11 12:52:53.4890,0.34,-0.28,0.13,0.45
2022-11-11 12:52:53.4910,0.08,-0.1,0.11,0.16
2022-11-11 12:52:53.4940,-0.09,0.12,-0.01,0.15
2022-11-11 12:52:53.5040,-0.02,0.22,0.0,0.22
2022-11-11 12:52:53.5140,0.18,0.13,0.06,0.23
2022-11-11 12:52:53.5240,0.18,-0.05,-0.02,0.18
2022-11-11 12:52:53.5340,0.02,-0.13,0.19,0.23
2022-11-11 12:52:53.5440,-0.2,0.01,0.17,0.26
2022-11-11 12:52:53.5870,-0.29,0.2,-0.04,0.35
2022-11-11 12:52:53.5880,0.03,0.21,-0.14,0.25
2022-11-11 12:52:53.5890,0.45,0.06,-0.4,0.6
2022-11-11 12:52:53.5910,0.51,-0.01,-0.56,0.75
2022-11-11 12:52:53.5930,0.21,0.08,-0.55,0.59
2022-11-11 12:52:53.6030,-0.05,0.16,-0.39,0.42
2022-11-11 12:52:53.6140,-0.26,0.13,-0.1,0.3
2022-11-11 12:52:53.6230,-0.41,0.08,0.12,0.43
2022-11-11 12:52:53.6330,-0.36,0.02,0.29,0.46
2022-11-11 12:52:53.6430,-0.24,0.05,0.19,0.31
2022-11-11 12:52:53.6870,-0.17,0.2,-0.1,0.28
2022-11-11 12:52:53.6880,-0.09,0.27,-0.31,0.42
2022-11-11 12:52:53.6890,0.1,0.19,-0.44,0.48
2022-11-11 12:52:53.6920,0.32,-0.01,-0.39,0.5
2022-11-11 12:52:53.6930,0.23,-0.12,-0.29,0.38
2022-11-11 12:52:53.7030,0.05,-0.11,-0.28,0.3
2022-11-11 12:52:53.7130,-0.06,-0.06,-0.05,0.09
2022-11-11 12:52:53.7230,-0.21,0.03,0.01,0.21
2022-11-11 12:52:53.7330,-0.28,0.09,0.02,0.29
2022-11-11 12:52:53.7430,-0.19,0.11,0.09,0.23
2022-11-11 12:52:53.7850,-0.1,0.12,-0.05,0.16
2022-11-11 12:52:53.7870,-0.04,0.07,-0.19,0.2
2022-11-11 12:52:53.7880,0.1,0.03,-0.11,0.15
2022-11-11 12:52:53.7900,0.2,0.06,-0.04,0.21
2022-11-11 12:52:53.7920,0.14,0.07,-0.06,0.16
2022-11-11 12:52:53.8020,-0.04,0.06,-0.1,0.12
2022-11-11 12:52:53.8120,-0.18,0.11,-0.06,0.21
2022-11-11 12:52:53.8220,-0.19,0.12,-0.02,0.22
2022-11-11 12:52:53.8320,-0.12,0.05,0.02,0.13
2022-11-11 12:52:53.8420,0.06,-0.02,0.1,0.11
2022-11-11 12:52:53.8860,0.18,0.02,0.03,0.18
2022-11-11 12:52:53.8870,0.13,0.1,-0.16,0.22
2022-11-11 12:52:53.8880,0.13,0.14,-0.25,0.31
2022-11-11 12:52:53.8900,0.25,0.1,-0.2,0.33
2022-11-11 12:52:53.8920,0.29,-0.02,-0.16,0.33
2022-11-11 12:52:53.9010,0.27,-0.16,-0.02,0.31
2022-11-11 12:52:53.9120,0.16,-0.15,0.08,0.23
2022-11-11 12:52:53.9220,0.0,0.03,-0.09,0.09
2022-11-11 12:52:53.9310,0.02,0.12,-0.09,0.15
2022-11-11 12:52:53.9410,0.19,0.08,-0.01,0.2
2022-11-11 12:52:53.9850,0.27,0.06,-0.09,0.29
2022-11-11 12:52:53.9870,0.21,0.08,-0.25,0.33
2022-11-11 12:52:53.9880,0.08,0.13,-0.25,0.29
2022-11-11 12:52:53.9900,-0.03,0.06,-0.1,0.12
2022-11-11 12:52:53.9910,-0.11,-0.07,0.06,0.14
2022-11-11 12:52:54.0010,-0.07,-0.05,0.11,0.13
2022-11-11 12:52:54.0110,0.1,0.08,-0.06,0.14
2022-11-11 12:52:54.0210,0.16,0.21,-0.33,0.42
2022-11-11 12:52:54.0310,0.2,0.22,-0.45,0.53
2022-11-11 12:52:54.0410,0.3,0.12,-0.47,0.57
2022-11-11 12:52:54.0860,0.34,0.05,-0.56,0.65
2022-11-11 12:52:54.0870,0.32,0.09,-0.68,0.75
2022-11-11 12:52:54.0880,0.26,0.18,-0.58,0.66
2022-11-11 12:52:54.0900,0.2,0.2,-0.42,0.5
2022-11-11 12:52:54.0910,0.14,0.16,-0.41,0.46
2022-11-11 12:52:54.1010,0.11,0.1,-0.36,0.38
2022-11-11 12:52:54.1110,0.2,0.09,-0.14,0.26
2022-11-11 12:52:54.1200,0.26,0.12,0.08,0.29
2022-11-11 12:52:54.1300,0.3,0.08,0.23,0.38
2022-11-11 12:52:54.1400,0.39,0.09,0.36,0.53
2022-11-11 12:52:54.1850,0.42,0.26,0.35,0.6
2022-11-11 12:52:54.1860,0.45,0.46,0.11,0.65
2022-11-11 12:52:54.1880,0.48,0.58,-0.04,0.75
2022-11-11 12:52:54.1890,0.41,0.69,0.07,0.8
2022-11-11 12:52:54.1910,0.25,0.79,0.02,0.82
2022-11-11 12:52:54.2000,0.04,0.9,-0.18,0.91
2022-11-11 12:52:54.2090,0.04,1.13,-0.46,1.22
2022-11-11 12:52:54.2200,0.46,1.31,-0.51,1.47
2022-11-11 12:52:54.2300,1.06,1.26,-0.33,1.67
2022-11-11 12:52:54.2400,1.5,1.15,-0.29,1.91
2022-11-11 12:52:54.2850,1.67,1.14,-0.45,2.07
2022-11-11 12:52:54.2860,1.67,1.14,-0.38,2.05
2022-11-11 12:52:54.2870,1.59,1.09,-0.1,1.93
2022-11-11 12:52:54.2890,1.34,1.06,0.02,1.7
2022-11-11 12:52:54.2910,1.13,1.07,0.12,1.56
2022-11-11 12:52:54.2990,1.72,1.38,0.9,2.38
2022-11-11 12:52:54.3090,3.16,1.62,1.9,4.02
2022-11-11 12:52:54.3200,3.95,1.42,1.63,4.5
2022-11-11 12:52:54.3290,3.96,0.83,0.91,4.14
2022-11-11 12:52:54.3390,3.87,0.07,1.02,4.0
2022-11-11 12:52:54.3800,3.51,-0.3,1.29,3.75
2022-11-11 12:52:54.3810,3.21,-0.12,1.76,3.66
2022-11-11 12:52:54.3820,2.9,0.14,2.29,3.69
2022-11-11 12:52:54.3840,2.24,0.22,2.35,3.25
2022-11-11 12:52:54.3880,1.77,0.14,2.1,2.75
2022-11-11 12:52:54.3990,1.72,-0.04,1.9,2.56
2022-11-11 12:52:54.4090,1.81,-0.25,1.56,2.4
2022-11-11 12:52:54.4180,1.95,-0.31,1.16,2.29
2022-11-11 12:52:54.4280,2.11,-0.21,0.94,2.31
2022-11-11 12:52:54.4390,2.22,-0.14,0.92,2.4
2022-11-11 12:52:54.4800,2.23,-0.23,0.86,2.4
2022-11-11 12:52:54.4810,2.14,-0.42,0.65,2.27
2022-11-11 12:52:54.4820,1.96,-0.54,0.27,2.05
2022-11-11 12:52:54.4840,1.74,-0.47,-0.11,1.8
2022-11-11 12:52:54.4880,1.46,-0.35,-0.26,1.52
2022-11-11 12:52:54.5050,1.05,-0.17,-0.21,1.08
2022-11-11 12:52:54.5080,0.7,0.11,-0.11,0.71
2022-11-11 12:52:54.5180,0.42,0.31,0.09,0.52
2022-11-11 12:52:54.5280,0.14,0.42,0.11,0.45
2022-11-11 12:52:54.5380,0.02,0.39,0.01,0.39
2022-11-11 12:52:54.5790,-0.16,0.27,-0.33,0.45
2022-11-11 12:52:54.5800,-0.32,0.15,-0.52,0.62
2022-11-11 12:52:54.5810,-0.18,0.04,-0.68,0.7
2022-11-11 12:52:54.5830,0.02,-0.05,-0.87,0.87
2022-11-11 12:52:54.5870,0.02,-0.1,-0.91,0.91
2022-11-11 12:52:54.5970,-0.19,-0.01,-0.9,0.91
2022-11-11 12:52:54.6070,-0.37,0.25,-0.76,0.88
2022-11-11 12:52:54.6170,-0.45,0.44,-0.64,0.89
2022-11-11 12:52:54.6270,-0.54,0.45,-0.63,0.94
2022-11-11 12:52:54.6370,-0.58,0.27,-0.52,0.82
2022-11-11 12:52:54.6790,-0.68,-0.05,-0.45,0.81
2022-11-11 12:52:54.6810,-0.93,-0.24,-0.54,1.1
2022-11-11 12:52:54.6820,-1.11,-0.23,-0.6,1.28
2022-11-11 12:52:54.6840,-1.04,-0.17,-0.49,1.16
2022-11-11 12:52:54.6860,-1.14,-0.17,-0.44,1.23
2022-11-11 12:52:54.6970,-1.46,-0.15,-0.53,1.56
2022-11-11 12:52:54.7070,-1.66,-0.21,-0.54,1.75
2022-11-11 12:52:54.7160,-1.87,-0.32,-0.62,1.99
2022-11-11 12:52:54.7270,-2.09,-0.38,-0.6,2.2
2022-11-11 12:52:54.7370,-2.32,-0.36,-0.53,2.4
2022-11-11 12:52:54.7780,-2.62,-0.39,-0.52,2.69
2022-11-11 12:52:54.7790,-2.92,-0.47,-0.52,3.0
2022-11-11 12:52:54.7810,-3.0,-0.6,-0.55,3.1
2022-11-11 12:52:54.7820,-2.95,-0.59,-0.61,3.06
2022-11-11 12:52:54.7860,-2.9,-0.39,-0.66,2.99
2022-11-11 12:52:54.7960,-2.88,-0.27,-0.76,2.99
2022-11-11 12:52:54.8060,-3.03,-0.27,-0.89,3.16
2022-11-11 12:52:54.8160,-3.33,-0.28,-0.98,3.48
2022-11-11 12:52:54.8260,-3.66,-0.38,-0.9,3.78
2022-11-11 12:52:54.8360,-3.89,-0.61,-0.79,4.01
2022-11-11 12:52:54.8740,-4.01,-0.87,-0.78,4.17
2022-11-11 12:52:54.8760,-4.03,-1.12,-0.9,4.27
2022-11-11 12:52:54.8770,-3.84,-1.18,-0.93,4.12
2022-11-11 12:52:54.8790,-3.57,-0.89,-0.71,3.74
2022-11-11 12:52:54.8850,-3.65,-0.27,-0.28,3.67
2022-11-11 12:52:54.8960,-3.72,0.7,-0.3,3.79
2022-11-11 12:52:54.9060,-2.41,1.86,-0.44,3.07
2022-11-11 12:52:54.9150,0.03,3.1,-0.11,3.1
2022-11-11 12:52:54.9260,1.94,3.68,0.72,4.22
2022-11-11 12:52:54.9350,1.69,2.75,0.51,3.26
2022-11-11 12:52:54.9760,0.28,0.92,0.29,1.0
2022-11-11 12:52:54.9770,-0.45,-0.36,1.02,1.17
2022-11-11 12:52:54.9780,-0.58,-0.72,1.08,1.42
2022-11-11 12:52:54.9800,-0.39,-0.7,0.73,1.08
2022-11-11 12:52:54.9850,-0.28,-0.48,0.21,0.59
2022-11-11 12:52:54.9950,-0.33,-0.11,-0.46,0.57
2022-11-11 12:52:55.0050,-0.29,0.34,-0.81,0.92
2022-11-11 12:52:55.0150,0.1,0.53,-0.38,0.65
2022-11-11 12:52:55.0250,0.24,0.2,-0.05,0.31
2022-11-11 12:52:55.0350,-0.26,-0.31,-0.29,0.49
2022-11-11 12:52:55.0750,-0.72,-0.55,-0.43,1.0
2022-11-11 12:52:55.0770,-0.7,-0.33,-0.2,0.79
2022-11-11 12:52:55.0780,-0.53,0.24,0.01,0.58
2022-11-11 12:52:55.0800,-0.4,0.75,0.21,0.87
2022-11-11 12:52:55.0840,-0.39,0.88,0.08,0.96
2022-11-11 12:52:55.0940,-0.36,0.57,0.09,0.68
2022-11-11 12:52:55.1040,-0.34,0.28,0.05,0.44
2022-11-11 12:52:55.1140,-0.37,0.23,-0.27,0.51
2022-11-11 12:52:55.1240,-0.18,0.3,-0.38,0.51
2022-11-11 12:52:55.1340,0.06,0.24,-0.54,0.59
2022-11-11 12:52:55.1750,-0.24,0.14,-0.78,0.82
2022-11-11 12:52:55.1760,-0.75,0.17,-0.45,0.89
2022-11-11 12:52:55.1770,-1.13,0.21,-0.08,1.15
2022-11-11 12:52:55.1790,-1.24,0.23,0.06,1.26
2022-11-11 12:52:55.1840,-0.84,0.27,0.17,0.89
2022-11-11 12:52:55.1940,-0.3,0.24,0.01,0.38
2022-11-11 12:52:55.2040,0.19,0.11,-0.19,0.29
2022-11-11 12:52:55.2140,0.58,-0.08,-0.33,0.67
2022-11-11 12:52:55.2240,0.77,-0.22,-0.25,0.83
2022-11-11 12:52:55.2340,0.74,-0.21,-0.26,0.81
2022-11-11 12:52:55.2750,0.54,-0.19,-0.45,0.72
2022-11-11 12:52:55.2770,0.17,-0.15,-0.47,0.52
2022-11-11 12:52:55.2780,-0.26,-0.03,-0.33,0.42
2022-11-11 12:52:55.2800,-0.48,0.13,-0.11,0.5
2022-11-11 12:52:55.2830,-0.36,0.16,0.25,0.46
2022-11-11 12:52:55.2930,-0.06,0.09,0.48,0.49
2022-11-11 12:52:55.3030,0.17,0.01,0.09,0.19
2022-11-11 12:52:55.3130,0.37,-0.03,-0.19,0.41
2022-11-11 12:52:55.3230,0.49,-0.01,-0.2,0.52
2022-11-11 12:52:55.3330,0.31,0.06,-0.28,0.42
2022-11-11 12:52:55.3740,0.09,0.12,-0.33,0.36
2022-11-11 12:52:55.3750,0.03,0.09,-0.14,0.16
2022-11-11 12:52:55.3770,0.0,0.07,0.21,0.22
2022-11-11 12:52:55.3790,-0.04,0.13,0.35,0.37
2022-11-11 12:52:55.3820,-0.1,0.11,0.07,0.16
2022-11-11 12:52:55.3930,-0.04,0.05,-0.02,0.06
2022-11-11 12:52:55.4020,0.08,0.06,-0.08,0.12
2022-11-11 12:52:55.4120,0.08,0.11,-0.35,0.37
2022-11-11 12:52:55.4230,0.12,0.08,-0.37,0.39
2022-11-11 12:52:55.4320,0.23,0.02,-0.28,0.36
2022-11-11 12:52:55.4730,0.31,0.01,-0.25,0.39
2022-11-11 12:52:55.4750,0.33,0.03,-0.28,0.43
2022-11-11 12:52:55.4760,0.22,0.09,-0.36,0.43
2022-11-11 12:52:55.4780,0.05,0.17,-0.24,0.29
2022-11-11 12:52:55.4820,-0.19,0.16,-0.11,0.27
2022-11-11 12:52:55.4920,-0.37,0.06,-0.02,0.37
2022-11-11 12:52:55.5020,-0.3,-0.07,0.06,0.31
2022-11-11 12:52:55.5120,-0.07,-0.09,-0.11,0.15
2022-11-11 12:52:55.5220,0.22,-0.01,-0.33,0.39
2022-11-11 12:52:55.5320,0.41,0.04,-0.35,0.54
2022-11-11 12:52:55.5730,0.41,0.05,-0.28,0.49
2022-11-11 12:52:55.5740,0.36,-0.02,-0.09,0.37
2022-11-11 12:52:55.5760,0.33,-0.08,0.06,0.34
2022-11-11 12:52:55.5770,0.14,-0.07,-0.04,0.16
2022-11-11 12:52:55.5810,0.12,-0.03,-0.29,0.31
2022-11-11 12:52:55.5920,0.36,0.0,-0.4,0.53
2022-11-11 12:52:55.6010,0.63,0.05,-0.37,0.73
2022-11-11 12:52:55.6110,0.51,0.12,-0.44,0.68
2022-11-11 12:52:55.6210,-0.09,0.18,-0.44,0.48
2022-11-11 12:52:55.6310,-0.39,0.17,-0.28,0.5
2022-11-11 12:52:55.6730,-0.28,0.22,-0.37,0.51
2022-11-11 12:52:55.6740,0.16,0.2,-0.67,0.71
2022-11-11 12:52:55.6750,0.64,0.13,-0.63,0.9
2022-11-11 12:52:55.6770,0.7,0.11,-0.41,0.81
2022-11-11 12:52:55.6800,0.39,0.15,-0.24,0.48
2022-11-11 12:52:55.6910,0.16,0.23,0.0,0.28
2022-11-11 12:52:55.7010,0.27,0.35,0.5,0.66
2022-11-11 12:52:55.7110,0.46,0.48,0.65,0.92
2022-11-11 12:52:55.7200,0.53,0.56,0.26,0.81
2022-11-11 12:52:55.7310,0.53,0.66,-0.09,0.85
2022-11-11 12:52:55.7730,0.65,1.03,-0.01,1.21
2022-11-11 12:52:55.7740,0.67,1.69,0.21,1.83
2022-11-11 12:52:55.7750,0.53,2.01,0.27,2.09
2022-11-11 12:52:55.7770,0.48,1.75,0.14,1.82
2022-11-11 12:52:55.7800,0.65,1.63,-0.09,1.75
2022-11-11 12:52:55.7900,1.08,2.16,-0.34,2.43
2022-11-11 12:52:55.8000,1.37,2.92,-0.57,3.27
2022-11-11 12:52:55.8100,1.35,3.18,-0.47,3.48
2022-11-11 12:52:55.8200,1.23,2.67,-0.12,2.94
2022-11-11 12:52:55.8300,1.95,2.08,0.98,3.01
2022-11-11 12:52:55.8700,3.53,1.59,1.97,4.34
2022-11-11 12:52:55.8720,4.65,1.18,1.59,5.05
2022-11-11 12:52:55.8730,5.02,0.89,0.46,5.11
2022-11-11 12:52:55.8750,5.43,0.75,0.28,5.48
2022-11-11 12:52:55.8790,5.68,0.56,0.66,5.74
2022-11-11 12:52:55.8900,5.33,0.34,0.76,5.39
2022-11-11 12:52:55.8990,4.85,0.11,1.07,4.96
2022-11-11 12:52:55.9100,4.25,-0.05,1.57,4.53
2022-11-11 12:52:55.9190,3.53,-0.11,1.84,3.98
2022-11-11 12:52:55.9300,3.06,-0.09,1.86,3.58
2022-11-11 12:52:55.9720,2.92,0.01,1.65,3.35
2022-11-11 12:52:55.9730,3.01,-0.01,1.41,3.32
2022-11-11 12:52:55.9750,3.28,-0.07,1.21,3.49
2022-11-11 12:52:55.9770,3.6,-0.18,1.01,3.74
2022-11-11 12:52:55.9790,3.69,-0.4,0.68,3.77
2022-11-11 12:52:55.9890,3.51,-0.65,0.24,3.57
2022-11-11 12:52:55.9990,3.37,-0.82,0.1,3.46
2022-11-11 12:52:56.0090,3.29,-0.82,0.11,3.39
2022-11-11 12:52:56.0190,3.16,-0.61,0.08,3.21
2022-11-11 12:52:56.0290,2.82,-0.3,-0.13,2.83
2022-11-11 12:52:56.0710,2.21,-0.09,-0.42,2.25
2022-11-11 12:52:56.0730,1.65,-0.02,-0.51,1.72
2022-11-11 12:52:56.0740,1.25,-0.01,-0.71,1.43
2022-11-11 12:52:56.0760,1.03,0.02,-0.96,1.4
2022-11-11 12:52:56.0780,0.87,0.01,-1.07,1.37
2022-11-11 12:52:56.0880,0.66,-0.04,-1.15,1.32
2022-11-11 12:52:56.0980,0.27,0.03,-1.26,1.28
2022-11-11 12:52:56.1080,-0.18,0.25,-1.35,1.38
2022-11-11 12:52:56.1180,-0.31,0.47,-1.1,1.23
2022-11-11 12:52:56.1280,-0.31,0.58,-0.84,1.06
2022-11-11 12:52:56.1710,-0.58,0.51,-1.05,1.3
2022-11-11 12:52:56.1720,-1.06,0.37,-1.27,1.69
2022-11-11 12:52:56.1740,-1.35,0.23,-1.13,1.77
2022-11-11 12:52:56.1870,-1.53,0.1,-1.12,1.89
2022-11-11 12:52:56.1880,-1.78,0.07,-1.08,2.08
2022-11-11 12:52:56.1900,-2.11,0.04,-0.9,2.29
2022-11-11 12:52:56.1970,-2.6,-0.12,-0.98,2.78
2022-11-11 12:52:56.2080,-3.0,-0.22,-0.96,3.15
2022-11-11 12:52:56.2170,-2.87,0.1,-0.69,2.95
2022-11-11 12:52:56.2270,-2.53,0.41,-0.26,2.57
2022-11-11 12:52:56.2690,-2.71,0.41,-0.11,2.74
2022-11-11 12:52:56.2710,-3.28,0.34,-0.26,3.3
2022-11-11 12:52:56.2720,-3.69,0.2,-0.15,3.69
2022-11-11 12:52:56.2860,-4.14,-0.03,0.01,4.14
2022-11-11 12:52:56.2880,-4.54,-0.25,0.16,4.54
2022-11-11 12:52:56.2890,-4.62,-0.52,0.23,4.65
2022-11-11 12:52:56.2970,-4.55,-0.72,0.12,4.6
2022-11-11 12:52:56.3070,-4.53,-0.58,-0.12,4.56
2022-11-11 12:52:56.3170,-4.36,-0.22,-0.37,4.38
2022-11-11 12:52:56.3270,-4.11,-0.01,-0.29,4.12
2022-11-11 12:52:56.3700,-4.11,-0.09,-0.09,4.11
2022-11-11 12:52:56.3710,-4.24,-0.43,-0.12,4.26
2022-11-11 12:52:56.3720,-4.23,-0.84,-0.39,4.33
2022-11-11 12:52:56.3740,-4.15,-1.07,-0.57,4.32
2022-11-11 12:52:56.3760,-4.02,-1.21,-0.42,4.21
2022-11-11 12:52:56.3870,-4.04,-1.38,-0.31,4.28
2022-11-11 12:52:56.3960,-3.99,-1.59,-0.17,4.29
2022-11-11 12:52:56.4070,-3.7,-1.7,-0.14,4.07
2022-11-11 12:52:56.4160,-3.58,-0.78,-0.37,3.68
2022-11-11 12:52:56.4260,-2.37,2.25,0.54,3.31
2022-11-11 12:52:56.4700,0.67,5.58,2.35,6.09
2022-11-11 12:52:56.4720,2.62,7.11,2.62,8.01
2022-11-11 12:52:56.4730,1.21,5.51,-0.12,5.64
2022-11-11 12:52:56.4750,-0.97,1.42,-2.1,2.71
2022-11-11 12:52:56.4770,-1.46,-1.29,-1.79,2.64
2022-11-11 12:52:56.4860,-1.2,-1.89,-1.59,2.74
2022-11-11 12:52:56.4960,-0.87,-1.24,-1.63,2.22
2022-11-11 12:52:56.5060,-0.84,-0.21,-1.66,1.87
2022-11-11 12:52:56.5160,-1.45,0.94,-1.29,2.15
2022-11-11 12:52:56.5260,-2.38,1.69,-0.53,2.96
2022-11-11 12:52:56.5690,-2.98,1.69,0.46,3.45
2022-11-11 12:52:56.5700,-2.89,0.88,1.2,3.25
2022-11-11 12:52:56.5710,-2.18,0.01,1.56,2.68
2022-11-11 12:52:56.5730,-1.2,-0.4,1.37,1.86
2022-11-11 12:52:56.5750,-0.34,-0.32,0.6,0.76
2022-11-11 12:52:56.5850,0.38,-0.08,-0.21,0.44
2022-11-11 12:52:56.5950,0.94,0.15,-0.97,1.35
2022-11-11 12:52:56.6050,1.22,0.33,-1.22,1.75
2022-11-11 12:52:56.6150,0.89,0.41,-0.88,1.31
2022-11-11 12:52:56.6250,0.01,0.38,-0.48,0.61
2022-11-11 12:52:56.6690,-0.85,0.27,-0.15,0.9
2022-11-11 12:52:56.6710,-1.31,0.18,0.32,1.36
2022-11-11 12:52:56.6720,-1.16,0.17,0.51,1.27
2022-11-11 12:52:56.6740,-0.66,0.28,0.22,0.74
2022-11-11 12:52:56.6760,-0.09,0.28,-0.21,0.36
2022-11-11 12:52:56.6840,0.33,0.17,-0.48,0.6
2022-11-11 12:52:56.6950,0.52,0.04,-0.56,0.76
2022-11-11 12:52:56.7050,0.38,-0.02,-0.64,0.74
2022-11-11 12:52:56.7140,0.07,0.04,-0.45,0.45
2022-11-11 12:52:56.7250,-0.2,0.1,-0.11,0.24
2022-11-11 12:52:56.7680,-0.32,0.15,0.13,0.37
2022-11-11 12:52:56.7700,-0.19,0.13,0.17,0.28
2022-11-11 12:52:56.7710,-0.04,0.04,0.07,0.09
2022-11-11 12:52:56.7730,0.03,0.0,-0.13,0.13
2022-11-11 12:52:56.7750,0.26,-0.08,-0.33,0.42
2022-11-11 12:52:56.7840,0.26,-0.13,-0.56,0.63
2022-11-11 12:52:56.7940,0.05,-0.12,-0.55,0.56
2022-11-11 12:52:56.8040,-0.1,0.02,-0.4,0.41
2022-11-11 12:52:56.8140,-0.05,0.14,-0.23,0.27
2022-11-11 12:52:56.8250,0.25,0.06,-0.05,0.26
2022-11-11 12:52:56.8690,0.52,-0.12,-0.09,0.54
2022-11-11 12:52:56.8710,0.62,-0.2,-0.19,0.67
2022-11-11 12:52:56.8720,0.52,-0.13,-0.38,0.65
2022-11-11 12:52:56.8740,0.22,0.04,-0.46,0.51
2022-11-11 12:52:56.8760,-0.04,0.13,-0.19,0.23
2022-11-11 12:52:56.8830,-0.31,0.2,0.03,0.37
2022-11-11 12:52:56.8930,-0.44,0.2,0.0,0.48
2022-11-11 12:52:56.9030,-0.27,0.09,-0.12,0.3
2022-11-11 12:52:56.9130,0.01,0.01,-0.17,0.17
2022-11-11 12:52:56.9230,0.18,0.0,-0.28,0.33
2022-11-11 12:52:56.9690,0.31,0.02,-0.23,0.38
2022-11-11 12:52:56.9710,0.37,0.0,-0.09,0.38
2022-11-11 12:52:56.9720,0.22,-0.06,-0.17,0.28
2022-11-11 12:52:56.9740,-0.01,-0.12,-0.16,0.2
2022-11-11 12:52:56.9760,-0.06,-0.08,0.06,0.11
2022-11-11 12:52:56.9830,-0.05,0.06,0.06,0.09
2022-11-11 12:52:56.9930,0.01,0.15,-0.03,0.15
2022-11-11 12:52:57.0030,0.05,0.1,-0.06,0.12
2022-11-11 12:52:57.0120,-0.13,0.03,-0.1,0.16
2022-11-11 12:52:57.0230,-0.31,0.0,-0.04,0.31
2022-11-11 12:52:57.0690,-0.36,0.01,0.02,0.36
2022-11-11 12:52:57.0700,-0.23,0.06,0.0,0.23
2022-11-11 12:52:57.0720,0.12,0.14,-0.08,0.2
2022-11-11 12:52:57.0740,0.4,0.12,-0.28,0.5
2022-11-11 12:52:57.0750,0.44,0.03,-0.34,0.55
2022-11-11 12:52:57.0820,0.27,-0.05,-0.32,0.42
2022-11-11 12:52:57.0920,-0.1,-0.03,-0.13,0.16
2022-11-11 12:52:57.1020,-0.33,-0.01,0.03,0.33
2022-11-11 12:52:57.1120,-0.43,0.07,0.03,0.43
2022-11-11 12:52:57.1220,-0.27,0.14,0.06,0.31
2022-11-11 12:52:57.1680,0.04,0.15,-0.08,0.17
2022-11-11 12:52:57.1700,0.32,0.1,-0.23,0.4
2022-11-11 12:52:57.1710,0.56,-0.02,-0.29,0.63
2022-11-11 12:52:57.1730,0.6,-0.09,-0.48,0.77
2022-11-11 12:52:57.1740,0.49,-0.09,-0.5,0.7
2022-11-11 12:52:57.1810,0.44,0.03,-0.39,0.58
2022-11-11 12:52:57.1920,0.25,0.14,-0.37,0.46
2022-11-11 12:52:57.2020,-0.15,0.24,-0.2,0.34
2022-11-11 12:52:57.2110,-0.39,0.35,-0.19,0.55
2022-11-11 12:52:57.2220,-0.26,0.59,-0.39,0.75
2022-11-11 12:52:57.2680,0.3,0.93,-0.57,1.13
2022-11-11 12:52:57.2690,0.95,1.1,-0.51,1.54
2022-11-11 12:52:57.2710,1.46,0.98,-0.06,1.75
2022-11-11 12:52:57.2730,1.5,0.6,-0.09,1.61
2022-11-11 12:52:57.2740,1.35,0.23,-0.48,1.45
2022-11-11 12:52:57.2810,1.47,0.38,-0.55,1.61
2022-11-11 12:52:57.2910,1.57,1.18,-0.58,2.04
2022-11-11 12:52:57.3010,1.54,2.09,-0.43,2.63
2022-11-11 12:52:57.3110,1.19,2.78,-0.52,3.06
2022-11-11 12:52:57.3210,0.54,3.08,-0.95,3.26
2022-11-11 12:52:57.3680,0.06,3.07,-1.25,3.31
2022-11-11 12:52:57.3700,0.74,3.01,-0.81,3.2
2022-11-11 12:52:57.3710,2.93,2.89,0.38,4.13
2022-11-11 12:52:57.3730,5.08,2.43,1.19,5.75
2022-11-11 12:52:57.3740,6.3,1.58,0.55,6.51
2022-11-11 12:52:57.3800,6.67,0.68,-0.75,6.74
2022-11-11 12:52:57.3900,6.93,0.06,-0.94,6.99
2022-11-11 12:52:57.4000,7.04,-0.19,-0.58,7.06
2022-11-11 12:52:57.4100,6.75,-0.09,-0.21,6.75
2022-11-11 12:52:57.4200,6.0,0.23,0.32,6.01
2022-11-11 12:52:57.4650,4.87,0.4,1.09,5.0
2022-11-11 12:52:57.4660,3.61,0.26,1.6,3.95
2022-11-11 12:52:57.4670,2.69,-0.15,1.81,3.24
2022-11-11 12:52:57.4700,2.56,-0.61,1.93,3.26
2022-11-11 12:52:57.4710,3.05,-0.92,1.71,3.61
2022-11-11 12:52:57.4800,3.74,-1.04,1.18,4.05
2022-11-11 12:52:57.4900,4.4,-0.97,0.63,4.54
2022-11-11 12:52:57.5000,4.84,-0.73,0.14,4.89
2022-11-11 12:52:57.5100,5.12,-0.51,-0.04,5.14
2022-11-11 12:52:57.5200,5.11,-0.31,-0.04,5.11
2022-11-11 12:52:57.5640,4.83,-0.17,0.02,4.83
2022-11-11 12:52:57.5660,4.52,-0.23,0.28,4.53
2022-11-11 12:52:57.5670,4.11,-0.23,0.36,4.13
2022-11-11 12:52:57.5690,3.64,0.0,0.29,3.65
2022-11-11 12:52:57.5710,3.15,0.39,-0.17,3.17
2022-11-11 12:52:57.5790,2.81,0.75,-0.63,2.97
2022-11-11 12:52:57.5890,2.6,1.01,-0.83,2.91
2022-11-11 12:52:57.5990,2.15,1.11,-0.89,2.57
2022-11-11 12:52:57.6090,1.37,1.07,-1.0,2.0
2022-11-11 12:52:57.6190,0.52,1.03,-1.11,1.6
2022-11-11 12:52:57.6640,-0.25,1.09,-1.14,1.59
2022-11-11 12:52:57.6650,-0.96,1.22,-1.19,1.95
2022-11-11 12:52:57.6660,-1.49,1.45,-1.1,2.35
2022-11-11 12:52:57.6680,-1.94,1.47,-0.87,2.58
2022-11-11 12:52:57.6700,-2.53,1.04,-0.87,2.87
2022-11-11 12:52:57.6780,-3.21,0.5,-1.22,3.47
2022-11-11 12:52:57.6890,-3.73,0.29,-1.38,3.98
2022-11-11 12:52:57.6990,-4.03,0.57,-1.15,4.22
2022-11-11 12:52:57.7080,-4.25,0.95,-0.75,4.41
2022-11-11 12:52:57.7190,-4.47,0.97,-0.55,4.6
2022-11-11 12:52:57.7640,-4.67,0.57,-0.49,4.73
2022-11-11 12:52:57.7650,-4.62,0.1,-0.32,4.63
2022-11-11 12:52:57.7670,-4.52,-0.37,-0.16,4.53
2022-11-11 12:52:57.7690,-4.64,-0.79,-0.11,4.7
2022-11-11 12:52:57.7700,-4.86,-0.87,-0.16,4.93
2022-11-11 12:52:57.7780,-4.77,-0.58,0.02,4.8
2022-11-11 12:52:57.7880,-4.64,-0.18,0.32,4.65
2022-11-11 12:52:57.7980,-4.82,0.02,0.31,4.83
2022-11-11 12:52:57.8080,-5.06,-0.26,0.26,5.07
2022-11-11 12:52:57.8180,-5.36,-0.65,-0.01,5.39
2022-11-11 12:52:57.8620,-5.51,-0.89,-0.36,5.59
2022-11-11 12:52:57.8640,-5.32,-0.81,-0.37,5.39
2022-11-11 12:52:57.8650,-5.16,-0.22,-0.41,5.18
2022-11-11 12:52:57.8670,-5.15,0.42,-0.47,5.18
2022-11-11 12:52:57.8690,-5.07,0.68,-0.42,5.13
2022-11-11 12:52:57.8770,-4.89,0.34,-0.49,4.92
2022-11-11 12:52:57.8870,-4.56,-0.16,-0.63,4.6
2022-11-11 12:52:57.8970,-3.75,-0.46,-0.81,3.86
2022-11-11 12:52:57.9070,-2.93,-0.7,-0.74,3.1
2022-11-11 12:52:57.9170,-2.78,-0.94,-0.77,3.03
2022-11-11 12:52:57.9620,-3.26,-1.15,-1.07,3.61
2022-11-11 12:52:57.9640,-3.78,-1.07,-0.9,4.03
2022-11-11 12:52:57.9650,-2.37,0.47,-0.01,2.41
2022-11-11 12:52:57.9670,1.19,3.59,2.14,4.34
2022-11-11 12:52:57.9690,3.6,7.67,3.38,9.12
2022-11-11 12:52:57.9770,2.62,8.94,1.45,9.42
2022-11-11 12:52:57.9870,-0.12,4.5,-0.84,4.57
2022-11-11 12:52:57.9970,-1.36,-0.81,-1.15,1.95
2022-11-11 12:52:58.0070,-1.67,-2.74,-0.76,3.29
2022-11-11 12:52:58.0170,-1.59,-2.74,-0.45,3.19
2022-11-11 12:52:58.0610,-1.35,-1.64,-0.7,2.23
2022-11-11 12:52:58.0620,-1.57,0.13,-1.26,2.01
2022-11-11 12:52:58.0630,-2.12,1.84,-1.28,3.08
2022-11-11 12:52:58.0650,-2.73,2.75,-0.51,3.9
2022-11-11 12:52:58.0670,-3.0,1.83,0.39,3.53
2022-11-11 12:52:58.0760,-2.94,0.37,0.91,3.09
2022-11-11 12:52:58.0860,-2.47,-0.5,0.8,2.64
2022-11-11 12:52:58.0960,-1.31,-0.66,0.36,1.51
2022-11-11 12:52:58.1060,0.12,-0.32,-0.28,0.44
2022-11-11 12:52:58.1160,1.16,0.06,-0.89,1.46
2022-11-11 12:52:58.1610,1.53,0.29,-1.17,1.94
2022-11-11 12:52:58.1630,0.98,0.52,-1.13,1.58
2022-11-11 12:52:58.1640,-0.01,0.69,-0.72,0.99
2022-11-11 12:52:58.1660,-0.9,0.71,0.0,1.14
2022-11-11 12:52:58.1680,-1.67,0.74,0.52,1.89
2022-11-11 12:52:58.1750,-2.06,0.64,0.58,2.23
2022-11-11 12:52:58.1850,-1.64,0.31,0.38,1.71
2022-11-11 12:52:58.1960,-0.64,0.06,0.11,0.65
2022-11-11 12:52:58.2050,0.15,0.01,-0.42,0.44
2022-11-11 12:52:58.2150,0.55,0.0,-0.81,0.97
2022-11-11 12:52:58.2610,0.68,-0.03,-0.74,1.0
2022-11-11 12:52:58.2620,0.7,-0.03,-0.47,0.84
2022-11-11 12:52:58.2630,0.71,-0.08,-0.25,0.75
2022-11-11 12:52:58.2650,0.39,-0.12,-0.22,0.46
2022-11-11 12:52:58.2660,-0.13,-0.07,-0.19,0.24
2022-11-11 12:52:58.2750,-0.47,0.05,-0.05,0.47
2022-11-11 12:52:58.2850,-0.71,0.13,0.0,0.72
2022-11-11 12:52:58.2950,-0.74,0.13,-0.07,0.75
2022-11-11 12:52:58.3050,-0.39,0.04,-0.08,0.4
2022-11-11 12:52:58.3150,0.05,-0.04,-0.29,0.29
2022-11-11 12:52:58.3610,0.43,-0.04,-0.62,0.75
2022-11-11 12:52:58.3630,0.75,-0.04,-0.55,0.93
2022-11-11 12:52:58.3640,0.84,-0.05,-0.44,0.94
2022-11-11 12:52:58.3650,0.7,-0.08,-0.45,0.83
2022-11-11 12:52:58.3670,0.36,-0.08,-0.36,0.51
2022-11-11 12:52:58.3740,-0.02,-0.01,-0.15,0.15
2022-11-11 12:52:58.3840,-0.3,0.1,-0.1,0.33
2022-11-11 12:52:58.3940,-0.34,0.11,0.0,0.35
2022-11-11 12:52:58.4040,-0.29,0.07,0.04,0.3
2022-11-11 12:52:58.4140,-0.19,0.07,-0.16,0.25
2022-11-11 12:52:58.4610,0.04,0.04,-0.29,0.29
2022-11-11 12:52:58.4620,-0.06,0.05,-0.34,0.34
2022-11-11 12:52:58.4640,-0.38,0.12,-0.27,0.48
2022-11-11 12:52:58.4650,-0.46,0.15,0.04,0.48
2022-11-11 12:52:58.4670,-0.25,0.12,0.23,0.36
2022-11-11 12:52:58.4740,0.05,0.08,0.01,0.09
2022-11-11 12:52:58.4840,0.22,0.01,-0.37,0.43
2022-11-11 12:52:58.4930,0.23,-0.03,-0.4,0.46
2022-11-11 12:52:58.5040,0.08,0.01,-0.24,0.25
2022-11-11 12:52:58.5140,-0.11,0.04,-0.14,0.18
2022-11-11 12:52:58.5600,-0.13,-0.03,-0.02,0.13
2022-11-11 12:52:58.5610,0.05,-0.06,0.02,0.08
2022-11-11 12:52:58.5620,0.33,-0.03,-0.18,0.37
2022-11-11 12:52:58.5640,0.71,0.02,-0.38,0.8
2022-11-11 12:52:58.5660,0.78,0.01,-0.42,0.88
2022-11-11 12:52:58.5730,0.38,0.01,-0.38,0.53
2022-11-11 12:52:58.5830,-0.1,-0.03,-0.16,0.19
2022-11-11 12:52:58.5930,-0.45,-0.08,0.21,0.5
2022-11-11 12:52:58.6030,-0.63,-0.02,0.32,0.7
2022-11-11 12:52:58.6130,-0.54,0.05,0.27,0.6
2022-11-11 12:52:58.6600,-0.27,0.1,0.12,0.31
2022-11-11 12:52:58.6620,0.18,0.08,-0.05,0.2
2022-11-11 12:52:58.6630,0.6,0.01,-0.3,0.67
2022-11-11 12:52:58.6650,0.56,-0.01,-0.57,0.79
2022-11-11 12:52:58.6660,0.17,0.03,-0.54,0.56
2022-11-11 12:52:58.6720,-0.17,0.02,-0.28,0.32
2022-11-11 12:52:58.6820,-0.35,-0.03,-0.11,0.36
2022-11-11 12:52:58.6920,-0.31,-0.03,-0.01,0.31
2022-11-11 12:52:58.7030,-0.05,0.05,-0.02,0.07
2022-11-11 12:52:58.7120,0.26,0.19,-0.05,0.32
2022-11-11 12:52:58.7600,0.42,0.37,-0.35,0.66
2022-11-11 12:52:58.7620,0.54,0.59,-0.65,1.03
2022-11-11 12:52:58.7630,0.71,0.88,-0.67,1.31
2022-11-11 12:52:58.7650,0.92,1.1,-0.63,1.56
2022-11-11 12:52:58.7670,1.22,1.04,-0.44,1.66
2022-11-11 12:52:58.7720,1.45,0.78,-0.04,1.64
2022-11-11 12:52:58.7820,1.32,0.59,-0.13,1.45
2022-11-11 12:52:58.7920,1.14,0.78,-0.38,1.43
2022-11-11 12:52:58.8020,1.15,1.46,-0.3,1.88
2022-11-11 12:52:58.8120,1.02,2.37,-0.37,2.6
2022-11-11 12:52:58.8590,0.79,3.17,-0.63,3.32
2022-11-11 12:52:58.8610,0.55,3.58,-0.85,3.72
2022-11-11 12:52:58.8620,0.91,3.38,-0.47,3.53
2022-11-11 12:52:58.8640,2.31,2.68,0.39,3.55
2022-11-11 12:52:58.8650,4.28,2.06,1.38,4.94
2022-11-11 12:52:58.8710,6.02,1.45,1.47,6.36
2022-11-11 12:52:58.8810,6.96,0.66,0.32,6.99
2022-11-11 12:52:58.8910,7.4,0.08,-0.74,7.43
2022-11-11 12:52:58.9010,7.48,-0.02,-0.76,7.51
2022-11-11 12:52:58.9110,7.01,0.15,-0.1,7.01
2022-11-11 12:52:58.9580,6.14,0.32,0.72,6.19
2022-11-11 12:52:58.9590,5.37,0.22,1.57,5.59
2022-11-11 12:52:58.9610,4.78,-0.01,1.96,5.16
2022-11-11 12:52:58.9630,4.66,-0.22,2.14,5.13
2022-11-11 12:52:58.9650,4.93,-0.33,1.8,5.25
2022-11-11 12:52:58.9710,5.31,-0.27,1.23,5.45
2022-11-11 12:52:58.9810,5.63,-0.13,0.86,5.69
2022-11-11 12:52:58.9910,5.78,0.02,0.62,5.81
2022-11-11 12:52:59.0010,5.53,0.08,0.36,5.54
2022-11-11 12:52:59.0110,4.84,0.1,0.28,4.84
2022-11-11 12:52:59.0580,4.01,0.27,0.43,4.04
2022-11-11 12:52:59.0600,3.21,0.6,0.55,3.31
2022-11-11 12:52:59.0610,2.49,0.82,0.6,2.68
2022-11-11 12:52:59.0630,1.91,1.0,0.62,2.24
2022-11-11 12:52:59.0650,1.43,1.14,0.42,1.87
2022-11-11 12:52:59.0700,1.08,1.11,0.11,1.55
2022-11-11 12:52:59.0800,0.91,0.92,-0.12,1.29
2022-11-11 12:52:59.0900,0.81,0.72,-0.44,1.16
2022-11-11 12:52:59.1000,0.62,0.56,-0.91,1.23
2022-11-11 12:52:59.1100,0.23,0.41,-1.22,1.3
2022-11-11 12:52:59.1590,-0.15,0.48,-1.31,1.4
2022-11-11 12:52:59.1600,-0.39,0.67,-1.21,1.43
2022-11-11 12:52:59.1620,-0.83,0.79,-1.28,1.71
2022-11-11 12:52:59.1640,-1.47,0.81,-1.46,2.22
2022-11-11 12:52:59.1650,-1.97,0.68,-1.42,2.52
2022-11-11 12:52:59.1690,-2.39,0.43,-1.35,2.77
2022-11-11 12:52:59.1790,-2.86,0.22,-1.2,3.1
2022-11-11 12:52:59.1900,-3.24,0.03,-0.96,3.37
2022-11-11 12:52:59.1990,-3.4,-0.03,-0.81,3.49
2022-11-11 12:52:59.2090,-3.33,0.23,-0.82,3.43
2022-11-11 12:52:59.2580,-3.13,0.5,-0.81,3.27
2022-11-11 12:52:59.2590,-3.34,0.39,-0.91,3.48
2022-11-11 12:52:59.2600,-3.88,0.18,-0.88,3.98
2022-11-11 12:52:59.2620,-4.04,-0.06,-0.46,4.06
2022-11-11 12:52:59.2640,-4.07,-0.35,-0.03,4.08
2022-11-11 12:52:59.2690,-4.37,-0.43,0.05,4.39
2022-11-11 12:52:59.2790,-4.41,-0.2,0.18,4.41
2022-11-11 12:52:59.2890,-4.26,-0.01,0.2,4.26
2022-11-11 12:52:59.2990,-4.43,-0.02,0.03,4.43
2022-11-11 12:52:59.3090,-4.45,-0.33,0.08,4.46
2022-11-11 12:52:59.3580,-4.17,-0.59,0.17,4.21
2022-11-11 12:52:59.3590,-4.1,-0.71,0.07,4.16
2022-11-11 12:52:59.3610,-4.53,-0.79,-0.34,4.61
2022-11-11 12:52:59.3620,-4.86,-0.46,-0.39,4.89
2022-11-11 12:52:59.3640,-4.72,0.11,-0.05,4.72
2022-11-11 12:52:59.3680,-4.56,0.48,0.09,4.58
2022-11-11 12:52:59.3780,-4.59,0.47,0.06,4.61
2022-11-11 12:52:59.3880,-4.57,0.19,-0.1,4.57
2022-11-11 12:52:59.3980,-4.23,-0.03,-0.15,4.23
2022-11-11 12:52:59.4080,-3.76,0.04,-0.29,3.77
2022-11-11 12:52:59.4570,-3.33,0.1,-0.53,3.37
2022-11-11 12:52:59.4590,-3.23,-0.1,-0.74,3.31
2022-11-11 12:52:59.4600,-3.37,-0.37,-0.8,3.48
2022-11-11 12:52:59.4620,-3.11,-0.36,-0.59,3.18
2022-11-11 12:52:59.4640,-2.48,-0.35,-0.21,2.51
2022-11-11 12:52:59.4670,-2.38,-0.28,-0.27,2.41
2022-11-11 12:52:59.4780,-1.47,0.56,-0.28,1.59
2022-11-11 12:52:59.4880,1.82,2.25,1.15,3.11
2022-11-11 12:52:59.4970,5.22,5.19,4.05,8.4
2022-11-11 12:52:59.5070,4.67,7.53,2.92,9.32
2022-11-11 12:52:59.5550,-0.02,5.49,-0.9,5.56
2022-11-11 12:52:59.5560,-2.39,1.24,-2.09,3.4
2022-11-11 12:52:59.5580,-2.59,-1.64,-0.95,3.2
2022-11-11 12:52:59.5590,-2.12,-2.15,0.13,3.02
2022-11-11 12:52:59.5610,-1.29,-1.47,0.43,2.0
2022-11-11 12:52:59.5670,-0.9,-0.45,-0.37,1.07
2022-11-11 12:52:59.5770,-1.49,0.6,-1.42,2.14
2022-11-11 12:52:59.5870,-2.44,1.39,-1.7,3.28
2022-11-11 12:52:59.5970,-3.19,1.87,-1.03,3.83
2022-11-11 12:52:59.6070,-3.41,1.58,0.03,3.75
2022-11-11 12:52:59.6550,-3.12,0.71,0.77,3.29
2022-11-11 12:52:59.6560,-2.4,0.0,0.89,2.55
2022-11-11 12:52:59.6580,-1.4,-0.24,0.44,1.48
2022-11-11 12:52:59.6590,-0.4,-0.13,-0.27,0.49
2022-11-11 12:52:59.6610,0.63,0.08,-0.76,0.99
2022-11-11 12:52:59.6660,1.38,0.33,-1.18,1.84
2022-11-11 12:52:59.6760,1.4,0.49,-1.26,1.94
2022-11-11 12:52:59.6860,0.57,0.5,-0.74,1.05
2022-11-11 12:52:59.6960,-0.5,0.45,0.02,0.67
2022-11-11 12:52:59.7060,-1.24,0.33,0.54,1.39
2022-11-11 12:52:59.7550,-1.45,0.2,0.62,1.58
2022-11-11 12:52:59.7560,-1.12,0.04,0.39,1.18
2022-11-11 12:52:59.7580,-0.68,-0.02,-0.24,0.72
2022-11-11 12:52:59.7590,-0.13,0.05,-0.58,0.59
2022-11-11 12:52:59.7790,0.51,0.08,-0.45,0.68
2022-11-11 12:52:59.7810,0.73,0.03,-0.54,0.9
2022-11-11 12:52:59.7830,0.64,-0.04,-0.61,0.88
2022-11-11 12:52:59.7860,0.53,-0.03,-0.47,0.7
2022-11-11 12:52:59.7960,0.41,0.02,-0.29,0.5
2022-11-11 12:52:59.8060,0.13,0.01,-0.29,0.31
2022-11-11 12:52:59.8550,-0.44,0.02,-0.09,0.44
2022-11-11 12:52:59.8560,-0.93,0.11,0.18,0.95
2022-11-11 12:52:59.8570,-0.95,0.17,0.15,0.97
2022-11-11 12:52:59.8580,-0.47,0.14,-0.05,0.49
2022-11-11 12:52:59.8800,0.15,0.1,-0.28,0.33
2022-11-11 12:52:59.8810,0.52,0.04,-0.44,0.68
2022-11-11 12:52:59.8830,0.47,0.01,-0.45,0.65
2022-11-11 12:52:59.8850,0.2,0.08,-0.27,0.34
2022-11-11 12:52:59.8950,0.12,0.1,-0.05,0.16
2022-11-11 12:52:59.9050,0.08,0.05,0.1,0.13
2022-11-11 12:52:59.9540,0.14,-0.03,0.07,0.15
2022-11-11 12:52:59.9550,0.31,-0.05,-0.21,0.37
2022-11-11 12:52:59.9570,0.43,-0.05,-0.4,0.58
2022-11-11 12:52:59.9580,0.41,0.07,-0.49,0.64
2022-11-11 12:52:59.9590,0.18,0.15,-0.55,0.59
2022-11-11 12:52:59.9650,-0.3,0.15,-0.4,0.52
2022-11-11 12:52:59.9740,-0.76,0.13,-0.17,0.78
2022-11-11 12:52:59.9850,-0.86,0.12,0.01,0.86
2022-11-11 12:52:59.9940,-0.57,0.08,0.21,0.61
2022-11-11 12:53:00.0040,-0.14,0.11,0.13,0.22
2022-11-11 12:53:00.0540,0.25,0.1,-0.13,0.29
2022-11-11 12:53:00.0550,0.52,0.02,-0.28,0.59
2022-11-11 12:53:00.0560,0.47,-0.05,-0.29,0.55
2022-11-11 12:53:00.0580,0.18,-0.04,-0.32,0.36
2022-11-11 12:53:00.0600,-0.06,-0.03,-0.36,0.36
2022-11-11 12:53:00.0640,-0.23,-0.03,-0.21,0.31
2022-11-11 12:53:00.0740,-0.13,-0.07,0.07,0.16
2022-11-11 12:53:00.0840,0.11,-0.11,0.13,0.2
2022-11-11 12:53:00.0940,0.3,-0.11,-0.17,0.36
2022-11-11 12:53:00.1040,0.49,-0.08,-0.35,0.6
2022-11-11 12:53:00.1540,0.72,0.02,-0.33,0.79
2022-11-11 12:53:00.1560,0.71,0.08,-0.51,0.87
2022-11-11 12:53:00.1570,0.1,-0.02,-0.44,0.45
2022-11-11 12:53:00.1590,-0.43,-0.17,-0.06,0.46
2022-11-11 12:53:00.1790,-0.57,-0.24,0.12,0.63
2022-11-11 12:53:00.1800,-0.46,-0.14,0.19,0.51
2022-11-11 12:53:00.1820,-0.24,0.14,0.03,0.27
2022-11-11 12:53:00.1840,-0.1,0.34,-0.03,0.35
2022-11-11 12:53:00.1930,-0.06,0.33,0.03,0.33
2022-11-11 12:53:00.2030,0.19,0.18,0.1,0.28
2022-11-11 12:53:00.2530,0.58,0.04,-0.02,0.58
2022-11-11 12:53:00.2550,0.32,0.08,-0.5,0.59
2022-11-11 12:53:00.2560,0.07,0.11,-0.61,0.62
2022-11-11 12:53:00.2570,0.12,0.03,-0.33,0.35
2022-11-11 12:53:00.2600,0.19,-0.03,-0.13,0.23
2022-11-11 12:53:00.2630,0.31,0.03,0.04,0.31
2022-11-11 12:53:00.2720,0.4,0.3,-0.37,0.62
2022-11-11 12:53:00.2830,0.64,0.48,-0.79,1.12
2022-11-11 12:53:00.2920,0.92,0.41,-0.58,1.16
2022-11-11 12:53:00.3030,0.87,0.15,-0.26,0.92
2022-11-11 12:53:00.3530,0.79,-0.17,0.12,0.81
2022-11-11 12:53:00.3550,0.89,-0.18,0.33,0.96
2022-11-11 12:53:00.3560,0.95,0.25,-0.03,0.98
2022-11-11 12:53:00.3570,1.0,0.93,-0.49,1.45
2022-11-11 12:53:00.3780,1.17,1.56,-0.52,2.01
2022-11-11 12:53:00.3790,1.27,1.98,-0.39,2.38
2022-11-11 12:53:00.3810,1.14,2.16,-0.34,2.46
2022-11-11 12:53:00.3830,0.84,2.4,-0.51,2.59
2022-11-11 12:53:00.3920,0.6,2.85,-0.46,2.94
2022-11-11 12:53:00.4020,0.5,3.25,-0.19,3.29
2022-11-11 12:53:00.4520,0.68,3.23,-0.02,3.3
2022-11-11 12:53:00.4530,1.44,3.02,0.16,3.34
2022-11-11 12:53:00.4550,3.17,2.87,1.13,4.42
2022-11-11 12:53:00.4570,5.81,2.63,2.5,6.85
2022-11-11 12:53:00.4580,8.0,1.91,1.84,8.42
2022-11-11 12:53:00.4620,9.33,1.01,-0.49,9.39
2022-11-11 12:53:00.4720,9.92,0.57,-2.04,10.14
2022-11-11 12:53:00.4820,9.32,0.25,-1.63,9.46
2022-11-11 12:53:00.4910,7.43,0.26,-0.58,7.45
2022-11-11 12:53:00.5020,5.31,0.66,0.33,5.36
2022-11-11 12:53:00.5540,3.81,1.07,1.87,4.37
2022-11-11 12:53:00.5550,2.74,1.17,3.39,4.51
2022-11-11 12:53:00.5570,2.2,0.53,3.8,4.42
2022-11-11 12:53:00.5580,2.69,-0.5,3.28,4.27
2022-11-11 12:53:00.5780,4.17,-1.07,2.67,5.06
2022-11-11 12:53:00.5800,5.69,-1.06,1.87,6.08
2022-11-11 12:53:00.5820,6.53,-0.67,0.82,6.61
2022-11-11 12:53:00.5830,6.61,-0.19,0.15,6.61
2022-11-11 12:53:00.5910,6.22,0.17,0.21,6.22
2022-11-11 12:53:00.6010,5.38,0.48,0.54,5.42
2022-11-11 12:53:00.6520,4.36,0.7,0.94,4.51
2022-11-11 12:53:00.6540,3.32,0.93,1.23,3.66
2022-11-11 12:53:00.6550,2.36,1.14,1.37,2.95
2022-11-11 12:53:00.6570,1.68,1.36,1.33,2.53
2022-11-11 12:53:00.6580,1.4,1.62,0.99,2.35
2022-11-11 12:53:00.6780,1.41,1.73,0.39,2.26
2022-11-11 12:53:00.6790,1.4,1.69,-0.19,2.2
2022-11-11 12:53:00.6810,1.14,1.52,-0.62,1.99
2022-11-11 12:53:00.6900,0.51,1.45,-0.92,1.79
2022-11-11 12:53:00.7000,-0.19,1.57,-1.02,1.88
2022-11-11 12:53:00.7520,-0.83,1.68,-0.87,2.06
2022-11-11 12:53:00.7540,-1.7,1.55,-0.75,2.41
2022-11-11 12:53:00.7550,-2.57,1.16,-0.71,2.9
2022-11-11 12:53:00.7570,-3.21,0.63,-0.78,3.36
2022-11-11 12:53:00.7580,-3.69,0.06,-1.03,3.83
2022-11-11 12:53:00.7780,-4.02,-0.25,-1.35,4.24
2022-11-11 12:53:00.7800,-3.9,-0.28,-1.41,4.15
2022-11-11 12:53:00.7820,-3.79,0.11,-1.42,4.04
2022-11-11 12:53:00.7890,-4.1,0.61,-1.57,4.43
2022-11-11 12:53:00.8000,-4.58,0.58,-1.44,4.83
2022-11-11 12:53:00.8510,-5.07,0.11,-1.14,5.19
2022-11-11 12:53:00.8530,-5.46,-0.42,-0.99,5.56
2022-11-11 12:53:00.8540,-5.81,-0.92,-1.08,5.98
2022-11-11 12:53:00.8560,-6.11,-1.16,-1.34,6.36
2022-11-11 12:53:00.8570,-6.24,-1.06,-1.41,6.48
2022-11-11 12:53:00.8590,-6.28,-0.63,-1.21,6.42
2022-11-11 12:53:00.8690,-6.16,-0.29,-0.96,6.24
2022-11-11 12:53:00.8790,-6.08,-0.44,-0.89,6.16
2022-11-11 12:53:00.8890,-6.11,-0.87,-0.86,6.23
2022-11-11 12:53:00.8990,-5.99,-1.25,-0.92,6.18
2022-11-11 12:53:00.9500,-5.8,-1.37,-1.0,6.04
2022-11-11 12:53:00.9520,-5.74,-1.18,-1.19,5.97
2022-11-11 12:53:00.9530,-5.9,-1.09,-1.28,6.13
2022-11-11 12:53:00.9550,-5.84,-1.14,-1.1,6.05
2022-11-11 12:53:00.9570,-5.2,-1.34,-0.72,5.41
2022-11-11 12:53:00.9580,-4.61,-1.71,-0.5,4.94
2022-11-11 12:53:00.9770,-4.43,-2.22,-0.67,5.0
2022-11-11 12:53:00.9790,-4.41,-2.62,-0.75,5.18
2022-11-11 12:53:00.9880,-3.77,-1.03,-0.32,3.92
2022-11-11 12:53:00.9990,-0.39,3.61,2.18,4.23
2022-11-11 12:53:01.0490,4.2,9.58,6.05,12.08
2022-11-11 12:53:01.0510,5.22,13.37,4.22,14.96
2022-11-11 12:53:01.0520,0.68,11.21,-3.12,11.65
2022-11-11 12:53:01.0540,-2.32,2.19,-3.29,4.58
2022-11-11 12:53:01.0560,-2.5,-3.15,-2.06,4.51
2022-11-11 12:53:01.0580,-2.0,-4.22,-1.67,4.95
2022-11-11 12:53:01.0780,-1.36,-3.82,-1.76,4.42
2022-11-11 12:53:01.0790,-1.26,-2.41,-2.71,3.83
2022-11-11 12:53:01.0880,-2.06,0.13,-2.91,3.56
2022-11-11 12:53:01.0980,-3.05,2.92,-1.84,4.6
2022-11-11 12:53:01.1500,-3.88,4.39,0.22,5.86
2022-11-11 12:53:01.1510,-3.95,3.08,1.83,5.33
2022-11-11 12:53:01.1520,-3.12,0.55,2.17,3.84
2022-11-11 12:53:01.1540,-1.93,-1.12,1.65,2.77
2022-11-11 12:53:01.1560,-0.5,-1.55,0.61,1.73
2022-11-11 12:53:01.1580,0.92,-1.1,-0.77,1.62
2022-11-11 12:53:01.1770,2.1,-0.46,-1.8,2.8
2022-11-11 12:53:01.1790,2.6,0.18,-2.08,3.33
2022-11-11 12:53:01.1870,2.09,0.65,-1.69,2.76
2022-11-11 12:53:01.1970,0.75,0.73,-0.92,1.39
2022-11-11 12:53:01.2490,-0.76,0.56,-0.21,0.96
2022-11-11 12:53:01.2510,-1.65,0.25,0.44,1.72
2022-11-11 12:53:01.2520,-1.66,-0.11,0.56,1.75
2022-11-11 12:53:01.2540,-0.97,-0.29,0.43,1.09
2022-11-11 12:53:01.2560,-0.29,-0.15,-0.03,0.32
2022-11-11 12:53:01.2570,0.04,0.09,-0.53,0.53
2022-11-11 12:53:01.2770,0.07,0.26,-0.66,0.71
2022-11-11 12:53:01.2780,-0.24,0.31,-0.43,0.58
2022-11-11 12:53:01.2860,-0.65,0.27,-0.07,0.7
2022-11-11 12:53:01.2960,-0.88,0.2,0.1,0.9
2022-11-11 12:53:01.3490,-0.74,0.16,0.12,0.76
2022-11-11 12:53:01.3500,-0.42,0.12,-0.05,0.43
2022-11-11 12:53:01.3520,-0.17,0.11,-0.31,0.37
2022-11-11 12:53:01.3530,0.0,0.15,-0.38,0.4
2022-11-11 12:53:01.3560,-0.03,0.15,-0.4,0.42
2022-11-11 12:53:01.3570,-0.08,0.06,-0.18,0.2
2022-11-11 12:53:01.3770,-0.21,-0.06,-0.11,0.24
2022-11-11 12:53:01.3780,-0.22,-0.08,-0.17,0.28
2022-11-11 12:53:01.3860,-0.04,0.02,-0.1,0.1
2022-11-11 12:53:01.3960,0.03,0.19,-0.13,0.23
2022-11-11 12:53:01.4480,-0.09,0.32,-0.14,0.36
2022-11-11 12:53:01.4500,-0.32,0.34,-0.05,0.46
2022-11-11 12:53:01.4510,-0.37,0.26,-0.01,0.45
2022-11-11 12:53:01.4530,-0.2,0.1,-0.07,0.23
2022-11-11 12:53:01.4550,0.11,-0.06,-0.09,0.15
2022-11-11 12:53:01.4560,0.38,-0.15,-0.18,0.44
2022-11-11 12:53:01.4660,0.51,-0.13,-0.39,0.65
2022-11-11 12:53:01.4750,0.54,-0.09,-0.55,0.77
2022-11-11 12:53:01.4850,0.45,-0.05,-0.55,0.71
2022-11-11 12:53:01.4960,0.33,-0.03,-0.36,0.48
2022-11-11 12:53:01.5480,0.28,-0.02,-0.18,0.33
2022-11-11 12:53:01.5490,0.24,-0.04,-0.14,0.28
2022-11-11 12:53:01.5500,0.2,-0.09,-0.14,0.26
2022-11-11 12:53:01.5520,0.2,-0.08,-0.15,0.26
2022-11-11 12:53:01.5530,0.2,-0.03,-0.11,0.23
2022-11-11 12:53:01.5550,0.2,-0.04,0.07,0.21
2022-11-11 12:53:01.5650,0.15,-0.02,0.11,0.18
2022-11-11 12:53:01.5760,0.1,-0.01,0.06,0.11
2022-11-11 12:53:01.5850,0.04,-0.01,0.01,0.04
2022-11-11 12:53:01.5950,-0.11,0.07,-0.11,0.17
2022-11-11 12:53:01.6480,-0.24,0.17,-0.09,0.3
2022-11-11 12:53:01.6490,-0.3,0.23,0.01,0.37
2022-11-11 12:53:01.6500,-0.29,0.2,0.03,0.35
2022-11-11 12:53:01.6520,-0.23,0.13,-0.04,0.26
2022-11-11 12:53:01.6540,-0.04,0.05,-0.1,0.11
2022-11-11 12:53:01.6560,0.29,0.0,-0.1,0.3
2022-11-11 12:53:01.6640,0.55,0.0,-0.24,0.6
2022-11-11 12:53:01.6760,0.68,0.0,-0.59,0.9
2022-11-11 12:53:01.6840,0.77,0.15,-0.67,1.03
2022-11-11 12:53:01.6940,0.66,0.51,-0.78,1.14
2022-11-11 12:53:01.7470,0.37,0.99,-1.17,1.57
2022-11-11 12:53:01.7480,0.26,1.34,-1.19,1.81
2022-11-11 12:53:01.7500,0.52,1.45,-0.71,1.69
2022-11-11 12:53:01.7510,0.94,1.19,-0.19,1.52
2022-11-11 12:53:01.7530,1.21,0.57,-0.08,1.33
2022-11-11 12:53:01.7550,1.48,0.03,-0.18,1.49
2022-11-11 12:53:01.7640,1.96,-0.07,-0.22,1.97
2022-11-11 12:53:01.7760,2.45,0.55,-0.4,2.54
2022-11-11 12:53:01.7840,2.54,1.83,-0.95,3.27
2022-11-11 12:53:01.7940,2.31,3.39,-2.29,4.69
2022-11-11 12:53:01.8470,3.46,4.19,-1.63,5.67
2022-11-11 12:53:01.8480,5.3,3.91,0.18,6.58
2022-11-11 12:53:01.8490,6.14,2.85,1.04,6.84
2022-11-11 12:53:01.8510,5.75,1.39,0.47,5.93
2022-11-11 12:53:01.8530,5.11,0.49,-0.12,5.13
2022-11-11 12:53:01.8550,5.05,0.33,0.2,5.06
2022-11-11 12:53:01.8630,5.27,0.68,0.75,5.36
2022-11-11 12:53:01.8730,5.27,0.93,0.99,5.44
2022-11-11 12:53:01.8830,5.24,0.87,1.21,5.44
2022-11-11 12:53:01.8930,4.9,0.77,1.11,5.08
2022-11-11 12:53:01.9460,4.36,0.58,1.02,4.51
2022-11-11 12:53:01.9480,3.94,0.46,1.3,4.17
2022-11-11 12:53:01.9490,3.35,0.28,1.5,3.68
2022-11-11 12:53:01.9510,2.56,0.08,1.82,3.14
2022-11-11 12:53:01.9530,1.72,0.06,1.84,2.51
2022-11-11 12:53:01.9550,1.13,0.18,1.91,2.22
2022-11-11 12:53:01.9620,0.83,0.14,2.04,2.2
2022-11-11 12:53:01.9750,0.71,0.01,1.81,1.94
2022-11-11 12:53:01.9820,0.89,-0.1,1.5,1.74
2022-11-11 12:53:01.9920,1.29,-0.1,1.27,1.81
2022-11-11 12:53:02.0460,1.61,-0.07,1.04,1.91
2022-11-11 12:53:02.0470,1.7,-0.01,0.89,1.91
2022-11-11 12:53:02.0480,1.54,0.03,0.54,1.63
2022-11-11 12:53:02.0500,1.53,0.15,0.28,1.56
2022-11-11 12:53:02.0520,1.69,0.5,0.13,1.76
2022-11-11 12:53:02.0530,1.58,0.73,0.02,1.74
2022-11-11 12:53:02.0620,1.02,0.63,0.02,1.19
2022-11-11 12:53:02.0720,0.36,0.39,0.06,0.53
2022-11-11 12:53:02.0820,-0.08,0.21,0.12,0.25
2022-11-11 12:53:02.0920,-0.35,0.24,-0.2,0.46
2022-11-11 12:53:02.1460,-0.35,0.41,-0.57,0.78
2022-11-11 12:53:02.1470,-0.26,0.6,-0.86,1.08
2022-11-11 12:53:02.1480,-0.47,0.69,-1.2,1.46
2022-11-11 12:53:02.1500,-0.81,0.59,-1.36,1.68
2022-11-11 12:53:02.1520,-1.14,0.41,-1.28,1.76
2022-11-11 12:53:02.1540,-1.39,0.34,-1.21,1.87
2022-11-11 12:53:02.1610,-1.49,0.29,-1.07,1.85
2022-11-11 12:53:02.1710,-1.71,0.04,-1.0,1.98
2022-11-11 12:53:02.1810,-2.16,-0.33,-1.01,2.4
2022-11-11 12:53:02.1910,-2.43,-0.52,-0.89,2.63
2022-11-11 12:53:02.2460,-2.43,-0.55,-0.66,2.57
2022-11-11 12:53:02.2470,-2.44,-0.34,-0.55,2.52
2022-11-11 12:53:02.2480,-2.49,-0.06,-0.57,2.55
2022-11-11 12:53:02.2500,-2.48,0.02,-0.5,2.52
2022-11-11 12:53:02.2520,-2.57,-0.02,-0.53,2.62
2022-11-11 12:53:02.2540,-2.73,-0.07,-0.61,2.79
2022-11-11 12:53:02.2610,-2.9,-0.17,-0.52,2.95
2022-11-11 12:53:02.2750,-3.18,-0.31,-0.6,3.25
2022-11-11 12:53:02.2810,-3.42,-0.42,-0.65,3.5
2022-11-11 12:53:02.2910,-3.6,-0.38,-0.57,3.66
2022-11-11 12:53:02.3440,-3.67,-0.31,-0.42,3.7
2022-11-11 12:53:02.3460,-3.67,-0.29,-0.16,3.68
2022-11-11 12:53:02.3470,-3.64,-0.23,-0.1,3.64
2022-11-11 12:53:02.3490,-3.4,-0.19,0.02,3.4
2022-11-11 12:53:02.3500,-3.22,-0.17,0.07,3.22
2022-11-11 12:53:02.3520,-3.22,-0.22,0.11,3.22
2022-11-11 12:53:02.3600,-3.29,-0.36,0.16,3.31
2022-11-11 12:53:02.3700,-3.45,-0.49,0.03,3.48
2022-11-11 12:53:02.3800,-3.62,-0.5,-0.05,3.65
2022-11-11 12:53:02.3900,-3.64,-0.41,-0.03,3.66
2022-11-11 12:53:02.4440,-3.59,-0.23,0.02,3.59
2022-11-11 12:53:02.4450,-3.46,-0.01,0.06,3.46
2022-11-11 12:53:02.4460,-3.25,0.19,0.07,3.25
2022-11-11 12:53:02.4480,-3.16,0.25,-0.07,3.17
2022-11-11 12:53:02.4500,-3.14,-0.03,-0.36,3.16
2022-11-11 12:53:02.4520,-3.06,-0.44,-0.37,3.11
2022-11-11 12:53:02.4590,-3.03,-0.78,-0.42,3.15
2022-11-11 12:53:02.4690,-3.33,-0.93,-0.63,3.51
2022-11-11 12:53:02.4790,-3.26,-0.64,-0.64,3.38
2022-11-11 12:53:02.4890,-1.36,0.55,-0.13,1.47
2022-11-11 12:53:02.5440,1.86,2.46,1.74,3.54
2022-11-11 12:53:02.5450,4.18,5.55,3.66,7.85
2022-11-11 12:53:02.5460,3.46,7.46,2.29,8.53
2022-11-11 12:53:02.5480,0.3,5.01,-0.86,5.09
2022-11-11 12:53:02.5500,-1.23,0.88,-1.84,2.38
2022-11-11 12:53:02.5520,-1.26,-1.48,-1.07,2.21
2022-11-11 12:53:02.5590,-0.88,-1.77,-0.13,1.98
2022-11-11 12:53:02.5690,-0.74,-1.13,-0.32,1.38
2022-11-11 12:53:02.5790,-1.21,-0.31,-0.98,1.58
2022-11-11 12:53:02.5890,-1.98,0.75,-1.11,2.39
2022-11-11 12:53:02.6430,-2.64,1.64,-0.95,3.24
2022-11-11 12:53:02.6440,-3.08,1.74,-0.63,3.59
2022-11-11 12:53:02.6460,-3.19,1.07,-0.11,3.36
2022-11-11 12:53:02.6470,-2.91,0.24,0.28,2.93
2022-11-11 12:53:02.6490,-2.27,-0.22,0.17,2.28
2022-11-11 12:53:02.6510,-1.19,-0.1,-0.12,1.2
2022-11-11 12:53:02.6580,0.2,0.15,-0.4,0.47
2022-11-11 12:53:02.6680,1.21,0.18,-0.76,1.44
2022-11-11 12:53:02.6780,1.45,0.05,-1.01,1.76
2022-11-11 12:53:02.6880,0.92,0.06,-1.05,1.39
2022-11-11 12:53:02.7430,0.08,0.25,-0.67,0.71
2022-11-11 12:53:02.7440,-0.3,0.34,-0.05,0.45
2022-11-11 12:53:02.7450,-0.43,0.2,0.06,0.47
2022-11-11 12:53:02.7470,-0.51,-0.03,-0.04,0.51
2022-11-11 12:53:02.7490,-0.48,-0.21,-0.17,0.55
2022-11-11 12:53:02.7510,-0.58,-0.13,-0.3,0.66
2022-11-11 12:53:02.7580,-0.74,0.16,-0.18,0.77
2022-11-11 12:53:02.7670,-0.74,0.35,-0.1,0.82
2022-11-11 12:53:02.7780,-0.68,0.35,-0.06,0.76
2022-11-11 12:53:02.7880,-0.42,0.27,0.21,0.54
2022-11-11 12:53:02.8430,-0.11,0.26,0.26,0.38
2022-11-11 12:53:02.8440,0.16,0.26,0.02,0.3
2022-11-11 12:53:02.8450,0.26,0.17,-0.27,0.41
2022-11-11 12:53:02.8470,0.21,0.04,-0.37,0.42
2022-11-11 12:53:02.8490,0.08,-0.04,-0.38,0.39
2022-11-11 12:53:02.8510,-0.23,-0.08,-0.38,0.45
2022-11-11 12:53:02.8570,-0.51,-0.06,-0.2,0.55
2022-11-11 12:53:02.8670,-0.48,-0.01,-0.14,0.5
2022-11-11 12:53:02.8770,-0.14,-0.01,-0.13,0.19
2022-11-11 12:53:02.8870,0.27,-0.05,-0.13,0.3
2022-11-11 12:53:02.9410,0.38,-0.04,-0.35,0.51
2022-11-11 12:53:02.9420,0.34,0.02,-0.41,0.53
2022-11-11 12:53:02.9440,0.26,0.1,-0.44,0.52
2022-11-11 12:53:02.9450,0.22,0.09,-0.36,0.43
2022-11-11 12:53:02.9470,0.2,0.01,-0.13,0.23
2022-11-11 12:53:02.9490,0.07,-0.02,0.02,0.07
2022-11-11 12:53:02.9560,-0.06,0.05,0.06,0.09
2022-11-11 12:53:02.9660,0.0,0.15,0.07,0.16
2022-11-11 12:53:02.9760,0.22,0.15,-0.1,0.28
2022-11-11 12:53:02.9860,0.29,0.03,-0.36,0.46
2022-11-11 12:53:03.0410,0.29,-0.08,-0.38,0.48
2022-11-11 12:53:03.0430,0.19,-0.14,-0.21,0.31
2022-11-11 12:53:03.0440,0.01,-0.14,-0.01,0.14
2022-11-11 12:53:03.0460,0.02,-0.1,0.12,0.15
2022-11-11 12:53:03.0480,0.21,-0.05,0.18,0.28
2022-11-11 12:53:03.0490,0.41,-0.01,0.03,0.41
2022-11-11 12:53:03.0560,0.58,0.01,-0.31,0.65
2022-11-11 12:53:03.0660,0.7,0.04,-0.44,0.82
2022-11-11 12:53:03.0760,0.7,0.01,-0.39,0.8
2022-11-11 12:53:03.0860,0.58,-0.14,-0.3,0.66
2022-11-11 12:53:03.1420,0.27,-0.23,-0.4,0.53
2022-11-11 12:53:03.1440,-0.03,-0.2,-0.46,0.5
2022-11-11 12:53:03.1450,-0.1,-0.08,-0.32,0.34
2022-11-11 12:53:03.1470,-0.1,0.09,-0.21,0.24
2022-11-11 12:53:03.1480,-0.05,0.22,-0.07,0.23
2022-11-11 12:53:03.1500,-0.03,0.25,-0.13,0.28
2022-11-11 12:53:03.1550,-0.06,0.2,-0.26,0.33
2022-11-11 12:53:03.1650,-0.13,0.17,-0.31,0.37
2022-11-11 12:53:03.1750,-0.13,0.14,-0.31,0.36
2022-11-11 12:53:03.1850,0.08,0.19,-0.37,0.42
2022-11-11 12:53:03.2390,0.32,0.39,-0.62,0.79
2022-11-11 12:53:03.2410,0.49,0.66,-0.96,1.26
2022-11-11 12:53:03.2420,0.78,0.81,-1.11,1.58
2022-11-11 12:53:03.2430,1.29,0.69,-0.68,1.61
2022-11-11 12:53:03.2450,1.7,0.51,-0.26,1.79
2022-11-11 12:53:03.2470,1.83,0.4,-0.35,1.9
2022-11-11 12:53:03.2540,1.92,0.34,-0.38,1.98
2022-11-11 12:53:03.2650,2.03,0.43,-0.35,2.1
2022-11-11 12:53:03.2740,1.96,0.72,-0.51,2.14
2022-11-11 12:53:03.2850,1.68,1.28,-0.77,2.24
2022-11-11 12:53:03.3390,1.21,2.11,-1.11,2.67
2022-11-11 12:53:03.3400,0.74,2.83,-1.57,3.31
2022-11-11 12:53:03.3420,0.7,3.24,-1.35,3.57
2022-11-11 12:53:03.3440,1.16,3.18,-0.37,3.4
2022-11-11 12:53:03.3450,2.02,2.88,0.54,3.55
2022-11-11 12:53:03.3470,3.5,2.37,1.11,4.37
2022-11-11 12:53:03.3540,4.85,1.71,0.75,5.19
2022-11-11 12:53:03.3640,5.66,1.26,-0.19,5.8
2022-11-11 12:53:03.3740,6.19,1.05,-0.52,6.29
2022-11-11 12:53:03.3840,6.26,0.9,-0.14,6.32
2022-11-11 12:53:03.4390,5.96,0.66,0.52,6.01
2022-11-11 12:53:03.4400,5.47,0.37,1.12,5.59
2022-11-11 12:53:03.4410,4.79,0.15,1.63,5.06
2022-11-11 12:53:03.4430,4.1,0.01,2.47,4.78
2022-11-11 12:53:03.4450,3.59,0.01,3.04,4.7
2022-11-11 12:53:03.4460,3.34,-0.03,2.99,4.48
2022-11-11 12:53:03.4530,3.48,-0.16,2.77,4.45
2022-11-11 12:53:03.4630,3.92,-0.16,2.39,4.59
2022-11-11 12:53:03.4730,4.41,0.01,1.72,4.73
2022-11-11 12:53:03.4830,4.96,0.15,1.22,5.11
2022-11-11 12:53:03.5380,5.15,0.35,0.71,5.21
2022-11-11 12:53:03.5390,4.98,0.46,0.66,5.04
2022-11-11 12:53:03.5400,4.46,0.45,0.78,4.55
2022-11-11 12:53:03.5420,3.74,0.45,0.74,3.83
2022-11-11 12:53:03.5440,2.99,0.63,0.74,3.14
2022-11-11 12:53:03.5450,2.15,0.92,0.73,2.44
2022-11-11 12:53:03.5530,1.34,1.21,0.57,1.89
2022-11-11 12:53:03.5630,0.81,1.4,0.49,1.69
2022-11-11 12:53:03.5730,0.49,1.44,0.39,1.57
2022-11-11 12:53:03.5830,0.3,1.31,0.12,1.34
2022-11-11 12:53:03.6380,0.21,1.13,-0.2,1.16
2022-11-11 12:53:03.6390,0.14,0.97,-0.48,1.09
2022-11-11 12:53:03.6410,0.08,0.76,-0.61,0.97
2022-11-11 12:53:03.6430,-0.13,0.63,-0.89,1.09
2022-11-11 12:53:03.6440,-0.5,0.58,-1.06,1.3
2022-11-11 12:53:03.6460,-0.81,0.58,-0.95,1.37
2022-11-11 12:53:03.6520,-1.08,0.51,-0.86,1.47
2022-11-11 12:53:03.6620,-1.46,0.43,-1.01,1.82
2022-11-11 12:53:03.6720,-1.8,0.44,-1.09,2.14
2022-11-11 12:53:03.6820,-1.92,0.37,-1.03,2.21
2022-11-11 12:53:03.7370,-1.74,0.24,-0.92,1.98
2022-11-11 12:53:03.7380,-1.6,-0.02,-0.91,1.84
2022-11-11 12:53:03.7400,-1.72,-0.36,-0.95,1.99
2022-11-11 12:53:03.7420,-2.05,-0.55,-1.0,2.34
2022-11-11 12:53:03.7440,-2.44,-0.32,-0.99,2.65
2022-11-11 12:53:03.7460,-2.71,0.11,-0.84,2.83
2022-11-11 12:53:03.7510,-2.84,0.36,-0.68,2.94
2022-11-11 12:53:03.7620,-2.92,0.16,-0.66,2.99
2022-11-11 12:53:03.7710,-3.0,-0.24,-0.61,3.07
2022-11-11 12:53:03.7810,-2.97,-0.73,-0.7,3.13
2022-11-11 12:53:03.8370,-2.84,-0.99,-0.97,3.16
2022-11-11 12:53:03.8380,-2.65,-0.83,-1.05,2.96
2022-11-11 12:53:03.8400,-2.49,-0.32,-1.03,2.71
2022-11-11 12:53:03.8570,-2.6,0.11,-1.04,2.8
2022-11-11 12:53:03.8580,-3.02,0.1,-0.98,3.17
2022-11-11 12:53:03.8610,-3.47,-0.31,-0.82,3.57
2022-11-11 12:53:03.8620,-3.82,-0.81,-0.67,3.96
2022-11-11 12:53:03.8640,-3.97,-1.1,-0.59,4.16
2022-11-11 12:53:03.8710,-3.98,-1.04,-0.6,4.15
2022-11-11 12:53:03.8810,-4.08,-0.65,-0.73,4.19
2022-11-11 12:53:03.9350,-4.44,-0.27,-0.82,4.52
2022-11-11 12:53:03.9370,-4.93,-0.14,-0.8,4.99
2022-11-11 12:53:03.9380,-5.3,-0.4,-0.57,5.34
2022-11-11 12:53:03.9400,-5.47,-0.68,-0.37,5.52
2022-11-11 12:53:03.9420,-5.39,-0.87,-0.27,5.46
2022-11-11 12:53:03.9430,-5.39,-0.98,-0.26,5.48
2022-11-11 12:53:03.9500,-5.1,-0.99,-0.14,5.19
2022-11-11 12:53:03.9600,-4.34,-1.1,0.1,4.47
2022-11-11 12:53:03.9700,-3.79,-1.19,0.38,3.99
2022-11-11 12:53:03.9800,-3.53,-0.89,0.63,3.69
2022-11-11 12:53:04.0360,-2.01,0.92,0.92,2.39
2022-11-11 12:53:04.0380,2.49,4.82,4.42,6.99
2022-11-11 12:53:04.0390,7.33,11.7,7.46,15.69
2022-11-11 12:53:04.0410,4.72,13.89,0.74,14.68
2022-11-11 12:53:04.0430,-1.19,5.66,-3.02,6.52
2022-11-11 12:53:04.0450,-3.26,-0.94,-3.04,4.55
2022-11-11 12:53:04.0490,-3.96,-3.57,-2.83,6.03
2022-11-11 12:53:04.0600,-4.02,-3.94,-1.95,5.95
2022-11-11 12:53:04.0690,-3.76,-2.57,-1.66,4.84
2022-11-11 12:53:04.0800,-4.0,-0.32,-1.71,4.36
2022-11-11 12:53:04.1350,-4.62,2.2,-1.66,5.37
2022-11-11 12:53:04.1360,-5.06,3.92,-1.31,6.53
2022-11-11 12:53:04.1380,-4.54,3.21,-0.33,5.56
2022-11-11 12:53:04.1390,-2.95,1.08,0.96,3.28
2022-11-11 12:53:04.1410,-1.28,-0.27,1.25,1.8
2022-11-11 12:53:04.1430,0.12,-0.69,0.4,0.8
2022-11-11 12:53:04.1490,1.23,-0.6,-0.53,1.46
2022-11-11 12:53:04.1590,2.03,-0.34,-1.36,2.46
2022-11-11 12:53:04.1690,2.44,-0.14,-1.86,3.07
2022-11-11 12:53:04.1790,2.2,-0.13,-1.5,2.66
2022-11-11 12:53:04.2340,1.18,-0.1,-0.85,1.45
2022-11-11 12:53:04.2360,-0.06,0.01,-0.31,0.31
2022-11-11 12:53:04.2370,-0.94,0.02,0.3,0.98
2022-11-11 12:53:04.2390,-1.25,-0.02,0.46,1.33
2022-11-11 12:53:04.2410,-0.88,-0.19,0.14,0.91
2022-11-11 12:53:04.2430,-0.15,-0.32,-0.23,0.42
2022-11-11 12:53:04.2480,0.21,-0.23,-0.62,0.69
2022-11-11 12:53:04.2590,0.18,-0.01,-0.66,0.68
2022-11-11 12:53:04.2680,-0.1,0.17,-0.42,0.46
2022-11-11 12:53:04.2790,-0.48,0.29,-0.14,0.57
2022-11-11 12:53:04.3340,-0.65,0.25,0.28,0.75
2022-11-11 12:53:04.3360,-0.7,0.18,0.47,0.86
2022-11-11 12:53:04.3370,-0.73,0.21,0.31,0.82
2022-11-11 12:53:04.3390,-0.6,0.29,-0.06,0.66
2022-11-11 12:53:04.3410,-0.45,0.25,-0.29,0.59
2022-11-11 12:53:04.3420,-0.61,0.22,-0.35,0.73
2022-11-11 12:53:04.3480,-0.84,0.17,-0.29,0.9
2022-11-11 12:53:04.3580,-0.84,0.19,0.07,0.86
2022-11-11 12:53:04.3680,-0.64,0.27,0.32,0.76
2022-11-11 12:53:04.3780,-0.43,0.39,0.13,0.59
2022-11-11 12:53:04.4330,-0.06,0.4,0.0,0.4
2022-11-11 12:53:04.4350,0.3,0.32,-0.04,0.44
2022-11-11 12:53:04.4360,0.26,0.23,-0.2,0.4
2022-11-11 12:53:04.4380,0.14,0.14,-0.23,0.3
2022-11-11 12:53:04.4400,0.29,-0.01,-0.17,0.33
2022-11-11 12:53:04.4420,0.6,-0.17,-0.24,0.66
2022-11-11 12:53:04.4470,0.92,-0.35,-0.51,1.1
2022-11-11 12:53:04.4570,1.18,-0.47,-0.76,1.48
2022-11-11 12:53:04.4670,1.39,-0.51,-0.67,1.62
2022-11-11 12:53:04.4770,1.33,-0.4,-0.67,1.54
2022-11-11 12:53:04.5340,0.92,-0.24,-0.56,1.1
2022-11-11 12:53:04.5350,0.37,-0.12,-0.2,0.43
2022-11-11 12:53:04.5370,-0.07,-0.01,0.01,0.07
2022-11-11 12:53:04.5380,-0.26,0.1,0.08,0.28
2022-11-11 12:53:04.5400,-0.25,0.2,0.0,0.32
2022-11-11 12:53:04.5410,-0.23,0.21,-0.1,0.32
2022-11-11 12:53:04.5470,-0.16,0.13,-0.09,0.22
2022-11-11 12:53:04.5570,0.12,-0.07,0.04,0.14
2022-11-11 12:53:04.5660,0.11,-0.17,0.19,0.27
2022-11-11 12:53:04.5770,-0.34,-0.11,-0.04,0.35
2022-11-11 12:53:04.6330,-0.53,0.05,-0.27,0.59
2022-11-11 12:53:04.6350,-0.3,0.21,-0.21,0.42
2022-11-11 12:53:04.6360,0.06,0.36,-0.2,0.41
2022-11-11 12:53:04.6380,0.26,0.36,-0.34,0.55
2022-11-11 12:53:04.6390,0.19,0.16,-0.51,0.56
2022-11-11 12:53:04.6410,0.14,-0.05,-0.49,0.51
2022-11-11 12:53:04.6460,0.26,-0.09,-0.28,0.39
2022-11-11 12:53:04.6560,0.5,-0.03,0.06,0.5
2022-11-11 12:53:04.6660,0.83,0.02,0.36,0.9
2022-11-11 12:53:04.6760,1.26,0.25,0.1,1.28
2022-11-11 12:53:04.7320,1.94,0.72,-0.85,2.23
2022-11-11 12:53:04.7340,2.79,1.04,-1.32,3.25
2022-11-11 12:53:04.7350,3.34,1.06,-0.9,3.61
2022-11-11 12:53:04.7370,3.21,0.88,-0.42,3.35
2022-11-11 12:53:04.7390,2.56,0.8,-0.21,2.69
2022-11-11 12:53:04.7400,1.92,1.07,-0.23,2.21
2022-11-11 12:53:04.7450,1.73,1.84,-0.34,2.54
2022-11-11 12:53:04.7550,2.16,3.11,-0.48,3.81
2022-11-11 12:53:04.7650,2.94,4.67,-0.5,5.54
2022-11-11 12:53:04.7760,2.97,5.77,-1.17,6.59
2022-11-11 12:53:04.8330,2.44,5.44,-1.51,6.15
2022-11-11 12:53:04.8340,2.75,4.34,-0.71,5.18
2022-11-11 12:53:04.8360,5.08,3.67,1.61,6.47
2022-11-11 12:53:04.8370,7.94,3.04,2.88,8.97
2022-11-11 12:53:04.8390,9.26,2.02,1.54,9.6
2022-11-11 12:53:04.8410,9.56,0.7,0.72,9.61
2022-11-11 12:53:04.8450,9.73,-0.83,1.23,9.84
2022-11-11 12:53:04.8550,9.4,-1.52,1.68,9.66
2022-11-11 12:53:04.8650,8.1,-1.3,1.94,8.42
2022-11-11 12:53:04.8750,6.13,-0.56,2.09,6.5
2022-11-11 12:53:04.9330,4.34,0.23,2.23,4.88
2022-11-11 12:53:04.9340,2.67,0.91,2.3,3.63
2022-11-11 12:53:04.9360,1.29,1.36,2.25,2.92
2022-11-11 12:53:04.9370,0.42,1.58,2.16,2.7
2022-11-11 12:53:04.9390,0.03,1.53,2.04,2.55
2022-11-11 12:53:04.9410,0.09,1.25,1.85,2.23
2022-11-11 12:53:04.9440,0.44,1.04,1.53,1.9
2022-11-11 12:53:04.9540,0.73,1.01,1.18,1.71
2022-11-11 12:53:04.9640,0.7,1.03,0.7,1.42
2022-11-11 12:53:04.9740,0.61,1.09,0.44,1.32
2022-11-11 12:53:05.0320,0.86,1.14,0.55,1.53
2022-11-11 12:53:05.0340,1.11,1.19,0.53,1.71
2022-11-11 12:53:05.0350,1.03,1.22,0.2,1.6
2022-11-11 12:53:05.0370,0.9,1.1,0.07,1.42
2022-11-11 12:53:05.0390,0.8,0.84,0.01,1.16
2022-11-11 12:53:05.0410,0.77,0.58,-0.21,0.98
2022-11-11 12:53:05.0430,0.64,0.44,-0.51,0.92
2022-11-11 12:53:05.0540,0.25,0.41,-0.88,1.0
2022-11-11 12:53:05.0640,-0.3,0.35,-1.12,1.21
2022-11-11 12:53:05.0740,-0.93,0.22,-1.19,1.52
2022-11-11 12:53:05.1320,-1.5,0.13,-1.16,1.9
2022-11-11 12:53:05.1330,-1.8,0.07,-0.98,2.05
2022-11-11 12:53:05.1350,-2.18,0.04,-1.0,2.39
2022-11-11 12:53:05.1360,-2.77,-0.01,-1.21,3.02
2022-11-11 12:53:05.1380,-3.11,-0.21,-1.16,3.32
2022-11-11 12:53:05.1400,-3.27,-0.55,-1.21,3.52
2022-11-11 12:53:05.1430,-3.4,-0.71,-1.61,3.82
2022-11-11 12:53:05.1530,-3.33,-0.65,-1.62,3.75
2022-11-11 12:53:05.1630,-3.22,-0.47,-1.26,3.48
2022-11-11 12:53:05.1730,-3.27,-0.33,-0.97,3.42
2022-11-11 12:53:05.2320,-3.54,-0.36,-0.77,3.64
2022-11-11 12:53:05.2330,-3.96,-0.55,-0.6,4.04
2022-11-11 12:53:05.2340,-3.96,-0.71,-0.43,4.04
2022-11-11 12:53:05.2360,-3.48,-0.76,-0.34,3.57
2022-11-11 12:53:05.2370,-3.01,-0.76,-0.6,3.16
2022-11-11 12:53:05.2390,-2.66,-0.68,-0.86,2.87
2022-11-11 12:53:05.2420,-2.42,-0.41,-1.12,2.69
2022-11-11 12:53:05.2520,-2.09,-0.25,-1.32,2.48
2022-11-11 12:53:05.2620,-2.06,-0.25,-1.51,2.56
2022-11-11 12:53:05.2720,-2.46,-0.34,-1.46,2.88
2022-11-11 12:53:05.3310,-3.19,-0.56,-1.36,3.51
2022-11-11 12:53:05.3320,-4.4,-0.74,-1.31,4.65
2022-11-11 12:53:05.3330,-5.15,-0.43,-1.0,5.26
2022-11-11 12:53:05.3350,-4.78,0.18,-0.28,4.79
2022-11-11 12:53:05.3370,-4.34,0.51,0.09,4.37
2022-11-11 12:53:05.3390,-4.25,0.4,-0.15,4.27
2022-11-11 12:53:05.3420,-3.96,-0.07,-0.58,4.0
2022-11-11 12:53:05.3520,-3.69,-0.45,-0.64,3.77
2022-11-11 12:53:05.3620,-3.59,-0.53,-0.52,3.66
2022-11-11 12:53:05.3720,-3.38,-0.64,-0.61,3.49
2022-11-11 12:53:05.4300,-3.38,-0.9,-0.47,3.52
2022-11-11 12:53:05.4310,-3.66,-1.12,-0.15,3.83
2022-11-11 12:53:05.4330,-3.64,-0.99,0.72,3.84
2022-11-11 12:53:05.4340,-3.53,-0.69,2.02,4.12
2022-11-11 12:53:05.4360,-3.65,0.25,2.08,4.2
2022-11-11 12:53:05.4380,-1.2,2.37,2.72,3.8
2022-11-11 12:53:05.4410,3.7,5.87,5.61,8.92
2022-11-11 12:53:05.4510,5.93,10.43,4.63,12.86
2022-11-11 12:53:05.4610,1.62,8.52,-1.3,8.76
2022-11-11 12:53:05.4710,-2.12,2.0,-3.39,4.47
2022-11-11 12:53:05.5290,-2.7,-1.96,-3.57,4.88
2022-11-11 12:53:05.5300,-2.35,-3.24,-2.24,4.58
2022-11-11 12:53:05.5320,-1.89,-2.62,-0.64,3.29
2022-11-11 12:53:05.5330,-2.27,-0.98,-0.61,2.54
2022-11-11 12:53:05.5530,-3.16,0.92,-0.81,3.38
2022-11-11 12:53:05.5540,-3.95,2.43,-0.91,4.72
2022-11-11 12:53:05.5560,-4.2,2.56,-0.61,4.95
2022-11-11 12:53:05.5580,-3.45,1.18,-0.04,3.64
2022-11-11 12:53:05.5600,-2.19,0.05,0.55,2.25
2022-11-11 12:53:05.5710,-0.68,-0.25,0.8,1.07
2022-11-11 12:53:05.6280,0.52,-0.19,-0.14,0.57
2022-11-11 12:53:05.6300,1.24,-0.17,-1.55,1.99
2022-11-11 12:53:05.6310,1.69,-0.19,-2.24,2.81
2022-11-11 12:53:05.6320,1.66,-0.11,-1.98,2.58
2022-11-11 12:53:05.6530,0.89,0.26,-1.0,1.36
2022-11-11 12:53:05.6550,-0.28,0.62,-0.22,0.71
2022-11-11 12:53:05.6570,-1.36,0.66,0.26,1.53
2022-11-11 12:53:05.6590,-2.0,0.44,0.73,2.17
2022-11-11 12:53:05.6610,-1.77,0.09,0.69,1.9
2022-11-11 12:53:05.6700,-0.85,-0.14,0.16,0.87
2022-11-11 12:53:05.7270,0.15,-0.15,-0.51,0.55
2022-11-11 12:53:05.7280,0.85,-0.06,-1.03,1.33
2022-11-11 12:53:05.7300,1.02,-0.02,-1.24,1.6
2022-11-11 12:53:05.7320,0.8,-0.04,-0.91,1.21
2022-11-11 12:53:05.7330,0.17,-0.13,-0.42,0.47
2022-11-11 12:53:05.7530,-0.66,-0.17,0.04,0.68
2022-11-11 12:53:05.7540,-1.16,-0.02,0.52,1.27
2022-11-11 12:53:05.7560,-1.21,0.32,0.74,1.45
2022-11-11 12:53:05.7590,-1.09,0.59,0.43,1.31
2022-11-11 12:53:05.7690,-0.82,0.58,0.11,1.01
2022-11-11 12:53:05.8270,-0.46,0.36,0.0,0.58
2022-11-11 12:53:05.8290,0.04,0.11,0.15,0.19
2022-11-11 12:53:05.8300,0.5,-0.14,-0.03,0.52
2022-11-11 12:53:05.8320,0.44,-0.21,-0.58,0.75
2022-11-11 12:53:05.8330,0.23,-0.23,-0.69,0.76
2022-11-11 12:53:05.8530,-0.02,-0.1,-0.36,0.37
2022-11-11 12:53:05.8540,-0.38,0.17,-0.2,0.46
2022-11-11 12:53:05.8560,-0.6,0.33,0.15,0.7
2022-11-11 12:53:05.8580,-0.61,0.3,0.43,0.8
2022-11-11 12:53:05.8680,-0.54,0.23,0.23,0.63
2022-11-11 12:53:05.9260,-0.18,0.13,-0.09,0.23
2022-11-11 12:53:05.9280,0.39,-0.02,-0.41,0.56
2022-11-11 12:53:05.9290,0.83,-0.18,-0.72,1.11
2022-11-11 12:53:05.9310,0.89,-0.32,-0.7,1.17
2022-11-11 12:53:05.9320,0.45,-0.28,-0.51,0.73
2022-11-11 12:53:05.9340,-0.19,-0.09,-0.17,0.27
2022-11-11 12:53:05.9380,-0.61,0.16,0.18,0.65
2022-11-11 12:53:05.9480,-0.58,0.37,0.35,0.77
2022-11-11 12:53:05.9580,-0.04,0.38,0.3,0.48
2022-11-11 12:53:05.9680,0.57,0.21,0.0,0.6
2022-11-11 12:53:06.0260,0.67,0.05,-0.49,0.83
2022-11-11 12:53:06.0280,0.35,-0.04,-0.83,0.9
2022-11-11 12:53:06.0290,0.02,-0.1,-0.53,0.53
2022-11-11 12:53:06.0310,-0.12,-0.14,0.17,0.25
2022-11-11 12:53:06.0320,-0.3,-0.04,0.39,0.49
2022-11-11 12:53:06.0520,-0.55,0.13,0.03,0.56
2022-11-11 12:53:06.0530,-0.4,0.27,-0.19,0.51
2022-11-11 12:53:06.0550,-0.07,0.36,-0.21,0.42
2022-11-11 12:53:06.0570,0.08,0.36,-0.34,0.5
2022-11-11 12:53:06.0670,0.15,0.23,-0.59,0.65
2022-11-11 12:53:06.1240,0.28,0.06,-0.6,0.66
2022-11-11 12:53:06.1260,0.49,0.02,-0.28,0.56
2022-11-11 12:53:06.1270,0.76,0.03,0.06,0.76
2022-11-11 12:53:06.1290,1.08,0.01,0.13,1.08
2022-11-11 12:53:06.1310,1.54,0.06,0.12,1.54
2022-11-11 12:53:06.1320,2.14,0.22,-0.12,2.15
2022-11-11 12:53:06.1520,2.49,0.6,-1.12,2.79
2022-11-11 12:53:06.1530,2.68,0.98,-1.58,3.26
2022-11-11 12:53:06.1570,2.69,1.1,-0.95,3.05
2022-11-11 12:53:06.1670,2.24,0.92,-0.44,2.46
2022-11-11 12:53:06.2240,1.79,0.67,0.0,1.91
2022-11-11 12:53:06.2250,1.6,0.81,0.28,1.81
2022-11-11 12:53:06.2260,1.38,1.48,0.09,2.02
2022-11-11 12:53:06.2280,0.97,2.41,-0.31,2.61
2022-11-11 12:53:06.2310,1.63,3.34,0.29,3.72
2022-11-11 12:53:06.2320,3.65,3.31,1.55,5.16
2022-11-11 12:53:06.2360,5.08,2.15,1.79,5.79
2022-11-11 12:53:06.2460,5.78,0.84,1.39,6.0
2022-11-11 12:53:06.2560,6.08,-0.17,0.96,6.15
2022-11-11 12:53:06.2660,5.93,-0.74,0.76,6.02
2022-11-11 12:53:06.3250,5.55,-0.86,0.96,5.69
2022-11-11 12:53:06.3260,4.92,-0.55,1.18,5.08
2022-11-11 12:53:06.3280,4.13,0.01,1.34,4.34
2022-11-11 12:53:06.3300,3.32,0.4,1.63,3.72
2022-11-11 12:53:06.3310,2.33,0.52,1.52,2.83
2022-11-11 12:53:06.3320,1.45,0.5,1.26,1.98
2022-11-11 12:53:06.3360,0.98,0.57,1.18,1.63
2022-11-11 12:53:06.3460,1.08,0.64,1.23,1.75
2022-11-11 12:53:06.3560,1.4,0.52,1.16,1.89
2022-11-11 12:53:06.3660,1.57,0.35,0.83,1.81
2022-11-11 12:53:06.4240,1.67,0.22,0.63,1.79
2022-11-11 12:53:06.4260,1.58,0.24,0.36,1.63
2022-11-11 12:53:06.4270,1.43,0.44,0.09,1.49
2022-11-11 12:53:06.4280,1.49,0.64,0.13,1.62
2022-11-11 12:53:06.4300,1.44,0.77,0.14,1.63
2022-11-11 12:53:06.4310,1.17,0.63,0.05,1.32
2022-11-11 12:53:06.4510,0.99,0.36,-0.03,1.05
2022-11-11 12:53:06.4530,0.85,0.15,-0.16,0.87
2022-11-11 12:53:06.4550,0.77,0.1,-0.34,0.84
2022-11-11 12:53:06.4650,0.52,0.14,-0.55,0.76
2022-11-11 12:53:06.5230,0.03,0.27,-0.62,0.67
2022-11-11 12:53:06.5250,-0.4,0.45,-0.44,0.74
2022-11-11 12:53:06.5260,-0.81,0.58,-0.24,1.02
2022-11-11 12:53:06.5280,-1.27,0.57,-0.21,1.4
2022-11-11 12:53:06.5300,-1.65,0.46,-0.29,1.73
2022-11-11 12:53:06.5310,-1.67,0.34,-0.27,1.72
2022-11-11 12:53:06.5350,-1.53,0.19,-0.25,1.56
2022-11-11 12:53:06.5440,-1.5,-0.04,-0.37,1.54
2022-11-11 12:53:06.5550,-1.59,-0.29,-0.54,1.7
2022-11-11 12:53:06.5640,-1.64,-0.45,-0.59,1.8
2022-11-11 12:53:06.6240,-1.57,-0.44,-0.49,1.7
2022-11-11 12:53:06.6250,-1.57,-0.4,-0.42,1.67
2022-11-11 12:53:06.6270,-1.74,-0.36,-0.47,1.83
2022-11-11 12:53:06.6280,-1.96,-0.36,-0.46,2.04
2022-11-11 12:53:06.6300,-2.16,-0.38,-0.39,2.22
2022-11-11 12:53:06.6310,-2.3,-0.38,-0.33,2.35
2022-11-11 12:53:06.6500,-2.34,-0.37,-0.34,2.39
2022-11-11 12:53:06.6510,-2.3,-0.41,-0.39,2.36
2022-11-11 12:53:06.6540,-2.46,-0.53,-0.5,2.56
2022-11-11 12:53:06.6640,-2.87,-0.63,-0.68,3.01
2022-11-11 12:53:06.7230,-3.1,-0.62,-0.65,3.22
2022-11-11 12:53:06.7240,-3.15,-0.5,-0.53,3.23
2022-11-11 12:53:06.7260,-3.31,-0.42,-0.61,3.39
2022-11-11 12:53:06.7270,-3.6,-0.56,-0.81,3.73
2022-11-11 12:53:06.7300,-3.93,-0.8,-0.89,4.1
2022-11-11 12:53:06.7310,-4.12,-0.99,-0.95,4.34
2022-11-11 12:53:06.7330,-4.09,-1.06,-1.07,4.35
2022-11-11 12:53:06.7430,-4.03,-1.0,-1.18,4.31
2022-11-11 12:53:06.7530,-4.14,-0.83,-1.38,4.44
2022-11-11 12:53:06.7630,-4.25,-0.71,-1.47,4.55
2022-11-11 12:53:06.8230,-4.19,-0.66,-1.34,4.44
2022-11-11 12:53:06.8240,-3.78,-0.65,-1.02,3.96
2022-11-11 12:53:06.8250,-3.17,-0.74,-0.58,3.3
2022-11-11 12:53:06.8270,-2.9,-0.97,-0.6,3.11
2022-11-11 12:53:06.8290,-3.1,-1.06,-0.87,3.38
2022-11-11 12:53:06.8310,-2.22,-0.17,-0.27,2.24
2022-11-11 12:53:06.8330,1.1,1.92,1.92,2.92
2022-11-11 12:53:06.8430,4.88,5.26,5.21,8.86
2022-11-11 12:53:06.8530,5.77,9.35,3.79,11.62
2022-11-11 12:53:06.8620,1.83,7.39,-1.13,7.69
2022-11-11 12:53:06.9230,-1.0,1.36,-2.19,2.76
2022-11-11 12:53:06.9240,-1.65,-2.38,-1.64,3.32
2022-11-11 12:53:06.9250,-1.58,-3.28,-0.77,3.72
2022-11-11 12:53:06.9270,-1.34,-2.42,-0.77,2.87
2022-11-11 12:53:06.9290,-1.28,-0.85,-1.57,2.19
2022-11-11 12:53:06.9300,-1.7,0.92,-2.0,2.78
2022-11-11 12:53:06.9320,-2.3,2.52,-1.58,3.75
2022-11-11 12:53:06.9420,-2.8,2.93,-0.41,4.07
2022-11-11 12:53:06.9520,-3.17,1.95,0.31,3.73
2022-11-11 12:53:06.9620,-3.39,0.69,0.33,3.47
2022-11-11 12:53:07.0220,-3.14,-0.47,0.26,3.18
2022-11-11 12:53:07.0240,-2.26,-1.06,0.24,2.5
2022-11-11 12:53:07.0250,-0.85,-0.72,-0.18,1.12
2022-11-11 12:53:07.0270,0.65,-0.02,-0.95,1.15
2022-11-11 12:53:07.0290,1.88,0.45,-1.47,2.42
2022-11-11 12:53:07.0300,2.24,0.58,-1.59,2.8
2022-11-11 12:53:07.0320,1.48,0.59,-1.25,2.02
2022-11-11 12:53:07.0420,0.25,0.48,-0.68,0.86
2022-11-11 12:53:07.0520,-0.83,0.33,-0.08,0.89
2022-11-11 12:53:07.0610,-1.57,0.21,0.35,1.62
2022-11-11 12:53:07.1210,-1.78,0.11,0.43,1.83
2022-11-11 12:53:07.1230,-1.42,0.02,0.26,1.44
2022-11-11 12:53:07.1240,-0.71,0.01,-0.01,0.71
2022-11-11 12:53:07.1260,-0.02,0.04,-0.39,0.39
2022-11-11 12:53:07.1280,0.37,-0.02,-0.63,0.73
2022-11-11 12:53:07.1300,0.35,-0.1,-0.5,0.61
2022-11-11 12:53:07.1310,0.07,-0.08,-0.15,0.18
2022-11-11 12:53:07.1500,-0.15,0.04,0.11,0.19
2022-11-11 12:53:07.1510,-0.26,0.2,-0.02,0.32
2022-11-11 12:53:07.1610,-0.09,0.28,-0.31,0.42
2022-11-11 12:53:07.2210,0.3,0.18,-0.48,0.59
2022-11-11 12:53:07.2220,0.45,0.01,-0.55,0.71
2022-11-11 12:53:07.2240,0.18,-0.11,-0.34,0.4
2022-11-11 12:53:07.2260,-0.3,-0.08,-0.06,0.31
2022-11-11 12:53:07.2270,-0.68,0.12,-0.03,0.69
2022-11-11 12:53:07.2290,-0.75,0.26,-0.04,0.79
2022-11-11 12:53:07.2300,-0.5,0.28,-0.06,0.57
2022-11-11 12:53:07.2500,-0.21,0.24,-0.13,0.34
2022-11-11 12:53:07.2520,0.03,0.11,-0.18,0.21
2022-11-11 12:53:07.2600,0.21,-0.05,-0.4,0.45
2022-11-11 12:53:07.3210,0.35,-0.1,-0.32,0.48
2022-11-11 12:53:07.3220,0.42,-0.06,-0.03,0.42
2022-11-11 12:53:07.3240,0.28,0.05,-0.18,0.33
2022-11-11 12:53:07.3260,0.09,0.11,-0.37,0.39
2022-11-11 12:53:07.3270,0.0,0.09,-0.43,0.43
2022-11-11 12:53:07.3290,-0.02,0.07,-0.52,0.52
2022-11-11 12:53:07.3310,0.11,0.04,-0.49,0.5
2022-11-11 12:53:07.3500,0.3,0.01,-0.42,0.51
2022-11-11 12:53:07.3510,0.34,0.0,-0.4,0.52
2022-11-11 12:53:07.3600,0.34,-0.06,-0.19,0.39
2022-11-11 12:53:07.4200,0.32,-0.18,-0.2,0.41
2022-11-11 12:53:07.4220,0.03,-0.2,-0.45,0.49
2022-11-11 12:53:07.4230,-0.19,-0.2,-0.27,0.38
2022-11-11 12:53:07.4250,-0.3,-0.08,-0.06,0.31
2022-11-11 12:53:07.4270,-0.36,0.17,-0.09,0.4
2022-11-11 12:53:07.4290,-0.35,0.35,-0.11,0.5
2022-11-11 12:53:07.4300,-0.33,0.41,-0.14,0.54
2022-11-11 12:53:07.4500,-0.33,0.37,-0.07,0.5
2022-11-11 12:53:07.4510,-0.14,0.16,0.2,0.29
2022-11-11 12:53:07.4590,0.18,-0.12,0.3,0.36
2022-11-11 12:53:07.5190,0.4,-0.28,-0.31,0.57
2022-11-11 12:53:07.5210,0.64,-0.3,-0.83,1.09
2022-11-11 12:53:07.5220,1.0,-0.25,-0.83,1.32
2022-11-11 12:53:07.5240,1.03,-0.09,-0.66,1.22
2022-11-11 12:53:07.5260,0.45,0.08,-0.59,0.74
2022-11-11 12:53:07.5270,-0.27,0.18,-0.47,0.57
2022-11-11 12:53:07.5290,-0.85,0.22,-0.16,0.89
2022-11-11 12:53:07.5390,-0.99,0.33,0.21,1.06
2022-11-11 12:53:07.5480,-0.49,0.39,0.44,0.76
2022-11-11 12:53:07.5580,0.23,0.47,-0.06,0.52
2022-11-11 12:53:07.6190,0.83,0.56,-0.83,1.3
2022-11-11 12:53:07.6210,1.51,0.58,-1.18,2.0
2022-11-11 12:53:07.6220,2.08,0.52,-1.08,2.4
2022-11-11 12:53:07.6330,2.36,0.47,-0.8,2.53
2022-11-11 12:53:07.6340,2.42,0.3,-0.36,2.46
2022-11-11 12:53:07.6360,2.35,0.09,-0.25,2.36
2022-11-11 12:53:07.6380,2.43,0.07,-0.32,2.45
2022-11-11 12:53:07.6390,2.57,0.4,-0.53,2.65
2022-11-11 12:53:07.6480,2.51,1.03,-0.82,2.83
2022-11-11 12:53:07.6580,2.14,1.96,-0.93,3.04
2022-11-11 12:53:07.7180,2.63,3.05,-0.54,4.06
2022-11-11 12:53:07.7200,4.79,3.3,0.24,5.82
2022-11-11 12:53:07.7210,6.34,2.6,-0.59,6.87
2022-11-11 12:53:07.7330,6.69,1.17,-1.54,6.96
2022-11-11 12:53:07.7340,6.31,-0.15,-1.63,6.51
2022-11-11 12:53:07.7360,5.51,-0.71,-0.82,5.61
2022-11-11 12:53:07.7380,4.44,-0.41,0.19,4.46
2022-11-11 12:53:07.7400,3.38,0.18,0.75,3.46
2022-11-11 12:53:07.7470,2.69,0.57,1.29,3.03
2022-11-11 12:53:07.7570,2.25,0.69,1.43,2.75
2022-11-11 12:53:07.8180,2.2,0.42,1.27,2.57
2022-11-11 12:53:07.8190,2.52,-0.06,0.81,2.64
2022-11-11 12:53:07.8200,2.85,-0.29,0.28,2.87
2022-11-11 12:53:07.8220,2.93,-0.07,-0.07,2.93
2022-11-11 12:53:07.8240,2.66,0.41,-0.24,2.7
2022-11-11 12:53:07.8260,2.18,0.75,-0.16,2.31
2022-11-11 12:53:07.8280,1.64,0.8,-0.07,1.82
2022-11-11 12:53:07.8370,1.33,0.65,-0.02,1.48
2022-11-11 12:53:07.8490,1.45,0.56,0.1,1.55
2022-11-11 12:53:07.8570,1.71,0.57,0.16,1.8
2022-11-11 12:53:07.9180,1.67,0.56,-0.06,1.76
2022-11-11 12:53:07.9200,1.34,0.58,-0.47,1.53
2022-11-11 12:53:07.9210,1.13,0.66,-0.7,1.48
2022-11-11 12:53:07.9330,1.05,0.7,-0.72,1.45
2022-11-11 12:53:07.9340,0.89,0.63,-0.87,1.39
2022-11-11 12:53:07.9360,0.6,0.43,-1.09,1.31
2022-11-11 12:53:07.9380,0.28,0.36,-1.14,1.22
2022-11-11 12:53:07.9400,-0.04,0.49,-1.1,1.2
2022-11-11 12:53:07.9460,-0.37,0.57,-1.04,1.24
2022-11-11 12:53:07.9560,-0.76,0.53,-1.06,1.4
2022-11-11 12:53:08.0170,-1.08,0.42,-1.07,1.57
2022-11-11 12:53:08.0190,-1.21,0.32,-1.01,1.6
2022-11-11 12:53:08.0200,-1.29,0.22,-1.14,1.73
2022-11-11 12:53:08.0220,-1.47,0.05,-1.39,2.02
2022-11-11 12:53:08.0240,-1.56,-0.15,-1.61,2.24
2022-11-11 12:53:08.0260,-1.49,-0.4,-1.71,2.3
2022-11-11 12:53:08.0280,-1.42,-0.59,-1.74,2.32
2022-11-11 12:53:08.0360,-1.29,-0.74,-1.85,2.37
2022-11-11 12:53:08.0450,-1.19,-0.86,-1.9,2.4
2022-11-11 12:53:08.0550,-1.12,-0.86,-2.01,2.45
2022-11-11 12:53:08.1170,-0.99,-0.71,-2.13,2.45
2022-11-11 12:53:08.1190,-0.89,-0.61,-2.11,2.36
2022-11-11 12:53:08.1200,-0.83,-0.69,-2.02,2.29
2022-11-11 12:53:08.1220,-0.7,-0.88,-2.13,2.4
2022-11-11 12:53:08.1240,-0.76,-1.14,-2.5,2.85
2022-11-11 12:53:08.1260,-1.05,-1.32,-2.94,3.38
2022-11-11 12:53:08.1280,-1.2,-1.23,-3.11,3.55
2022-11-11 12:53:08.1350,-1.31,-0.9,-2.92,3.32
2022-11-11 12:53:08.1480,-1.6,-0.52,-2.94,3.38
2022-11-11 12:53:08.1550,-1.84,-0.36,-3.38,3.86
2022-11-11 12:53:08.2160,-1.87,-0.46,-3.7,4.17
2022-11-11 12:53:08.2180,-1.94,-0.72,-3.95,4.45
2022-11-11 12:53:08.2190,-2.33,-1.11,-4.21,4.93
2022-11-11 12:53:08.2210,-3.15,-1.64,-4.51,5.74
2022-11-11 12:53:08.2220,-4.03,-2.05,-4.42,6.32
2022-11-11 12:53:08.2240,-4.34,-2.2,-3.55,6.02
2022-11-11 12:53:08.2260,-4.6,-2.15,-2.63,5.71
2022-11-11 12:53:08.2340,-5.07,-2.04,-2.44,5.98
2022-11-11 12:53:08.2440,-5.0,-2.15,-2.19,5.86
2022-11-11 12:53:08.2540,-4.43,-2.4,-2.13,5.47
2022-11-11 12:53:08.3160,-3.7,-2.62,-2.28,5.07
2022-11-11 12:53:08.3180,-3.02,-2.88,-2.1,4.67
2022-11-11 12:53:08.3190,-2.75,-2.65,-0.34,3.83
2022-11-11 12:53:08.3210,-3.85,-1.21,3.38,5.26
2022-11-11 12:53:08.3230,-4.94,1.34,5.05,7.19
2022-11-11 12:53:08.3250,-2.38,6.15,4.01,7.71
2022-11-11 12:53:08.3270,1.23,12.87,0.09,12.92
2022-11-11 12:53:08.3340,2.75,11.35,-3.33,12.14
2022-11-11 12:53:08.3480,1.09,3.47,-5.07,6.23
2022-11-11 12:53:08.3540,-1.78,-1.21,-5.61,6.0
2022-11-11 12:53:08.4160,-3.4,-2.8,-2.09,4.87
2022-11-11 12:53:08.4170,-4.46,-2.26,1.31,5.16
2022-11-11 12:53:08.4190,-4.76,-1.38,1.64,5.22
2022-11-11 12:53:08.4200,-3.6,-0.4,1.9,4.09
2022-11-11 12:53:08.4220,-1.4,0.21,0.88,1.66
2022-11-11 12:53:08.4240,1.08,0.16,-1.52,1.87
2022-11-11 12:53:08.4260,3.04,-0.12,-2.42,3.88
2022-11-11 12:53:08.4330,3.38,-0.1,-1.94,3.89
2022-11-11 12:53:08.4430,1.84,0.06,-1.45,2.34
2022-11-11 12:53:08.4530,-0.42,-0.17,-1.02,1.11
2022-11-11 12:53:08.5160,-1.95,-0.5,-0.45,2.06
2022-11-11 12:53:08.5170,-2.01,-0.42,0.24,2.06
2022-11-11 12:53:08.5190,-0.76,0.04,0.48,0.89
2022-11-11 12:53:08.5200,0.35,0.48,0.05,0.59
2022-11-11 12:53:08.5220,0.94,0.6,-0.87,1.41
2022-11-11 12:53:08.5240,1.29,0.43,-1.22,1.82
2022-11-11 12:53:08.5260,1.14,0.15,-1.3,1.73
2022-11-11 12:53:08.5320,0.7,-0.1,-0.93,1.16
2022-11-11 12:53:08.5420,0.1,-0.28,-0.54,0.61
2022-11-11 12:53:08.5530,-0.43,-0.43,-0.51,0.79
2022-11-11 12:53:08.6150,-0.49,-0.4,-0.32,0.7
2022-11-11 12:53:08.6160,-0.14,-0.16,0.11,0.23
2022-11-11 12:53:08.6180,0.27,0.11,-0.22,0.36
2022-11-11 12:53:08.6190,0.34,0.28,-0.49,0.65
2022-11-11 12:53:08.6210,-0.04,0.39,-0.84,0.92
2022-11-11 12:53:08.6230,-0.42,0.48,-0.78,1.0
2022-11-11 12:53:08.6250,-0.68,0.46,-0.5,0.96
2022-11-11 12:53:08.6320,-0.83,0.32,-0.08,0.89
2022-11-11 12:53:08.6420,-0.84,0.05,0.14,0.85
2022-11-11 12:53:08.6520,-0.76,-0.11,0.02,0.76
2022-11-11 12:53:08.7140,-0.57,0.0,-0.11,0.58
2022-11-11 12:53:08.7160,-0.3,0.22,-0.19,0.41
2022-11-11 12:53:08.7170,-0.05,0.25,-0.28,0.37
2022-11-11 12:53:08.7190,0.23,0.12,-0.06,0.26
2022-11-11 12:53:08.7200,0.38,0.03,-0.22,0.44
2022-11-11 12:53:08.7220,0.37,0.04,-0.61,0.71
2022-11-11 12:53:08.7240,0.34,0.12,-0.54,0.64
2022-11-11 12:53:08.7310,0.31,0.22,-0.15,0.4
2022-11-11 12:53:08.7410,0.33,0.2,-0.1,0.39
2022-11-11 12:53:08.7510,0.38,0.06,-0.38,0.54
2022-11-11 12:53:08.8150,0.58,-0.09,-0.66,0.88
2022-11-11 12:53:08.8160,0.7,-0.21,-0.81,1.09
2022-11-11 12:53:08.8170,0.62,-0.28,-0.35,0.76
2022-11-11 12:53:08.8190,0.6,-0.31,0.05,0.67
2022-11-11 12:53:08.8210,0.67,-0.28,-0.28,0.77
2022-11-11 12:53:08.8230,0.62,-0.24,-0.94,1.15
2022-11-11 12:53:08.8250,0.24,-0.03,-1.13,1.15
2022-11-11 12:53:08.8310,-0.21,0.22,-0.99,1.03
2022-11-11 12:53:08.8410,-0.69,0.34,-0.75,1.07
2022-11-11 12:53:08.8510,-1.11,0.39,-0.42,1.24
2022-11-11 12:53:08.9140,-1.29,0.42,-0.21,1.37
2022-11-11 12:53:08.9160,-1.29,0.44,-0.34,1.4
2022-11-11 12:53:08.9170,-1.07,0.4,-0.45,1.22
2022-11-11 12:53:08.9180,-0.65,0.33,-0.53,0.9
2022-11-11 12:53:08.9200,-0.12,0.24,-0.71,0.75
2022-11-11 12:53:08.9220,0.49,0.15,-0.89,1.02
2022-11-11 12:53:08.9240,1.05,0.06,-1.04,1.47
2022-11-11 12:53:08.9300,1.38,-0.02,-1.24,1.85
2022-11-11 12:53:08.9400,1.53,-0.05,-1.14,1.9
2022-11-11 12:53:08.9500,1.65,0.02,-0.93,1.89
2022-11-11 12:53:09.0130,1.73,0.13,-0.81,1.91
2022-11-11 12:53:09.0150,1.7,0.17,-1.0,1.97
2022-11-11 12:53:09.0160,1.81,0.24,-1.12,2.14
2022-11-11 12:53:09.0180,2.21,0.4,-0.99,2.45
2022-11-11 12:53:09.0200,2.79,0.45,-1.31,3.11
2022-11-11 12:53:09.0210,3.45,0.35,-2.36,4.19
2022-11-11 12:53:09.0230,4.28,0.3,-3.43,5.49
2022-11-11 12:53:09.0290,5.21,0.4,-4.01,6.58
2022-11-11 12:53:09.0390,5.75,0.63,-4.17,7.13
2022-11-11 12:53:09.0500,5.55,0.79,-4.06,6.92
2022-11-11 12:53:09.1140,4.54,0.65,-3.73,5.91
2022-11-11 12:53:09.1150,3.43,0.35,-3.06,4.6
2022-11-11 12:53:09.1160,2.62,0.16,-2.08,3.34
2022-11-11 12:53:09.1180,2.03,0.24,-1.15,2.34
2022-11-11 12:53:09.1200,1.72,0.48,-0.64,1.89
2022-11-11 12:53:09.1220,1.88,0.67,-0.56,2.07
2022-11-11 12:53:09.1230,2.4,0.71,-0.85,2.64
2022-11-11 12:53:09.1290,3.01,0.53,-1.39,3.35
2022-11-11 12:53:09.1390,3.45,0.2,-1.74,3.86
2022-11-11 12:53:09.1490,3.5,-0.2,-1.97,4.02
2022-11-11 12:53:09.2130,3.19,-0.45,-2.15,3.87
2022-11-11 12:53:09.2140,2.78,-0.36,-2.01,3.44
2022-11-11 12:53:09.2160,2.31,-0.08,-1.58,2.79
2022-11-11 12:53:09.2170,1.8,0.2,-1.16,2.15
2022-11-11 12:53:09.2190,1.37,0.32,-0.88,1.65
2022-11-11 12:53:09.2210,1.08,0.19,-0.7,1.3
2022-11-11 12:53:09.2230,0.89,-0.07,-0.78,1.18
2022-11-11 12:53:09.2280,0.75,-0.2,-1.07,1.32
2022-11-11 12:53:09.2380,0.65,-0.17,-1.33,1.49
2022-11-11 12:53:09.2480,0.45,-0.04,-1.5,1.56
2022-11-11 12:53:09.3120,0.11,0.12,-1.44,1.44
2022-11-11 12:53:09.3140,-0.32,0.27,-1.3,1.36
2022-11-11 12:53:09.3150,-0.69,0.29,-1.07,1.3
2022-11-11 12:53:09.3170,-0.82,0.12,-0.97,1.27
2022-11-11 12:53:09.3190,-0.98,-0.16,-1.22,1.57
2022-11-11 12:53:09.3210,-1.22,-0.43,-1.66,2.1
2022-11-11 12:53:09.3220,-1.38,-0.59,-2.13,2.6
2022-11-11 12:53:09.3270,-1.42,-0.67,-2.4,2.86
2022-11-11 12:53:09.3380,-1.5,-0.78,-2.61,3.1
2022-11-11 12:53:09.3480,-1.81,-0.99,-2.84,3.51
2022-11-11 12:53:09.4110,-2.42,-1.05,-3.19,4.13
2022-11-11 12:53:09.4120,-3.06,-0.95,-3.26,4.57
2022-11-11 12:53:09.4140,-3.7,-0.86,-2.96,4.81
2022-11-11 12:53:09.4150,-4.51,-0.95,-2.92,5.45
2022-11-11 12:53:09.4170,-5.38,-1.27,-2.92,6.25
2022-11-11 12:53:09.4190,-6.14,-1.42,-2.65,6.83
2022-11-11 12:53:09.4210,-6.47,-1.43,-2.22,6.98
2022-11-11 12:53:09.4270,-6.37,-1.43,-1.89,6.79
2022-11-11 12:53:09.4370,-6.07,-1.58,-1.73,6.5
2022-11-11 12:53:09.4470,-5.61,-2.02,-1.72,6.2
2022-11-11 12:53:09.5110,-5.69,-2.79,-2.26,6.72
2022-11-11 12:53:09.5120,-6.63,-3.05,-3.47,8.08
2022-11-11 12:53:09.5130,-7.25,-2.08,-4.35,8.7
2022-11-11 12:53:09.5150,-3.76,-0.2,-1.61,4.09
2022-11-11 12:53:09.5170,1.83,1.82,2.62,3.67
2022-11-11 12:53:09.5180,4.94,4.05,3.6,7.33
2022-11-11 12:53:09.5200,4.25,5.21,0.03,6.72
2022-11-11 12:53:09.5260,1.64,3.88,-3.02,5.18
2022-11-11 12:53:09.5360,0.53,0.7,-3.04,3.16
2022-11-11 12:53:09.5460,0.52,-1.54,-1.21,2.02
2022-11-11 12:53:09.6100,0.56,-1.74,-0.3,1.85
2022-11-11 12:53:09.6120,-0.16,-0.81,-0.68,1.06
2022-11-11 12:53:09.6130,-1.5,0.33,-0.76,1.71
2022-11-11 12:53:09.6150,-2.43,1.05,-0.3,2.66
2022-11-11 12:53:09.6170,-2.89,1.28,0.17,3.16
2022-11-11 12:53:09.6190,-2.95,1.03,0.37,3.14
2022-11-11 12:53:09.6210,-2.3,0.46,0.13,2.34
2022-11-11 12:53:09.6260,-1.0,0.03,0.01,1.0
2022-11-11 12:53:09.6360,0.31,-0.08,0.0,0.32
2022-11-11 12:53:09.6460,1.22,0.0,-0.5,1.31
2022-11-11 12:53:09.7090,1.61,0.0,-0.8,1.79
2022-11-11 12:53:09.7110,1.38,0.0,-1.13,1.78
2022-11-11 12:53:09.7120,0.74,0.01,-1.41,1.59
2022-11-11 12:53:09.7130,-0.07,0.04,-1.11,1.11
2022-11-11 12:53:09.7150,-0.68,0.12,-0.44,0.81
2022-11-11 12:53:09.7170,-0.82,0.07,0.08,0.82
2022-11-11 12:53:09.7190,-0.58,-0.15,0.12,0.61
2022-11-11 12:53:09.7250,-0.12,-0.29,-0.05,0.31
2022-11-11 12:53:09.7350,0.39,-0.17,-0.4,0.58
2022-11-11 12:53:09.7450,0.74,0.04,-0.5,0.89
2022-11-11 12:53:09.8090,0.69,0.13,-0.24,0.74
2022-11-11 12:53:09.8100,0.3,0.13,-0.19,0.37
2022-11-11 12:53:09.8110,0.02,0.11,-0.21,0.23
2022-11-11 12:53:09.8130,-0.12,0.12,-0.27,0.31
2022-11-11 12:53:09.8150,-0.12,0.06,-0.23,0.26
2022-11-11 12:53:09.8170,-0.07,0.02,-0.2,0.21
2022-11-11 12:53:09.8190,0.03,0.02,-0.16,0.16
2022-11-11 12:53:09.8240,0.2,0.05,-0.24,0.31
2022-11-11 12:53:09.8340,0.27,0.08,-0.42,0.5
2022-11-11 12:53:09.8440,0.19,0.1,-0.46,0.5
2022-11-11 12:53:09.9090,0.13,0.12,-0.25,0.3
2022-11-11 12:53:09.9100,0.1,0.14,-0.04,0.17
2022-11-11 12:53:09.9110,0.16,0.13,-0.03,0.2
2022-11-11 12:53:09.9130,0.37,0.07,-0.15,0.4
2022-11-11 12:53:09.9150,0.62,-0.01,-0.37,0.72
2022-11-11 12:53:09.9170,0.76,-0.05,-0.4,0.86
2022-11-11 12:53:09.9190,0.77,-0.06,-0.36,0.85
2022-11-11 12:53:09.9240,0.63,-0.15,-0.3,0.71
2022-11-11 12:53:09.9340,0.35,-0.19,-0.24,0.46
2022-11-11 12:53:09.9440,0.14,-0.15,-0.32,0.38
2022-11-11 12:53:10.0080,0.06,-0.08,-0.21,0.23
2022-11-11 12:53:10.0100,0.03,0.01,-0.13,0.13
2022-11-11 12:53:10.0110,0.02,0.1,-0.1,0.14
2022-11-11 12:53:10.0130,-0.17,0.2,-0.18,0.31
2022-11-11 12:53:10.0150,-0.33,0.22,-0.23,0.45
2022-11-11 12:53:10.0160,-0.13,0.14,-0.04,0.19
2022-11-11 12:53:10.0180,0.2,0.05,-0.08,0.22
2022-11-11 12:53:10.0230,0.53,0.03,-0.44,0.68
2022-11-11 12:53:10.0330,0.62,-0.01,-0.67,0.91
2022-11-11 12:53:10.0430,0.48,-0.04,-0.7,0.84
2022-11-11 12:53:10.1080,0.25,-0.07,-0.52,0.58
2022-11-11 12:53:10.1090,0.01,-0.07,-0.33,0.33
2022-11-11 12:53:10.1100,-0.08,-0.05,-0.26,0.27
2022-11-11 12:53:10.1120,0.05,0.04,-0.24,0.24
2022-11-11 12:53:10.1140,0.27,0.21,-0.2,0.39
2022-11-11 12:53:10.1160,0.26,0.33,-0.15,0.44
2022-11-11 12:53:10.1170,0.05,0.28,-0.25,0.37
2022-11-11 12:53:10.1230,-0.09,0.15,-0.22,0.28
2022-11-11 12:53:10.1330,-0.12,-0.01,-0.14,0.18
2022-11-11 12:53:10.1430,-0.11,-0.06,-0.13,0.18
2022-11-11 12:53:10.2070,-0.04,0.02,-0.16,0.16
2022-11-11 12:53:10.2080,0.1,0.05,-0.25,0.27
2022-11-11 12:53:10.2100,0.34,0.1,-0.31,0.47
2022-11-11 12:53:10.2120,0.61,0.26,-0.55,0.86
2022-11-11 12:53:10.2130,0.83,0.37,-0.79,1.2
2022-11-11 12:53:10.2150,0.96,0.4,-0.71,1.25
2022-11-11 12:53:10.2170,0.89,0.39,-0.5,1.09
2022-11-11 12:53:10.2220,0.69,0.26,-0.4,0.83
2022-11-11 12:53:10.2320,0.63,0.14,-0.27,0.69
2022-11-11 12:53:10.2420,0.7,0.23,0.01,0.73
2022-11-11 12:53:10.3070,0.84,0.48,0.09,0.97
2022-11-11 12:53:10.3090,1.16,0.78,0.07,1.39
