time,ax,ay,az,atotal
2022-11-15 21:20:43.1720,0.45,-0.16,1.32,1.4
2022-11-15 21:20:43.1730,0.96,-0.07,1.39,1.69
2022-11-15 21:20:43.1910,1.31,0.08,1.4,1.91
2022-11-15 21:20:43.1920,1.45,0.25,1.22,1.91
2022-11-15 21:20:43.2050,1.33,0.3,0.55,1.47
2022-11-15 21:20:43.2060,0.97,-0.18,-0.45,1.08
2022-11-15 21:20:43.2610,0.67,-1.29,-1.15,1.85
2022-11-15 21:20:43.2610,0.74,-2.44,-1.49,2.95
2022-11-15 21:20:43.2710,0.26,-3.29,-1.38,3.57
2022-11-15 21:20:43.2710,-0.6,-3.52,-0.96,3.69
2022-11-15 21:20:43.2870,-1.22,-3.45,-0.6,3.7
2022-11-15 21:20:43.2880,-1.49,-3.58,-0.42,3.9
2022-11-15 21:20:43.3040,-1.27,-3.74,-0.39,3.96
2022-11-15 21:20:43.3040,-0.8,-3.86,-0.31,3.95
2022-11-15 21:20:43.3200,-0.38,-4.05,-0.45,4.09
2022-11-15 21:20:43.3210,-0.02,-4.16,-0.96,4.26
2022-11-15 21:20:43.3760,0.12,-3.98,-1.35,4.2
2022-11-15 21:20:43.3770,0.16,-3.5,-1.5,3.81
2022-11-15 21:20:43.3870,0.23,-2.68,-1.65,3.15
2022-11-15 21:20:43.3880,0.28,-1.72,-1.84,2.53
2022-11-15 21:20:43.4040,0.34,-0.79,-2.01,2.18
2022-11-15 21:20:43.4050,0.42,-0.03,-2.13,2.17
2022-11-15 21:20:43.4200,0.42,0.59,-2.06,2.18
2022-11-15 21:20:43.4210,0.2,1.01,-1.85,2.11
2022-11-15 21:20:43.4370,-0.26,1.16,-1.65,2.03
2022-11-15 21:20:43.4380,-0.72,1.25,-1.41,2.01
2022-11-15 21:20:43.4930,-1.14,1.25,-1.01,1.97
2022-11-15 21:20:43.4940,-1.68,0.85,-0.81,2.04
2022-11-15 21:20:43.5050,-2.02,0.66,-0.66,2.22
2022-11-15 21:20:43.5050,-2.24,0.59,-0.5,2.36
2022-11-15 21:20:43.5210,-2.44,0.75,-0.38,2.58
2022-11-15 21:20:43.5220,-2.51,0.63,-0.28,2.6
2022-11-15 21:20:43.5370,-2.25,0.28,-0.36,2.29
2022-11-15 21:20:43.5370,-1.89,0.56,-0.32,1.99
2022-11-15 21:20:43.5530,-1.89,0.55,-0.23,1.98
2022-11-15 21:20:43.5540,-1.76,0.64,-0.53,1.94
2022-11-15 21:20:43.6090,-1.31,0.95,-1.09,1.95
2022-11-15 21:20:43.6090,-0.95,1.26,-1.1,1.92
2022-11-15 21:20:43.6210,-0.92,1.55,-0.83,1.98
2022-11-15 21:20:43.6220,-1.17,1.87,-0.69,2.31
2022-11-15 21:20:43.6380,-1.32,2.19,-0.76,2.66
2022-11-15 21:20:43.6380,-1.28,2.37,-0.72,2.78
2022-11-15 21:20:43.6540,-1.13,2.43,-0.45,2.71
2022-11-15 21:20:43.6540,-0.94,2.35,-0.22,2.54
2022-11-15 21:20:43.6700,-0.76,2.22,0.03,2.34
2022-11-15 21:20:43.6710,-0.68,2.12,0.31,2.24
2022-11-15 21:20:43.7260,-0.62,2.09,0.5,2.23
2022-11-15 21:20:43.7270,-0.49,2.06,0.53,2.18
2022-11-15 21:20:43.7380,-0.43,1.97,0.56,2.09
2022-11-15 21:20:43.7390,-0.45,1.84,0.54,1.96
2022-11-15 21:20:43.7540,-0.36,1.72,0.49,1.82
2022-11-15 21:20:43.7550,-0.28,1.59,0.46,1.67
2022-11-15 21:20:43.7700,-0.24,1.4,0.5,1.5
2022-11-15 21:20:43.7710,-0.1,1.24,0.58,1.37
2022-11-15 21:20:43.7870,0.03,1.05,0.65,1.23
2022-11-15 21:20:43.7870,0.13,0.86,0.74,1.14
2022-11-15 21:20:43.8430,0.14,0.72,0.9,1.16
2022-11-15 21:20:43.8440,0.17,0.63,1.09,1.27
2022-11-15 21:20:43.8550,0.33,0.61,1.36,1.52
2022-11-15 21:20:43.8550,0.47,0.58,1.74,1.89
2022-11-15 21:20:43.8710,0.56,0.4,2.14,2.24
2022-11-15 21:20:43.8720,0.69,0.11,2.48,2.57
2022-11-15 21:20:43.8870,0.89,-0.19,2.62,2.77
2022-11-15 21:20:43.8880,1.11,-0.45,2.57,2.83
2022-11-15 21:20:43.9030,1.38,-0.65,2.44,2.87
2022-11-15 21:20:43.9040,1.67,-0.82,2.39,3.02
2022-11-15 21:20:43.9590,1.92,-0.91,2.31,3.13
2022-11-15 21:20:43.9600,1.89,-0.82,2.17,2.99
2022-11-15 21:20:43.9720,1.53,-0.61,1.91,2.52
2022-11-15 21:20:43.9720,1.19,-0.26,1.68,2.07
2022-11-15 21:20:43.9870,1.0,0.08,1.71,1.98
2022-11-15 21:20:43.9880,0.57,-0.08,2.21,2.28
2022-11-15 21:20:44.0030,-0.57,-1.33,2.83,3.17
2022-11-15 21:20:44.0040,-1.25,-3.29,2.65,4.4
2022-11-15 21:20:44.0200,-0.04,-4.44,1.28,4.62
2022-11-15 21:20:44.0210,1.77,-4.37,-0.08,4.71
2022-11-15 21:20:44.0760,2.03,-4.33,-0.34,4.79
2022-11-15 21:20:44.0770,0.95,-4.92,-0.26,5.01
2022-11-15 21:20:44.0880,0.02,-5.23,-0.84,5.29
2022-11-15 21:20:44.0890,-0.41,-4.35,-1.56,4.63
2022-11-15 21:20:44.1040,-0.92,-2.29,-1.46,2.86
2022-11-15 21:20:44.1050,-1.89,-0.22,-0.8,2.06
2022-11-15 21:20:44.1200,-3.19,0.83,-0.35,3.31
2022-11-15 21:20:44.1210,-4.35,1.15,-0.38,4.51
2022-11-15 21:20:44.1370,-4.97,1.19,-0.53,5.13
2022-11-15 21:20:44.1380,-4.96,1.24,-0.55,5.14
2022-11-15 21:20:44.1930,-4.56,1.22,-0.48,4.74
2022-11-15 21:20:44.1930,-4.04,1.14,-0.37,4.21
2022-11-15 21:20:44.2050,-3.49,1.08,-0.29,3.66
2022-11-15 21:20:44.2060,-2.93,1.24,-0.3,3.19
2022-11-15 21:20:44.2210,-2.43,1.65,-0.38,2.96
2022-11-15 21:20:44.2210,-2.06,2.1,-0.43,2.97
2022-11-15 21:20:44.2370,-1.75,2.39,-0.54,3.01
2022-11-15 21:20:44.2370,-1.47,2.46,-0.7,2.95
2022-11-15 21:20:44.2530,-1.08,2.29,-0.95,2.7
2022-11-15 21:20:44.2540,-0.6,1.9,-1.13,2.29
2022-11-15 21:20:44.3090,-0.28,1.28,-1.27,1.82
2022-11-15 21:20:44.3100,-0.01,0.55,-1.48,1.57
2022-11-15 21:20:44.3210,0.12,-0.25,-1.51,1.53
2022-11-15 21:20:44.3220,-0.02,-0.98,-1.45,1.75
2022-11-15 21:20:44.3370,-0.21,-1.47,-1.62,2.19
2022-11-15 21:20:44.3380,-0.48,-1.7,-1.73,2.47
2022-11-15 21:20:44.3530,-1.08,-1.77,-1.51,2.56
2022-11-15 21:20:44.3540,-1.6,-1.66,-1.12,2.56
2022-11-15 21:20:44.3700,-1.81,-1.34,-0.88,2.41
2022-11-15 21:20:44.3710,-1.89,-0.96,-0.69,2.22
2022-11-15 21:20:44.4260,-1.84,-0.53,-0.53,1.98
2022-11-15 21:20:44.4270,-1.81,-0.1,-0.19,1.82
2022-11-15 21:20:44.4380,-1.6,0.3,0.09,1.63
2022-11-15 21:20:44.4390,-1.18,0.63,0.25,1.36
2022-11-15 21:20:44.4540,-0.7,0.82,0.39,1.14
2022-11-15 21:20:44.4550,-0.32,0.81,0.56,1.03
2022-11-15 21:20:44.4700,0.03,0.7,0.68,0.97
2022-11-15 21:20:44.4710,0.37,0.69,0.71,1.05
2022-11-15 21:20:44.4860,0.61,0.77,0.77,1.24
2022-11-15 21:20:44.4870,0.69,0.68,0.68,1.18
2022-11-15 21:20:44.5430,0.66,0.52,0.61,1.03
2022-11-15 21:20:44.5440,0.57,0.49,0.63,0.98
2022-11-15 21:20:44.5550,0.36,0.49,0.67,0.9
2022-11-15 21:20:44.5550,0.19,0.38,0.77,0.87
2022-11-15 21:20:44.5710,0.02,0.33,0.78,0.84
2022-11-15 21:20:44.5710,-0.19,0.1,0.73,0.76
2022-11-15 21:20:44.5860,-0.38,-0.31,0.7,0.85
2022-11-15 21:20:44.5870,-0.55,-0.57,0.85,1.16
2022-11-15 21:20:44.6030,-0.83,-0.69,1.09,1.53
2022-11-15 21:20:44.6040,-1.07,-0.66,1.21,1.74
2022-11-15 21:20:44.6590,-1.18,-0.53,1.31,1.84
2022-11-15 21:20:44.6600,-1.11,-0.57,1.61,2.03
2022-11-15 21:20:44.6710,-0.75,-0.5,1.34,1.61
2022-11-15 21:20:44.6720,-0.22,-0.31,1.12,1.18
2022-11-15 21:20:44.6870,0.29,-0.13,1.28,1.31
2022-11-15 21:20:44.6880,0.7,-0.1,1.53,1.68
2022-11-15 21:20:44.7030,1.06,-0.17,1.71,2.01
2022-11-15 21:20:44.7040,1.43,-0.18,1.79,2.29
2022-11-15 21:20:44.7200,1.7,-0.17,1.87,2.53
2022-11-15 21:20:44.7210,1.83,-0.14,1.89,2.63
2022-11-15 21:20:44.7770,1.86,-0.19,1.91,2.67
2022-11-15 21:20:44.7770,1.78,-0.39,1.64,2.45
2022-11-15 21:20:44.7880,1.65,-0.85,0.6,1.95
2022-11-15 21:20:44.7890,1.66,-1.95,-0.4,2.59
2022-11-15 21:20:44.8040,1.88,-3.33,-1.11,3.98
2022-11-15 21:20:44.8050,1.53,-4.46,-1.18,4.86
2022-11-15 21:20:44.8200,0.4,-5.17,-0.45,5.2
2022-11-15 21:20:44.8210,-0.61,-5.01,0.17,5.04
2022-11-15 21:20:44.8370,-1.31,-4.19,0.21,4.39
2022-11-15 21:20:44.8380,-1.69,-3.28,-0.19,3.69
2022-11-15 21:20:44.8940,-1.6,-2.83,-0.78,3.34
2022-11-15 21:20:44.8950,-1.13,-2.73,-1.28,3.21
2022-11-15 21:20:44.9040,-0.75,-2.42,-1.6,2.99
2022-11-15 21:20:44.9050,-0.66,-1.85,-1.81,2.67
2022-11-15 21:20:44.9210,-0.8,-1.07,-1.89,2.31
2022-11-15 21:20:44.9210,-0.77,0.04,-1.7,1.86
2022-11-15 21:20:44.9370,-0.65,0.78,-1.44,1.76
2022-11-15 21:20:44.9370,-0.62,1.11,-1.23,1.76
2022-11-15 21:20:44.9530,-0.63,1.15,-1.04,1.67
2022-11-15 21:20:44.9540,-0.65,0.93,-0.82,1.39
2022-11-15 21:20:45.0110,-0.72,0.61,-0.55,1.09
2022-11-15 21:20:45.0120,-0.8,0.34,-0.33,0.92
2022-11-15 21:20:45.0210,-0.71,0.15,-0.28,0.77
2022-11-15 21:20:45.0220,-0.41,0.0,-0.42,0.58
2022-11-15 21:20:45.0370,0.05,0.03,-0.76,0.76
2022-11-15 21:20:45.0380,0.63,0.34,-1.18,1.38
2022-11-15 21:20:45.0530,1.15,0.47,-1.24,1.75
2022-11-15 21:20:45.0540,1.29,0.45,-1.04,1.71
2022-11-15 21:20:45.0700,1.01,0.58,-0.88,1.45
2022-11-15 21:20:45.0710,0.74,0.87,-0.98,1.5
2022-11-15 21:20:45.1270,0.52,1.18,-1.04,1.65
2022-11-15 21:20:45.1280,0.17,1.37,-1.0,1.7
2022-11-15 21:20:45.1380,-0.25,1.56,-0.97,1.85
2022-11-15 21:20:45.1390,-0.55,1.86,-0.9,2.13
2022-11-15 21:20:45.1540,-0.74,2.13,-0.65,2.34
2022-11-15 21:20:45.1550,-0.83,2.35,-0.35,2.51
2022-11-15 21:20:45.1700,-0.73,2.57,-0.11,2.67
2022-11-15 21:20:45.1710,-0.58,2.72,0.16,2.78
2022-11-15 21:20:45.1860,-0.64,2.81,0.43,2.91
2022-11-15 21:20:45.1870,-0.77,2.78,0.66,2.95
2022-11-15 21:20:45.2430,-0.74,2.64,0.78,2.85
2022-11-15 21:20:45.2440,-0.67,2.47,0.93,2.72
2022-11-15 21:20:45.2540,-0.61,2.17,1.07,2.49
2022-11-15 21:20:45.2550,-0.4,1.77,1.1,2.12
2022-11-15 21:20:45.2710,-0.16,1.31,1.18,1.77
2022-11-15 21:20:45.2720,0.04,0.79,1.32,1.53
2022-11-15 21:20:45.2870,0.26,0.33,1.44,1.5
2022-11-15 21:20:45.2880,0.45,0.02,1.49,1.55
2022-11-15 21:20:45.3030,0.62,-0.15,1.52,1.64
2022-11-15 21:20:45.3040,0.78,-0.13,1.48,1.67
2022-11-15 21:20:45.3600,0.92,0.11,1.26,1.56
2022-11-15 21:20:45.3610,0.97,0.42,1.04,1.48
2022-11-15 21:20:45.3710,0.97,0.8,0.94,1.56
2022-11-15 21:20:45.3720,0.94,1.19,0.97,1.8
2022-11-15 21:20:45.3870,0.96,1.47,1.07,2.05
2022-11-15 21:20:45.3880,0.97,1.56,1.25,2.22
2022-11-15 21:20:45.4030,0.89,1.48,1.48,2.27
2022-11-15 21:20:45.4040,0.87,1.33,1.56,2.22
2022-11-15 21:20:45.4200,0.96,1.11,1.5,2.09
2022-11-15 21:20:45.4210,1.1,0.98,1.3,1.96
2022-11-15 21:20:45.4770,1.23,0.94,1.07,1.88
2022-11-15 21:20:45.4780,1.35,1.04,1.0,1.97
2022-11-15 21:20:45.4880,1.5,1.25,1.12,2.25
2022-11-15 21:20:45.4890,1.62,1.56,1.33,2.61
2022-11-15 21:20:45.5040,1.63,1.84,1.58,2.92
2022-11-15 21:20:45.5050,1.5,1.91,1.98,3.13
2022-11-15 21:20:45.5200,0.68,1.11,2.55,2.86
2022-11-15 21:20:45.5210,-0.39,-1.11,2.22,2.51
2022-11-15 21:20:45.5360,-0.11,-4.13,0.12,4.13
2022-11-15 21:20:45.5370,1.33,-7.0,-1.7,7.32
2022-11-15 21:20:45.5940,2.56,-9.02,-1.26,9.46
2022-11-15 21:20:45.5950,2.01,-10.03,0.2,10.23
2022-11-15 21:20:45.6050,0.52,-9.57,-0.31,9.58
2022-11-15 21:20:45.6050,-0.85,-6.57,-1.51,6.79
2022-11-15 21:20:45.6210,-2.24,-3.18,-1.66,4.22
2022-11-15 21:20:45.6220,-3.65,-1.0,-1.27,3.99
2022-11-15 21:20:45.6370,-4.49,0.23,-1.16,4.64
2022-11-15 21:20:45.6370,-4.5,1.17,-1.39,4.85
2022-11-15 21:20:45.6530,-4.05,1.95,-1.56,4.75
2022-11-15 21:20:45.6540,-3.49,2.43,-1.64,4.55
2022-11-15 21:20:45.7100,-3.01,2.56,-1.61,4.26
2022-11-15 21:20:45.7110,-2.6,2.46,-1.57,3.9
2022-11-15 21:20:45.7210,-2.21,2.24,-1.51,3.49
2022-11-15 21:20:45.7220,-1.76,2.06,-1.25,2.98
2022-11-15 21:20:45.7380,-1.21,1.97,-0.74,2.42
2022-11-15 21:20:45.7380,-0.75,1.83,-0.38,2.01
2022-11-15 21:20:45.7530,-0.54,1.74,-0.31,1.84
2022-11-15 21:20:45.7540,-0.39,1.78,-0.61,1.92
2022-11-15 21:20:45.7700,-0.35,1.7,-0.89,1.95
2022-11-15 21:20:45.7710,-0.33,1.4,-1.33,1.95
2022-11-15 21:20:45.8270,-0.38,0.91,-1.64,1.91
2022-11-15 21:20:45.8280,-0.36,0.46,-1.79,1.88
2022-11-15 21:20:45.8380,-0.32,0.12,-1.74,1.77
2022-11-15 21:20:45.8380,-0.41,-0.29,-1.64,1.71
2022-11-15 21:20:45.8540,-0.56,-0.64,-1.61,1.82
2022-11-15 21:20:45.8550,-0.83,-0.9,-1.28,1.77
2022-11-15 21:20:45.8700,-0.88,-0.76,-0.96,1.5
2022-11-15 21:20:45.8700,-0.79,-0.36,-0.74,1.14
2022-11-15 21:20:45.8860,-0.75,-0.01,-0.52,0.91
2022-11-15 21:20:45.8870,-0.74,0.28,-0.41,0.89
2022-11-15 21:20:45.9430,-0.62,0.48,-0.35,0.85
2022-11-15 21:20:45.9440,-0.53,0.6,-0.22,0.83
2022-11-15 21:20:45.9540,-0.28,0.65,-0.09,0.71
2022-11-15 21:20:45.9550,0.03,0.66,0.08,0.66
2022-11-15 21:20:45.9710,0.14,0.58,0.34,0.68
2022-11-15 21:20:45.9710,0.3,0.51,0.62,0.85
2022-11-15 21:20:45.9860,0.4,0.45,0.87,1.05
2022-11-15 21:20:45.9870,0.46,0.23,1.02,1.14
2022-11-15 21:20:46.0030,0.59,0.04,1.02,1.17
2022-11-15 21:20:46.0040,0.67,-0.1,0.88,1.11
2022-11-15 21:20:46.0610,0.67,-0.23,0.71,1.0
2022-11-15 21:20:46.0620,0.66,-0.26,0.49,0.86
2022-11-15 21:20:46.0710,0.6,-0.18,0.33,0.7
2022-11-15 21:20:46.0720,0.44,-0.02,0.56,0.71
2022-11-15 21:20:46.0870,0.31,0.03,1.19,1.23
2022-11-15 21:20:46.0880,0.18,-0.06,1.09,1.1
2022-11-15 21:20:46.1030,-0.09,0.01,0.73,0.73
2022-11-15 21:20:46.1040,-0.46,0.16,0.59,0.76
2022-11-15 21:20:46.1200,-0.77,0.3,0.46,0.94
2022-11-15 21:20:46.1210,-0.9,0.36,0.4,1.04
2022-11-15 21:20:46.1770,-0.8,0.37,0.45,0.98
2022-11-15 21:20:46.1780,-0.46,0.33,0.55,0.78
2022-11-15 21:20:46.1880,-0.06,0.12,0.77,0.78
2022-11-15 21:20:46.1880,0.3,-0.19,1.04,1.09
2022-11-15 21:20:46.2040,0.63,-0.36,1.23,1.42
2022-11-15 21:20:46.2050,0.91,-0.42,1.34,1.67
2022-11-15 21:20:46.2200,1.1,-0.57,0.95,1.56
2022-11-15 21:20:46.2200,1.19,-1.16,0.19,1.67
2022-11-15 21:20:46.2370,1.4,-2.35,-0.3,2.75
2022-11-15 21:20:46.2380,1.81,-3.14,-0.98,3.75
2022-11-15 21:20:46.2940,1.56,-3.48,-1.42,4.06
2022-11-15 21:20:46.2950,0.72,-3.61,-1.38,3.93
2022-11-15 21:20:46.3040,0.3,-3.3,-1.0,3.46
2022-11-15 21:20:46.3050,0.07,-2.95,-0.51,2.99
2022-11-15 21:20:46.3210,0.05,-2.7,-0.23,2.71
2022-11-15 21:20:46.3210,0.23,-2.63,-0.19,2.64
2022-11-15 21:20:46.3360,0.42,-2.86,-0.3,2.9
2022-11-15 21:20:46.3370,0.59,-3.12,-0.5,3.21
2022-11-15 21:20:46.3530,0.72,-3.05,-0.74,3.22
2022-11-15 21:20:46.3540,0.65,-2.6,-0.95,2.84
2022-11-15 21:20:46.4100,0.38,-1.74,-0.93,2.0
2022-11-15 21:20:46.4110,0.04,-0.88,-1.08,1.39
2022-11-15 21:20:46.4210,-0.18,-0.06,-1.4,1.41
2022-11-15 21:20:46.4220,-0.27,0.58,-1.65,1.76
2022-11-15 21:20:46.4370,-0.26,1.17,-1.6,1.99
2022-11-15 21:20:46.4380,-0.26,1.65,-1.3,2.11
2022-11-15 21:20:46.4530,-0.37,1.79,-0.9,2.03
2022-11-15 21:20:46.4540,-0.68,1.52,-0.44,1.72
2022-11-15 21:20:46.4700,-1.04,1.09,-0.09,1.5
2022-11-15 21:20:46.4710,-1.15,0.84,0.15,1.43
2022-11-15 21:20:46.5290,-1.05,0.65,0.39,1.29
2022-11-15 21:20:46.5300,-0.87,0.39,0.43,1.04
2022-11-15 21:20:46.5370,-0.71,0.23,0.27,0.79
2022-11-15 21:20:46.5380,-0.58,-0.03,0.03,0.58
2022-11-15 21:20:46.5540,-0.37,-0.35,-0.22,0.55
2022-11-15 21:20:46.5550,-0.18,-0.4,-0.45,0.62
2022-11-15 21:20:46.5700,-0.01,-0.21,-0.75,0.77
2022-11-15 21:20:46.5710,0.23,0.07,-0.94,0.97
2022-11-15 21:20:46.5860,0.41,0.28,-0.99,1.1
2022-11-15 21:20:46.5870,0.38,0.55,-0.95,1.16
2022-11-15 21:20:46.6440,0.27,0.9,-0.97,1.35
2022-11-15 21:20:46.6450,0.26,1.25,-1.02,1.63
2022-11-15 21:20:46.6570,0.32,1.6,-1.02,1.92
2022-11-15 21:20:46.6580,0.36,1.93,-0.95,2.18
2022-11-15 21:20:46.6710,0.24,2.15,-0.82,2.31
2022-11-15 21:20:46.6710,0.07,2.29,-0.67,2.38
2022-11-15 21:20:46.6860,-0.07,2.37,-0.54,2.43
2022-11-15 21:20:46.6870,-0.24,2.35,-0.35,2.38
2022-11-15 21:20:46.7030,-0.42,2.24,-0.13,2.28
2022-11-15 21:20:46.7040,-0.54,2.11,0.09,2.17
2022-11-15 21:20:46.7610,-0.59,1.98,0.33,2.09
2022-11-15 21:20:46.7610,-0.46,1.83,0.53,1.95
2022-11-15 21:20:46.7710,-0.21,1.66,0.7,1.81
2022-11-15 21:20:46.7720,0.01,1.54,0.79,1.73
2022-11-15 21:20:46.7870,0.2,1.5,0.88,1.75
2022-11-15 21:20:46.7880,0.27,1.5,0.88,1.75
2022-11-15 21:20:46.8030,0.37,1.34,0.78,1.59
2022-11-15 21:20:46.8040,0.56,1.3,0.58,1.52
2022-11-15 21:20:46.8190,0.74,1.38,0.47,1.63
2022-11-15 21:20:46.8200,0.77,1.48,0.53,1.75
2022-11-15 21:20:46.8770,0.73,1.52,0.69,1.82
2022-11-15 21:20:46.8770,0.64,1.44,0.84,1.78
2022-11-15 21:20:46.8880,0.56,1.21,1.03,1.68
2022-11-15 21:20:46.8880,0.63,0.84,1.12,1.53
2022-11-15 21:20:46.9040,0.84,0.44,1.15,1.49
2022-11-15 21:20:46.9050,1.12,0.08,1.11,1.57
2022-11-15 21:20:46.9200,1.34,-0.26,1.05,1.72
2022-11-15 21:20:46.9200,1.42,-0.58,1.05,1.85
2022-11-15 21:20:46.9360,1.38,-0.84,1.03,1.91
2022-11-15 21:20:46.9370,1.22,-1.0,1.01,1.87
2022-11-15 21:20:46.9940,1.11,-0.96,1.05,1.8
2022-11-15 21:20:46.9940,1.17,-0.76,1.08,1.76
2022-11-15 21:20:47.0050,1.15,-0.44,1.05,1.61
2022-11-15 21:20:47.0050,0.91,-0.12,1.19,1.5
2022-11-15 21:20:47.0210,0.47,0.07,1.67,1.73
2022-11-15 21:20:47.0210,-0.39,-0.53,2.46,2.54
2022-11-15 21:20:47.0360,-1.4,-2.25,2.88,3.91
2022-11-15 21:20:47.0370,-1.14,-4.46,2.18,5.09
2022-11-15 21:20:47.0530,0.77,-6.31,0.22,6.36
2022-11-15 21:20:47.0540,2.23,-7.15,-1.5,7.63
2022-11-15 21:20:47.1100,1.94,-7.01,-1.72,7.47
2022-11-15 21:20:47.1110,0.65,-6.19,-1.48,6.39
2022-11-15 21:20:47.1210,-0.75,-4.1,-1.27,4.35
2022-11-15 21:20:47.1220,-1.98,-1.41,-0.94,2.6
2022-11-15 21:20:47.1370,-3.06,0.17,-1.0,3.22
2022-11-15 21:20:47.1380,-3.81,0.66,-1.41,4.11
2022-11-15 21:20:47.1530,-4.06,1.04,-1.66,4.5
2022-11-15 21:20:47.1540,-3.79,1.55,-1.69,4.42
2022-11-15 21:20:47.1700,-3.17,2.0,-1.67,4.1
2022-11-15 21:20:47.1710,-2.53,2.18,-1.61,3.7
2022-11-15 21:20:47.2290,-1.99,2.14,-1.56,3.31
2022-11-15 21:20:47.2290,-1.49,2.06,-1.43,2.91
2022-11-15 21:20:47.2380,-1.03,2.02,-1.31,2.61
2022-11-15 21:20:47.2380,-0.75,2.06,-1.17,2.48
2022-11-15 21:20:47.2540,-0.55,2.2,-1.02,2.48
2022-11-15 21:20:47.2540,-0.29,2.33,-0.9,2.51
2022-11-15 21:20:47.2700,-0.03,2.24,-0.87,2.4
2022-11-15 21:20:47.2700,-0.01,1.79,-0.88,1.99
2022-11-15 21:20:47.2860,-0.08,1.23,-0.97,1.56
2022-11-15 21:20:47.2870,-0.24,0.55,-1.11,1.26
2022-11-15 21:20:47.3440,-0.58,-0.17,-1.14,1.29
2022-11-15 21:20:47.3450,-0.91,-0.75,-1.05,1.57
2022-11-15 21:20:47.3540,-1.05,-1.16,-0.92,1.81
2022-11-15 21:20:47.3550,-1.12,-1.41,-0.91,2.01
2022-11-15 21:20:47.3710,-1.07,-1.42,-0.97,2.02
2022-11-15 21:20:47.3710,-0.92,-1.28,-0.96,1.84
2022-11-15 21:20:47.3860,-0.8,-1.05,-0.82,1.55
2022-11-15 21:20:47.3870,-0.65,-0.69,-0.68,1.16
2022-11-15 21:20:47.4030,-0.44,-0.28,-0.54,0.75
2022-11-15 21:20:47.4040,-0.24,0.14,-0.4,0.48
2022-11-15 21:20:47.4590,-0.07,0.66,-0.15,0.68
2022-11-15 21:20:47.4600,-0.01,1.07,0.21,1.09
2022-11-15 21:20:47.4710,0.0,1.24,0.47,1.32
2022-11-15 21:20:47.4720,0.01,1.24,0.59,1.37
2022-11-15 21:20:47.4870,-0.05,1.21,0.71,1.4
2022-11-15 21:20:47.4880,-0.13,1.12,0.9,1.44
2022-11-15 21:20:47.5030,-0.16,0.92,0.97,1.34
2022-11-15 21:20:47.5040,-0.16,0.65,0.97,1.17
2022-11-15 21:20:47.5190,-0.14,0.36,1.02,1.09
2022-11-15 21:20:47.5200,-0.09,0.09,1.01,1.01
2022-11-15 21:20:47.5770,-0.13,-0.15,0.91,0.93
2022-11-15 21:20:47.5770,-0.07,-0.29,0.74,0.79
2022-11-15 21:20:47.5880,0.02,-0.33,0.74,0.81
2022-11-15 21:20:47.5880,-0.01,-0.42,1.19,1.26
2022-11-15 21:20:47.6040,-0.12,-0.73,1.28,1.47
2022-11-15 21:20:47.6040,-0.22,-0.83,0.95,1.28
2022-11-15 21:20:47.6190,-0.41,-0.7,0.81,1.14
2022-11-15 21:20:47.6200,-0.62,-0.53,0.74,1.1
2022-11-15 21:20:47.6360,-0.72,-0.24,0.68,1.01
2022-11-15 21:20:47.6370,-0.62,0.17,0.62,0.89
2022-11-15 21:20:47.6940,-0.36,0.45,0.56,0.8
2022-11-15 21:20:47.6940,-0.08,0.41,0.71,0.82
2022-11-15 21:20:47.7040,0.22,0.23,0.85,0.9
2022-11-15 21:20:47.7050,0.55,0.01,0.99,1.13
2022-11-15 21:20:47.7200,0.9,-0.29,0.92,1.31
2022-11-15 21:20:47.7210,1.23,-0.76,0.34,1.48
2022-11-15 21:20:47.7360,1.6,-1.74,-0.09,2.36
2022-11-15 21:20:47.7370,2.07,-2.83,-0.75,3.58
2022-11-15 21:20:47.7530,2.07,-3.63,-1.34,4.38
2022-11-15 21:20:47.7540,1.4,-4.06,-1.31,4.48
2022-11-15 21:20:47.8110,0.87,-3.67,-1.0,3.9
2022-11-15 21:20:47.8110,0.57,-2.98,-0.53,3.07
2022-11-15 21:20:47.8210,0.43,-2.78,-0.37,2.83
2022-11-15 21:20:47.8220,0.57,-2.92,-0.46,3.01
2022-11-15 21:20:47.8370,0.81,-3.21,-0.62,3.36
2022-11-15 21:20:47.8380,0.99,-3.3,-0.83,3.54
2022-11-15 21:20:47.8530,0.93,-2.86,-1.0,3.16
2022-11-15 21:20:47.8540,0.68,-2.01,-1.09,2.38
2022-11-15 21:20:47.8700,0.37,-1.09,-1.2,1.66
2022-11-15 21:20:47.8710,0.17,-0.06,-1.28,1.29
2022-11-15 21:20:47.9270,-0.03,0.77,-1.37,1.57
2022-11-15 21:20:47.9280,-0.22,1.09,-1.7,2.03
2022-11-15 21:20:47.9370,-0.18,1.49,-1.77,2.32
2022-11-15 21:20:47.9380,-0.31,1.66,-1.52,2.27
2022-11-15 21:20:47.9540,-0.6,1.46,-1.11,1.92
2022-11-15 21:20:47.9540,-0.94,1.03,-0.74,1.57
2022-11-15 21:20:47.9700,-1.21,0.53,-0.47,1.4
2022-11-15 21:20:47.9710,-1.39,0.13,-0.27,1.42
2022-11-15 21:20:47.9860,-1.39,-0.13,-0.3,1.42
2022-11-15 21:20:47.9870,-1.06,-0.3,-0.41,1.17
2022-11-15 21:20:48.0440,-0.58,-0.4,-0.53,0.88
2022-11-15 21:20:48.0450,-0.18,-0.36,-0.69,0.79
2022-11-15 21:20:48.0540,0.16,-0.39,-0.7,0.81
2022-11-15 21:20:48.0550,0.15,-0.3,-0.97,1.02
2022-11-15 21:20:48.0700,0.2,-0.03,-1.09,1.1
2022-11-15 21:20:48.0710,0.28,0.33,-1.16,1.23
2022-11-15 21:20:48.0860,0.05,0.76,-1.34,1.54
2022-11-15 21:20:48.0870,-0.29,1.21,-1.45,1.91
2022-11-15 21:20:48.1030,-0.5,1.66,-1.38,2.21
2022-11-15 21:20:48.1040,-0.54,2.07,-1.25,2.47
2022-11-15 21:20:48.1610,-0.55,2.45,-1.15,2.76
2022-11-15 21:20:48.1620,-0.55,2.78,-1.0,3.0
2022-11-15 21:20:48.1700,-0.5,3.01,-0.81,3.15
2022-11-15 21:20:48.1710,-0.47,3.06,-0.55,3.14
2022-11-15 21:20:48.1870,-0.51,2.99,-0.28,3.04
2022-11-15 21:20:48.1880,-0.55,2.85,-0.04,2.9
2022-11-15 21:20:48.2030,-0.62,2.63,0.2,2.7
2022-11-15 21:20:48.2040,-0.64,2.37,0.44,2.49
2022-11-15 21:20:48.2190,-0.47,2.04,0.62,2.18
2022-11-15 21:20:48.2200,-0.24,1.63,0.79,1.82
2022-11-15 21:20:48.2770,-0.04,1.19,0.97,1.53
2022-11-15 21:20:48.2780,0.19,0.84,1.18,1.46
2022-11-15 21:20:48.2870,0.4,0.63,1.36,1.55
2022-11-15 21:20:48.2880,0.64,0.51,1.37,1.59
2022-11-15 21:20:48.3040,0.89,0.45,1.24,1.59
2022-11-15 21:20:48.3040,1.06,0.41,1.03,1.53
2022-11-15 21:20:48.3190,1.21,0.45,0.82,1.52
2022-11-15 21:20:48.3200,1.41,0.52,0.68,1.64
2022-11-15 21:20:48.3360,1.45,0.51,0.69,1.68
2022-11-15 21:20:48.3370,1.38,0.36,0.8,1.63
2022-11-15 21:20:48.3940,1.38,0.23,0.82,1.62
2022-11-15 21:20:48.3950,1.35,0.13,0.8,1.57
2022-11-15 21:20:48.4040,1.32,0.03,0.75,1.51
2022-11-15 21:20:48.4050,1.26,-0.08,0.78,1.48
2022-11-15 21:20:48.4200,1.16,-0.16,0.88,1.46
2022-11-15 21:20:48.4210,1.07,-0.29,1.01,1.49
2022-11-15 21:20:48.4360,1.02,-0.34,1.06,1.5
2022-11-15 21:20:48.4370,1.03,-0.15,1.1,1.51
2022-11-15 21:20:48.4530,1.03,0.25,1.15,1.56
2022-11-15 21:20:48.4540,0.72,0.38,1.56,1.75
2022-11-15 21:20:48.5100,-0.27,-0.68,2.43,2.53
2022-11-15 21:20:48.5100,-1.32,-3.07,2.55,4.2
2022-11-15 21:20:48.5210,-0.13,-4.88,0.75,4.93
2022-11-15 21:20:48.5210,3.16,-4.87,-2.05,6.15
2022-11-15 21:20:48.5370,4.52,-4.96,-3.01,7.35
2022-11-15 21:20:48.5380,2.94,-5.74,-1.87,6.71
2022-11-15 21:20:48.5530,1.24,-5.42,-1.21,5.69
2022-11-15 21:20:48.5540,0.1,-3.81,-1.41,4.06
2022-11-15 21:20:48.5700,-1.14,-1.78,-1.42,2.54
2022-11-15 21:20:48.5710,-2.35,-0.42,-1.2,2.67
2022-11-15 21:20:48.6270,-3.26,0.44,-1.31,3.54
2022-11-15 21:20:48.6280,-3.72,1.06,-1.67,4.21
2022-11-15 21:20:48.6380,-3.67,1.37,-1.94,4.37
2022-11-15 21:20:48.6380,-3.27,1.43,-1.92,4.05
2022-11-15 21:20:48.6540,-2.72,1.34,-1.64,3.44
2022-11-15 21:20:48.6550,-2.26,1.19,-1.35,2.88
2022-11-15 21:20:48.6700,-1.84,1.07,-1.33,2.5
2022-11-15 21:20:48.6710,-1.38,1.06,-1.26,2.14
2022-11-15 21:20:48.6860,-0.83,1.15,-1.07,1.77
2022-11-15 21:20:48.6870,-0.38,1.3,-0.87,1.6
2022-11-15 21:20:48.7430,-0.1,1.56,-0.76,1.73
2022-11-15 21:20:48.7440,0.02,1.87,-0.74,2.01
2022-11-15 21:20:48.7540,0.13,1.91,-0.93,2.12
2022-11-15 21:20:48.7550,0.24,1.53,-1.22,1.97
2022-11-15 21:20:48.7700,0.36,0.95,-1.49,1.8
2022-11-15 21:20:48.7710,0.53,0.27,-1.63,1.73
2022-11-15 21:20:48.7860,0.54,-0.25,-1.57,1.67
2022-11-15 21:20:48.7870,0.38,-0.47,-1.45,1.57
2022-11-15 21:20:48.8030,0.07,-0.51,-1.43,1.51
2022-11-15 21:20:48.8040,-0.27,-0.43,-1.48,1.56
2022-11-15 21:20:48.8600,-0.57,-0.3,-1.23,1.38
2022-11-15 21:20:48.8610,-0.73,-0.17,-0.93,1.19
2022-11-15 21:20:48.8710,-0.73,-0.11,-0.63,0.97
2022-11-15 21:20:48.8710,-0.54,-0.07,-0.42,0.68
2022-11-15 21:20:48.8870,-0.17,0.01,-0.29,0.33
2022-11-15 21:20:48.8880,0.13,0.1,-0.12,0.2
2022-11-15 21:20:48.9030,0.45,0.31,-0.03,0.54
2022-11-15 21:20:48.9040,0.75,0.68,0.06,1.01
2022-11-15 21:20:48.9200,0.88,0.98,0.09,1.32
2022-11-15 21:20:48.9200,0.9,1.18,0.08,1.48
2022-11-15 21:20:48.9760,0.91,1.35,0.12,1.63
2022-11-15 21:20:48.9770,0.82,1.24,0.18,1.49
2022-11-15 21:20:48.9880,0.78,1.01,0.2,1.29
2022-11-15 21:20:48.9890,0.72,0.72,0.23,1.04
2022-11-15 21:20:49.0030,0.58,0.37,0.32,0.75
2022-11-15 21:20:49.0030,0.44,0.03,0.4,0.59
2022-11-15 21:20:49.0190,0.23,-0.23,0.38,0.5
2022-11-15 21:20:49.0200,-0.04,-0.36,0.26,0.44
2022-11-15 21:20:49.0370,-0.28,-0.4,0.2,0.52
2022-11-15 21:20:49.0380,-0.4,-0.34,0.23,0.57
2022-11-15 21:20:49.0930,-0.46,-0.14,0.29,0.56
2022-11-15 21:20:49.0940,-0.52,0.16,0.46,0.71
2022-11-15 21:20:49.1040,-0.53,0.47,0.66,0.96
2022-11-15 21:20:49.1050,-0.46,0.66,0.8,1.13
2022-11-15 21:20:49.1190,-0.35,0.7,0.76,1.09
2022-11-15 21:20:49.1200,-0.17,0.66,0.63,0.92
2022-11-15 21:20:49.1360,0.1,0.56,0.55,0.79
2022-11-15 21:20:49.1370,0.37,0.44,0.62,0.84
2022-11-15 21:20:49.1520,0.66,0.28,0.76,1.04
2022-11-15 21:20:49.1530,0.94,-0.05,0.88,1.28
2022-11-15 21:20:49.2080,1.22,-0.55,0.97,1.65
2022-11-15 21:20:49.2090,1.48,-1.05,1.0,2.07
2022-11-15 21:20:49.2220,1.75,-1.3,1.1,2.44
2022-11-15 21:20:49.2230,1.83,-1.61,0.94,2.61
2022-11-15 21:20:49.2360,1.68,-2.1,-0.27,2.7
2022-11-15 21:20:49.2370,1.8,-2.42,-1.2,3.24
2022-11-15 21:20:49.2520,2.2,-2.43,-1.72,3.7
2022-11-15 21:20:49.2520,2.53,-2.38,-1.89,3.95
2022-11-15 21:20:49.2680,2.68,-2.22,-1.91,3.96
2022-11-15 21:20:49.2690,2.6,-2.06,-1.74,3.74
2022-11-15 21:20:49.3250,2.37,-1.9,-1.39,3.34
2022-11-15 21:20:49.3250,2.11,-1.87,-1.04,3.0
2022-11-15 21:20:49.3360,2.06,-2.25,-0.74,3.13
2022-11-15 21:20:49.3370,2.1,-2.83,-0.6,3.57
2022-11-15 21:20:49.3540,2.14,-3.11,-0.7,3.83
2022-11-15 21:20:49.3550,2.1,-2.94,-0.88,3.71
2022-11-15 21:20:49.3700,1.94,-2.42,-1.05,3.27
2022-11-15 21:20:49.3710,1.7,-1.72,-1.28,2.73
2022-11-15 21:20:49.3870,1.37,-0.96,-1.48,2.23
2022-11-15 21:20:49.3880,0.99,-0.05,-1.36,1.68
2022-11-15 21:20:49.4430,0.57,0.43,-1.47,1.63
2022-11-15 21:20:49.4440,0.24,0.73,-1.63,1.8
2022-11-15 21:20:49.4550,-0.08,1.11,-1.4,1.78
2022-11-15 21:20:49.4550,-0.43,1.32,-1.13,1.79
2022-11-15 21:20:49.4700,-0.74,1.37,-0.87,1.78
2022-11-15 21:20:49.4700,-1.04,1.29,-0.72,1.8
2022-11-15 21:20:49.4850,-1.28,1.14,-0.67,1.84
2022-11-15 21:20:49.4860,-1.41,1.0,-0.68,1.85
2022-11-15 21:20:49.5020,-1.39,0.82,-0.85,1.82
2022-11-15 21:20:49.5020,-1.22,0.69,-1.05,1.75
2022-11-15 21:20:49.5570,-1.08,0.65,-1.13,1.69
2022-11-15 21:20:49.5580,-0.75,0.32,-1.14,1.4
2022-11-15 21:20:49.5710,-0.22,-0.09,-1.12,1.14
2022-11-15 21:20:49.5720,0.09,-0.24,-0.94,0.97
2022-11-15 21:20:49.5870,0.06,-0.17,-0.82,0.83
2022-11-15 21:20:49.5880,0.03,-0.02,-1.1,1.1
2022-11-15 21:20:49.6030,0.03,0.11,-1.47,1.47
2022-11-15 21:20:49.6040,-0.04,0.46,-1.55,1.61
2022-11-15 21:20:49.6200,-0.1,0.89,-1.6,1.83
2022-11-15 21:20:49.6210,-0.03,1.24,-1.63,2.04
2022-11-15 21:20:49.6760,0.1,1.54,-1.55,2.18
2022-11-15 21:20:49.6770,0.16,1.74,-1.47,2.28
2022-11-15 21:20:49.6880,0.23,1.87,-1.41,2.35
2022-11-15 21:20:49.6890,0.23,1.9,-1.3,2.31
2022-11-15 21:20:49.7040,0.11,1.83,-1.21,2.19
2022-11-15 21:20:49.7050,-0.01,1.73,-1.09,2.04
2022-11-15 21:20:49.7180,-0.08,1.62,-0.98,1.89
2022-11-15 21:20:49.7190,-0.13,1.42,-0.87,1.67
2022-11-15 21:20:49.7350,-0.02,1.2,-0.71,1.39
2022-11-15 21:20:49.7350,0.17,0.97,-0.57,1.13
2022-11-15 21:20:49.7910,0.33,0.73,-0.42,0.9
2022-11-15 21:20:49.7920,0.5,0.53,-0.21,0.75
2022-11-15 21:20:49.8050,0.67,0.39,-0.06,0.77
2022-11-15 21:20:49.8050,0.71,0.24,0.06,0.75
2022-11-15 21:20:49.8200,0.7,0.13,0.19,0.73
2022-11-15 21:20:49.8210,0.62,0.16,0.18,0.66
2022-11-15 21:20:49.8360,0.49,-0.04,0.17,0.52
2022-11-15 21:20:49.8360,0.49,-0.15,-0.03,0.51
2022-11-15 21:20:49.8520,0.5,-0.14,-0.12,0.53
2022-11-15 21:20:49.8530,0.41,-0.16,-0.02,0.44
2022-11-15 21:20:49.9090,0.3,-0.18,0.13,0.37
2022-11-15 21:20:49.9100,0.25,-0.17,0.3,0.42
2022-11-15 21:20:49.9210,0.32,-0.15,0.49,0.6
2022-11-15 21:20:49.9210,0.46,-0.18,0.66,0.82
2022-11-15 21:20:49.9370,0.71,-0.2,0.79,1.08
2022-11-15 21:20:49.9380,1.03,-0.22,0.86,1.35
2022-11-15 21:20:49.9530,1.29,-0.2,0.86,1.56
2022-11-15 21:20:49.9540,1.56,-0.1,0.83,1.76
2022-11-15 21:20:49.9680,1.86,0.11,0.74,2.0
2022-11-15 21:20:49.9690,2.18,0.46,0.62,2.31
2022-11-15 21:20:50.0250,2.44,0.98,0.4,2.65
2022-11-15 21:20:50.0260,2.55,1.55,0.15,2.98
2022-11-15 21:20:50.0380,2.61,2.08,0.02,3.33
2022-11-15 21:20:50.0380,2.62,2.69,0.04,3.75
2022-11-15 21:20:50.0540,2.49,3.25,0.2,4.09
2022-11-15 21:20:50.0540,1.92,3.48,0.33,3.98
2022-11-15 21:20:50.0700,0.71,2.82,0.37,2.93
2022-11-15 21:20:50.0710,-0.56,1.02,-0.35,1.21
2022-11-15 21:20:50.0850,-0.48,-1.43,-1.92,2.44
2022-11-15 21:20:50.0860,1.69,-3.58,-3.6,5.35
2022-11-15 21:20:50.1420,4.73,-5.42,-3.28,7.9
2022-11-15 21:20:50.1430,5.8,-7.38,-1.48,9.5
2022-11-15 21:20:50.1550,4.72,-8.63,-1.18,9.9
2022-11-15 21:20:50.1560,2.24,-8.72,-2.47,9.33
2022-11-15 21:20:50.1700,-0.76,-6.83,-3.28,7.61
2022-11-15 21:20:50.1710,-2.33,-3.29,-3.54,5.36
2022-11-15 21:20:50.1870,-3.21,-0.77,-3.56,4.85
2022-11-15 21:20:50.1870,-3.69,0.64,-3.1,4.86
2022-11-15 21:20:50.2030,-3.64,1.78,-2.36,4.68
2022-11-15 21:20:50.2040,-3.38,2.61,-1.77,4.62
2022-11-15 21:20:50.2590,-2.99,3.15,-1.62,4.63
2022-11-15 21:20:50.2600,-2.5,3.41,-1.6,4.52
2022-11-15 21:20:50.2710,-2.0,3.41,-1.44,4.2
2022-11-15 21:20:50.2720,-1.49,3.14,-1.14,3.65
2022-11-15 21:20:50.2870,-1.03,2.68,-0.63,2.93
2022-11-15 21:20:50.2880,-0.55,2.24,0.15,2.31
2022-11-15 21:20:50.3030,-0.13,1.8,0.63,1.91
2022-11-15 21:20:50.3040,0.31,1.31,0.56,1.45
2022-11-15 21:20:50.3200,0.67,0.64,0.11,0.93
2022-11-15 21:20:50.3210,0.98,-0.05,-0.51,1.1
2022-11-15 21:20:50.3770,1.28,-0.59,-1.04,1.75
2022-11-15 21:20:50.3780,1.25,-0.99,-1.35,2.08
2022-11-15 21:20:50.3870,0.96,-1.13,-1.35,2.0
2022-11-15 21:20:50.3880,0.68,-1.01,-1.49,1.92
2022-11-15 21:20:50.4030,0.42,-0.71,-1.79,1.97
2022-11-15 21:20:50.4030,0.25,-0.38,-1.93,1.98
2022-11-15 21:20:50.4180,0.14,-0.06,-1.79,1.79
2022-11-15 21:20:50.4190,0.06,0.28,-1.53,1.55
2022-11-15 21:20:50.4350,0.05,0.56,-1.25,1.37
2022-11-15 21:20:50.4350,0.13,0.82,-0.98,1.28
2022-11-15 21:20:50.4900,0.24,1.13,-0.76,1.38
2022-11-15 21:20:50.4910,0.42,1.44,-0.62,1.62
2022-11-15 21:20:50.5010,0.62,1.57,-0.68,1.81
2022-11-15 21:20:50.5020,0.71,1.5,-0.72,1.8
2022-11-15 21:20:50.5210,0.73,1.29,-0.52,1.57
2022-11-15 21:20:50.5210,0.8,1.11,-0.24,1.38
2022-11-15 21:20:50.5360,0.85,0.78,-0.05,1.15
2022-11-15 21:20:50.5360,0.85,0.31,0.0,0.9
2022-11-15 21:20:50.5530,0.84,-0.15,0.12,0.86
2022-11-15 21:20:50.5540,0.79,-0.41,0.29,0.93
2022-11-15 21:20:50.6100,0.67,-0.57,0.42,0.97
2022-11-15 21:20:50.6110,0.53,-0.59,0.46,0.91
2022-11-15 21:20:50.6210,0.38,-0.56,0.47,0.82
2022-11-15 21:20:50.6220,0.22,-0.55,0.51,0.78
2022-11-15 21:20:50.6370,0.05,-0.54,0.66,0.85
2022-11-15 21:20:50.6380,-0.05,-0.45,0.81,0.92
2022-11-15 21:20:50.6530,-0.12,-0.22,0.83,0.86
2022-11-15 21:20:50.6540,-0.17,0.12,0.74,0.76
2022-11-15 21:20:50.6690,-0.17,0.48,0.59,0.77
2022-11-15 21:20:50.6700,-0.17,0.67,0.47,0.83
2022-11-15 21:20:50.7270,-0.27,0.67,0.42,0.83
2022-11-15 21:20:50.7280,-0.43,0.47,0.43,0.76
2022-11-15 21:20:50.7370,-0.58,0.23,0.42,0.75
2022-11-15 21:20:50.7380,-0.59,0.1,0.33,0.68
2022-11-15 21:20:50.7530,-0.55,-0.06,0.28,0.62
2022-11-15 21:20:50.7540,-0.53,-0.35,0.41,0.75
2022-11-15 21:20:50.7690,-0.4,-0.58,0.62,0.93
2022-11-15 21:20:50.7700,-0.19,-0.88,0.96,1.31
2022-11-15 21:20:50.7860,0.24,-1.28,0.96,1.61
2022-11-15 21:20:50.7870,0.86,-1.66,0.39,1.9
2022-11-15 21:20:50.8430,1.3,-2.35,-0.39,2.71
2022-11-15 21:20:50.8440,1.76,-3.33,-1.22,3.95
2022-11-15 21:20:50.8540,2.36,-3.84,-1.74,4.83
2022-11-15 21:20:50.8550,2.88,-3.67,-1.69,4.96
2022-11-15 21:20:50.8700,3.38,-3.15,-1.7,4.92
2022-11-15 21:20:50.8710,3.56,-2.75,-1.68,4.8
2022-11-15 21:20:50.8860,3.52,-2.41,-1.48,4.51
2022-11-15 21:20:50.8870,3.54,-1.98,-1.12,4.2
2022-11-15 21:20:50.9030,3.57,-1.74,-0.56,4.01
2022-11-15 21:20:50.9040,3.55,-1.84,-0.18,4.0
2022-11-15 21:20:50.9590,3.49,-2.09,-0.15,4.07
2022-11-15 21:20:50.9600,3.46,-2.21,-0.5,4.13
2022-11-15 21:20:50.9710,3.37,-1.98,-1.07,4.05
2022-11-15 21:20:50.9720,3.24,-1.32,-1.53,3.81
2022-11-15 21:20:50.9870,3.01,-0.44,-1.8,3.53
2022-11-15 21:20:50.9880,2.49,0.45,-1.93,3.18
2022-11-15 21:20:51.0030,1.88,1.26,-1.82,2.9
2022-11-15 21:20:51.0040,1.36,1.81,-1.56,2.74
2022-11-15 21:20:51.0190,0.93,1.95,-1.4,2.57
2022-11-15 21:20:51.0200,0.62,1.91,-1.23,2.35
2022-11-15 21:20:51.0770,0.47,1.7,-1.08,2.06
2022-11-15 21:20:51.0780,0.51,1.56,-1.09,1.97
2022-11-15 21:20:51.0870,0.53,1.62,-1.22,2.09
2022-11-15 21:20:51.0880,0.51,1.7,-1.36,2.23
2022-11-15 21:20:51.1040,0.53,1.59,-1.49,2.24
2022-11-15 21:20:51.1040,0.69,1.25,-1.67,2.19
2022-11-15 21:20:51.1190,1.03,0.84,-1.87,2.29
2022-11-15 21:20:51.1200,1.52,0.55,-1.94,2.52
2022-11-15 21:20:51.1360,1.82,0.43,-2.01,2.74
2022-11-15 21:20:51.1370,1.7,0.37,-2.11,2.73
2022-11-15 21:20:51.1930,1.39,0.35,-2.15,2.58
2022-11-15 21:20:51.1940,1.0,0.43,-2.13,2.39
2022-11-15 21:20:51.2040,0.67,0.57,-2.07,2.24
2022-11-15 21:20:51.2050,0.44,0.69,-1.97,2.13
2022-11-15 21:20:51.2200,0.21,0.79,-1.8,1.97
2022-11-15 21:20:51.2210,-0.05,0.85,-1.61,1.82
2022-11-15 21:20:51.2360,-0.28,0.89,-1.4,1.68
2022-11-15 21:20:51.2370,-0.5,0.86,-1.18,1.54
2022-11-15 21:20:51.2530,-0.64,0.79,-0.94,1.38
2022-11-15 21:20:51.2540,-0.62,0.78,-0.68,1.2
2022-11-15 21:20:51.3100,-0.55,0.74,-0.52,1.05
2022-11-15 21:20:51.3110,-0.52,0.69,-0.39,0.94
2022-11-15 21:20:51.3210,-0.41,0.64,-0.3,0.81
2022-11-15 21:20:51.3210,-0.27,0.63,-0.28,0.74
2022-11-15 21:20:51.3370,-0.09,0.71,-0.35,0.79
2022-11-15 21:20:51.3380,0.11,0.8,-0.44,0.91
2022-11-15 21:20:51.3530,0.22,0.93,-0.46,1.06
2022-11-15 21:20:51.3530,0.21,0.83,-0.28,0.9
2022-11-15 21:20:51.3690,0.19,0.85,-0.15,0.88
2022-11-15 21:20:51.3700,0.12,0.96,-0.11,0.97
2022-11-15 21:20:51.4260,-0.05,1.01,0.03,1.01
2022-11-15 21:20:51.4270,-0.21,1.07,0.23,1.11
2022-11-15 21:20:51.4370,-0.24,1.18,0.39,1.26
2022-11-15 21:20:51.4380,-0.21,1.31,0.57,1.44
2022-11-15 21:20:51.4530,-0.17,1.36,0.7,1.53
2022-11-15 21:20:51.4540,-0.09,1.39,0.84,1.62
2022-11-15 21:20:51.4690,0.0,1.38,0.98,1.69
2022-11-15 21:20:51.4700,0.18,1.26,1.07,1.66
2022-11-15 21:20:51.4860,0.39,1.02,1.04,1.5
2022-11-15 21:20:51.4870,0.58,0.73,0.86,1.26
2022-11-15 21:20:51.5430,0.79,0.51,0.69,1.16
2022-11-15 21:20:51.5440,1.14,0.42,0.64,1.37
2022-11-15 21:20:51.5540,1.63,0.31,0.77,1.82
2022-11-15 21:20:51.5550,2.17,0.24,1.05,2.42
2022-11-15 21:20:51.5700,2.65,0.42,1.29,2.97
2022-11-15 21:20:51.5710,2.88,0.73,1.35,3.26
2022-11-15 21:20:51.5860,2.75,1.14,1.42,3.29
2022-11-15 21:20:51.5870,2.21,1.33,1.49,2.97
2022-11-15 21:20:51.6030,1.31,0.9,1.58,2.24
2022-11-15 21:20:51.6040,0.09,-0.74,1.55,1.71
2022-11-15 21:20:51.6590,-0.75,-3.93,1.27,4.19
2022-11-15 21:20:51.6600,0.54,-8.48,0.23,8.5
2022-11-15 21:20:51.6710,4.15,-11.91,-1.31,12.68
2022-11-15 21:20:51.6720,6.78,-11.53,-2.34,13.57
2022-11-15 21:20:51.6870,4.76,-10.16,-3.13,11.64
2022-11-15 21:20:51.6880,-0.09,-6.47,-2.85,7.07
2022-11-15 21:20:51.7030,-3.76,-2.62,-2.7,5.31
2022-11-15 21:20:51.7040,-5.75,-0.22,-2.06,6.11
2022-11-15 21:20:51.7190,-6.51,1.69,-1.23,6.83
2022-11-15 21:20:51.7200,-6.51,2.76,-0.98,7.13
2022-11-15 21:20:51.7770,-5.99,3.5,-1.08,7.02
2022-11-15 21:20:51.7770,-5.4,3.82,-1.44,6.76
2022-11-15 21:20:51.7880,-5.09,3.58,-1.21,6.33
2022-11-15 21:20:51.7890,-4.69,3.15,-0.95,5.72
2022-11-15 21:20:51.8040,-4.08,2.59,-0.78,4.89
2022-11-15 21:20:51.8040,-3.28,1.86,-0.62,3.82
2022-11-15 21:20:51.8200,-2.54,1.02,-0.36,2.76
2022-11-15 21:20:51.8200,-1.97,0.39,-0.18,2.01
2022-11-15 21:20:51.8360,-1.62,0.11,-0.38,1.66
2022-11-15 21:20:51.8370,-1.46,-0.06,-0.79,1.66
2022-11-15 21:20:51.8930,-1.35,-0.37,-1.19,1.83
2022-11-15 21:20:51.8940,-1.22,-0.87,-1.5,2.12
2022-11-15 21:20:51.9040,-1.08,-1.45,-1.69,2.47
2022-11-15 21:20:51.9050,-1.05,-2.02,-1.76,2.87
2022-11-15 21:20:51.9200,-1.02,-2.25,-1.83,3.07
2022-11-15 21:20:51.9210,-1.1,-2.02,-2.02,3.06
2022-11-15 21:20:51.9360,-1.42,-1.52,-2.24,3.05
2022-11-15 21:20:51.9370,-1.69,-0.92,-2.08,2.83
2022-11-15 21:20:51.9530,-1.83,-0.33,-1.66,2.49
2022-11-15 21:20:51.9540,-1.75,0.14,-1.28,2.17
2022-11-15 21:20:52.0100,-1.64,0.36,-1.27,2.1
2022-11-15 21:20:52.0100,-1.63,0.55,-1.15,2.06
2022-11-15 21:20:52.0210,-1.64,0.76,-0.95,2.04
2022-11-15 21:20:52.0210,-1.51,0.82,-0.88,1.93
2022-11-15 21:20:52.0370,-1.32,0.76,-0.73,1.68
2022-11-15 21:20:52.0380,-1.02,0.7,-0.64,1.39
2022-11-15 21:20:52.0530,-0.71,0.6,-0.56,1.08
2022-11-15 21:20:52.0530,-0.43,0.46,-0.38,0.73
2022-11-15 21:20:52.0690,-0.2,0.29,-0.18,0.39
2022-11-15 21:20:52.0700,-0.01,0.3,-0.13,0.32
2022-11-15 21:20:52.1270,0.21,0.31,-0.25,0.45
2022-11-15 21:20:52.1280,0.44,0.21,-0.4,0.63
2022-11-15 21:20:52.1370,0.51,0.12,-0.41,0.66
2022-11-15 21:20:52.1380,0.65,0.18,-0.36,0.76
2022-11-15 21:20:52.1530,0.85,0.13,-0.25,0.89
2022-11-15 21:20:52.1540,0.93,0.05,-0.05,0.93
2022-11-15 21:20:52.1700,0.89,-0.09,0.2,0.91
2022-11-15 21:20:52.1710,0.82,-0.23,0.43,0.95
2022-11-15 21:20:52.1860,0.65,-0.23,0.67,0.96
2022-11-15 21:20:52.1870,0.34,-0.13,0.83,0.9
2022-11-15 21:20:52.2430,-0.01,0.0,0.86,0.86
2022-11-15 21:20:52.2430,-0.31,0.17,0.79,0.86
2022-11-15 21:20:52.2540,-0.6,0.38,0.75,1.03
2022-11-15 21:20:52.2550,-0.8,0.56,0.81,1.26
2022-11-15 21:20:52.2700,-0.84,0.63,1.42,1.76
2022-11-15 21:20:52.2710,-0.76,0.44,1.68,1.89
2022-11-15 21:20:52.2860,-0.54,0.29,1.58,1.69
2022-11-15 21:20:52.2870,-0.13,0.19,1.69,1.7
2022-11-15 21:20:52.3030,0.37,-0.02,1.89,1.92
2022-11-15 21:20:52.3040,0.84,-0.31,2.03,2.21
2022-11-15 21:20:52.3590,1.31,-0.59,1.94,2.41
2022-11-15 21:20:52.3600,1.77,-0.75,1.63,2.52
2022-11-15 21:20:52.3710,2.14,-0.79,1.28,2.61
2022-11-15 21:20:52.3720,2.33,-0.74,0.98,2.63
2022-11-15 21:20:52.3870,2.31,-0.63,0.65,2.48
2022-11-15 21:20:52.3880,2.17,-0.63,0.18,2.26
2022-11-15 21:20:52.4030,2.02,-0.83,-0.27,2.2
2022-11-15 21:20:52.4030,1.99,-1.18,-0.53,2.37
2022-11-15 21:20:52.4190,1.77,-1.48,-0.41,2.34
2022-11-15 21:20:52.4200,1.04,-1.75,0.04,2.03
2022-11-15 21:20:52.4760,0.03,-1.91,0.51,1.97
2022-11-15 21:20:52.4770,-0.72,-1.93,0.68,2.16
2022-11-15 21:20:52.4870,-1.1,-1.98,0.61,2.34
2022-11-15 21:20:52.4880,-1.22,-2.14,0.3,2.48
2022-11-15 21:20:52.5040,-1.09,-2.48,-0.06,2.7
2022-11-15 21:20:52.5040,-0.74,-2.81,-0.38,2.93
2022-11-15 21:20:52.5190,-0.47,-2.75,-0.67,2.86
2022-11-15 21:20:52.5200,-0.43,-2.22,-0.99,2.46
2022-11-15 21:20:52.5360,-0.53,-1.42,-1.21,1.93
2022-11-15 21:20:52.5370,-0.63,-0.68,-1.24,1.54
2022-11-15 21:20:52.5940,-0.63,0.03,-1.13,1.29
2022-11-15 21:20:52.5940,-0.62,0.8,-0.99,1.41
2022-11-15 21:20:52.6040,-0.67,1.18,-1.06,1.72
2022-11-15 21:20:52.6040,-0.76,1.26,-0.95,1.75
2022-11-15 21:20:52.6200,-0.86,1.18,-0.67,1.6
2022-11-15 21:20:52.6210,-1.01,0.92,-0.28,1.39
2022-11-15 21:20:52.6360,-1.2,0.47,0.18,1.3
2022-11-15 21:20:52.6370,-1.34,0.02,0.58,1.46
2022-11-15 21:20:52.6530,-1.28,-0.28,0.73,1.49
2022-11-15 21:20:52.6530,-0.97,-0.47,0.54,1.2
2022-11-15 21:20:52.7090,-0.46,-0.76,0.21,0.91
2022-11-15 21:20:52.7100,0.14,-0.93,-0.04,0.94
2022-11-15 21:20:52.7200,0.37,-1.17,-0.33,1.27
2022-11-15 21:20:52.7210,0.33,-1.23,-0.67,1.43
2022-11-15 21:20:52.7370,0.45,-0.98,-1.03,1.49
2022-11-15 21:20:52.7380,0.42,-0.46,-1.5,1.62
2022-11-15 21:20:52.7520,0.22,0.35,-1.8,1.84
2022-11-15 21:20:52.7530,-0.08,1.18,-1.75,2.11
2022-11-15 21:20:52.7700,-0.3,1.88,-1.36,2.33
2022-11-15 21:20:52.7710,-0.38,2.47,-0.83,2.63
2022-11-15 21:20:52.8270,-0.3,2.94,-0.43,2.98
2022-11-15 21:20:52.8280,-0.25,3.23,-0.14,3.24
2022-11-15 21:20:52.8380,-0.36,3.27,0.06,3.29
2022-11-15 21:20:52.8380,-0.53,3.18,0.13,3.22
2022-11-15 21:20:52.8530,-0.59,3.0,0.15,3.06
2022-11-15 21:20:52.8540,-0.53,2.67,0.19,2.72
2022-11-15 21:20:52.8700,-0.56,2.29,0.29,2.37
2022-11-15 21:20:52.8700,-0.58,1.95,0.48,2.09
2022-11-15 21:20:52.8860,-0.38,1.7,0.7,1.87
2022-11-15 21:20:52.8870,-0.11,1.32,0.93,1.61
2022-11-15 21:20:52.9420,0.1,1.0,1.07,1.46
2022-11-15 21:20:52.9430,0.24,0.81,1.26,1.51
2022-11-15 21:20:52.9540,0.35,0.72,1.45,1.65
2022-11-15 21:20:52.9540,0.48,0.77,1.52,1.77
2022-11-15 21:20:52.9700,0.71,0.87,1.45,1.83
2022-11-15 21:20:52.9710,0.92,0.97,1.29,1.85
2022-11-15 21:20:52.9860,1.08,1.11,1.21,1.96
2022-11-15 21:20:52.9870,1.28,1.24,1.31,2.21
2022-11-15 21:20:53.0030,1.44,1.28,1.48,2.42
2022-11-15 21:20:53.0040,1.65,1.21,1.62,2.6
2022-11-15 21:20:53.0600,1.8,1.01,1.8,2.73
2022-11-15 21:20:53.0610,1.96,0.73,1.87,2.8
2022-11-15 21:20:53.0680,2.14,0.43,1.8,2.82
2022-11-15 21:20:53.0690,2.22,0.23,1.67,2.78
2022-11-15 21:20:53.0850,2.12,-0.11,1.53,2.61
2022-11-15 21:20:53.0860,1.88,-0.42,1.45,2.41
2022-11-15 21:20:53.1020,1.69,-0.64,1.46,2.32
2022-11-15 21:20:53.1030,1.38,-0.99,1.49,2.25
2022-11-15 21:20:53.1190,0.81,-1.52,1.73,2.44
2022-11-15 21:20:53.1200,-0.04,-2.7,2.04,3.38
2022-11-15 21:20:53.1750,-0.79,-4.45,2.06,4.96
2022-11-15 21:20:53.1760,-0.16,-5.95,1.45,6.12
2022-11-15 21:20:53.1870,1.83,-6.16,0.29,6.43
2022-11-15 21:20:53.1880,2.52,-5.43,-0.76,6.03
2022-11-15 21:20:53.2040,0.96,-4.57,-1.23,4.82
2022-11-15 21:20:53.2050,-0.8,-3.76,-1.56,4.14
2022-11-15 21:20:53.2200,-1.81,-3.08,-1.82,4.0
2022-11-15 21:20:53.2210,-2.44,-2.28,-1.56,3.68
2022-11-15 21:20:53.2370,-2.74,-0.97,-0.82,3.02
2022-11-15 21:20:53.2370,-2.94,0.29,-0.43,2.98
2022-11-15 21:20:53.2930,-3.02,1.04,-0.69,3.26
2022-11-15 21:20:53.2940,-2.83,1.38,-1.06,3.32
2022-11-15 21:20:53.3040,-2.46,1.42,-1.18,3.07
2022-11-15 21:20:53.3050,-1.96,1.36,-1.13,2.63
2022-11-15 21:20:53.3210,-1.39,1.45,-1.04,2.26
2022-11-15 21:20:53.3210,-0.91,1.63,-1.0,2.11
2022-11-15 21:20:53.3370,-0.58,1.74,-1.09,2.13
2022-11-15 21:20:53.3380,-0.26,1.87,-1.24,2.25
2022-11-15 21:20:53.3530,0.02,2.1,-1.43,2.54
2022-11-15 21:20:53.3540,0.3,2.23,-1.49,2.69
2022-11-15 21:20:53.4090,0.41,2.09,-1.27,2.47
2022-11-15 21:20:53.4100,0.36,1.59,-0.98,1.9
2022-11-15 21:20:53.4200,0.29,0.91,-0.93,1.33
2022-11-15 21:20:53.4210,0.08,0.25,-1.06,1.09
2022-11-15 21:20:53.4370,-0.09,-0.16,-1.32,1.33
2022-11-15 21:20:53.4370,-0.31,-0.33,-1.59,1.65
2022-11-15 21:20:53.4530,-0.64,-0.38,-1.57,1.73
2022-11-15 21:20:53.4530,-0.86,-0.25,-1.42,1.67
2022-11-15 21:20:53.4700,-1.08,0.02,-1.16,1.58
2022-11-15 21:20:53.4700,-1.11,0.31,-0.85,1.43
2022-11-15 21:20:53.5270,-0.92,0.46,-0.67,1.22
2022-11-15 21:20:53.5280,-0.7,0.42,-0.56,0.98
2022-11-15 21:20:53.5370,-0.39,0.34,-0.48,0.7
2022-11-15 21:20:53.5380,-0.08,0.26,-0.32,0.42
2022-11-15 21:20:53.5530,0.21,0.31,-0.08,0.38
2022-11-15 21:20:53.5540,0.61,0.44,0.15,0.76
2022-11-15 21:20:53.5700,0.89,0.6,0.35,1.12
2022-11-15 21:20:53.5700,0.88,0.84,0.52,1.32
2022-11-15 21:20:53.5860,0.89,0.99,0.66,1.48
2022-11-15 21:20:53.5870,0.96,0.95,0.79,1.56
2022-11-15 21:20:53.6420,1.04,0.76,0.85,1.54
2022-11-15 21:20:53.6430,1.18,0.36,0.78,1.45
2022-11-15 21:20:53.6540,1.34,-0.15,0.65,1.49
2022-11-15 21:20:53.6540,1.46,-0.62,0.66,1.71
2022-11-15 21:20:53.6700,1.47,-0.83,0.61,1.79
2022-11-15 21:20:53.6710,1.34,-0.75,0.4,1.58
2022-11-15 21:20:53.6860,1.08,-0.48,0.27,1.21
2022-11-15 21:20:53.6870,0.89,-0.11,0.36,0.96
2022-11-15 21:20:53.7030,0.7,0.21,0.56,0.92
2022-11-15 21:20:53.7040,0.48,0.52,0.79,1.06
2022-11-15 21:20:53.7590,0.29,0.67,0.95,1.19
2022-11-15 21:20:53.7590,0.06,0.73,0.97,1.21
2022-11-15 21:20:53.7710,-0.12,0.74,0.87,1.14
2022-11-15 21:20:53.7710,-0.23,0.67,0.65,0.96
2022-11-15 21:20:53.7870,-0.29,0.52,0.49,0.77
2022-11-15 21:20:53.7870,-0.33,0.37,0.61,0.78
2022-11-15 21:20:53.8030,-0.33,0.15,1.16,1.21
2022-11-15 21:20:53.8040,-0.14,-0.04,0.93,0.94
2022-11-15 21:20:53.8190,0.18,0.03,0.78,0.8
2022-11-15 21:20:53.8200,0.36,0.06,1.11,1.16
2022-11-15 21:20:53.8770,0.48,-0.1,1.15,1.25
2022-11-15 21:20:53.8770,0.64,-0.46,0.72,1.06
2022-11-15 21:20:53.8870,0.9,-1.32,0.05,1.59
2022-11-15 21:20:53.8880,1.42,-2.38,-0.79,2.88
2022-11-15 21:20:53.9030,2.0,-2.94,-1.54,3.87
2022-11-15 21:20:53.9040,1.87,-3.11,-1.9,4.09
2022-11-15 21:20:53.9190,1.54,-3.0,-1.95,3.89
2022-11-15 21:20:53.9200,1.5,-2.5,-1.62,3.33
2022-11-15 21:20:53.9360,1.54,-2.21,-1.23,2.96
2022-11-15 21:20:53.9370,1.61,-2.43,-1.03,3.09
2022-11-15 21:20:53.9920,1.76,-2.95,-1.04,3.58
2022-11-15 21:20:53.9930,1.8,-3.38,-1.11,3.98
2022-11-15 21:20:54.0040,1.69,-3.37,-1.22,3.96
2022-11-15 21:20:54.0050,1.47,-2.79,-1.41,3.45
2022-11-15 21:20:54.0200,1.18,-2.02,-1.55,2.8
2022-11-15 21:20:54.0210,0.91,-1.2,-1.56,2.16
2022-11-15 21:20:54.0360,0.51,-0.48,-1.56,1.71
2022-11-15 21:20:54.0370,0.1,0.13,-1.62,1.62
2022-11-15 21:20:54.0530,-0.24,0.57,-1.75,1.85
2022-11-15 21:20:54.0540,-0.41,1.0,-1.55,1.88
2022-11-15 21:20:54.1100,-0.58,1.26,-1.18,1.82
2022-11-15 21:20:54.1110,-0.8,1.28,-0.83,1.72
2022-11-15 21:20:54.1200,-0.9,1.14,-0.52,1.54
2022-11-15 21:20:54.1210,-1.05,0.93,-0.32,1.43
2022-11-15 21:20:54.1370,-1.17,0.72,-0.29,1.4
2022-11-15 21:20:54.1370,-1.09,0.63,-0.44,1.33
2022-11-15 21:20:54.1520,-0.8,0.63,-0.68,1.22
2022-11-15 21:20:54.1530,-0.58,0.59,-0.84,1.17
2022-11-15 21:20:54.1690,-0.46,0.51,-0.87,1.1
2022-11-15 21:20:54.1700,-0.21,0.36,-0.97,1.05
2022-11-15 21:20:54.2260,0.05,0.26,-1.05,1.08
2022-11-15 21:20:54.2270,0.16,0.06,-1.04,1.05
2022-11-15 21:20:54.2370,0.36,-0.16,-1.27,1.32
2022-11-15 21:20:54.2380,0.57,-0.09,-1.49,1.59
2022-11-15 21:20:54.2530,0.61,0.16,-1.61,1.72
2022-11-15 21:20:54.2540,0.43,0.51,-1.55,1.68
2022-11-15 21:20:54.2700,0.41,0.94,-1.45,1.77
2022-11-15 21:20:54.2700,0.45,1.37,-1.4,2.0
2022-11-15 21:20:54.2860,0.46,1.72,-1.36,2.24
2022-11-15 21:20:54.2870,0.49,1.95,-1.29,2.38
2022-11-15 21:20:54.3440,0.42,2.04,-1.14,2.37
2022-11-15 21:20:54.3450,0.28,2.06,-1.03,2.32
2022-11-15 21:20:54.3530,0.16,1.98,-0.85,2.16
2022-11-15 21:20:54.3530,0.02,1.79,-0.68,1.91
2022-11-15 21:20:54.3700,-0.07,1.55,-0.55,1.64
2022-11-15 21:20:54.3710,-0.07,1.33,-0.38,1.38
2022-11-15 21:20:54.3860,0.03,1.09,-0.22,1.11
2022-11-15 21:20:54.3870,0.11,0.78,-0.03,0.78
2022-11-15 21:20:54.4020,0.17,0.49,0.17,0.54
2022-11-15 21:20:54.4030,0.22,0.25,0.32,0.46
2022-11-15 21:20:54.4580,0.2,0.05,0.41,0.45
2022-11-15 21:20:54.4590,0.19,-0.11,0.39,0.44
2022-11-15 21:20:54.4710,0.2,-0.17,0.36,0.44
2022-11-15 21:20:54.4710,0.22,-0.28,0.4,0.53
2022-11-15 21:20:54.4870,0.29,-0.5,0.45,0.73
2022-11-15 21:20:54.4870,0.42,-0.57,0.45,0.83
2022-11-15 21:20:54.5030,0.53,-0.5,0.54,0.9
2022-11-15 21:20:54.5030,0.53,-0.39,0.68,0.94
2022-11-15 21:20:54.5190,0.55,-0.06,0.71,0.9
2022-11-15 21:20:54.5200,0.52,0.27,0.73,0.93
2022-11-15 21:20:54.5760,0.49,0.49,0.65,0.95
2022-11-15 21:20:54.5770,0.59,0.7,0.55,1.06
2022-11-15 21:20:54.5870,0.82,0.9,0.48,1.3
2022-11-15 21:20:54.5880,1.01,1.03,0.38,1.49
2022-11-15 21:20:54.6040,1.2,1.15,0.22,1.67
2022-11-15 21:20:54.6040,1.35,1.26,-0.05,1.84
2022-11-15 21:20:54.6190,1.51,1.28,-0.24,1.99
2022-11-15 21:20:54.6200,1.72,1.3,-0.35,2.18
2022-11-15 21:20:54.6360,1.85,1.37,-0.37,2.33
2022-11-15 21:20:54.6370,1.89,1.45,-0.42,2.41
2022-11-15 21:20:54.6930,1.86,1.66,-0.47,2.53
2022-11-15 21:20:54.6930,1.71,1.98,-0.45,2.65
2022-11-15 21:20:54.7040,1.48,2.27,-0.3,2.72
2022-11-15 21:20:54.7050,1.13,2.44,0.03,2.68
2022-11-15 21:20:54.7200,0.58,2.2,0.36,2.3
2022-11-15 21:20:54.7210,-0.03,1.38,0.53,1.47
2022-11-15 21:20:54.7360,-0.63,-0.25,0.41,0.79
2022-11-15 21:20:54.7370,-0.66,-2.67,-0.15,2.75
2022-11-15 21:20:54.7530,0.89,-5.09,-1.47,5.37
2022-11-15 21:20:54.7540,2.91,-6.8,-2.84,7.92
2022-11-15 21:20:54.8090,3.39,-7.74,-3.25,9.05
2022-11-15 21:20:54.8100,1.98,-7.82,-2.61,8.47
2022-11-15 21:20:54.8210,-0.27,-6.46,-1.85,6.72
2022-11-15 21:20:54.8210,-2.25,-3.88,-1.24,4.65
2022-11-15 21:20:54.8370,-3.47,-1.36,-0.76,3.8
2022-11-15 21:20:54.8370,-4.21,0.17,-0.74,4.27
2022-11-15 21:20:54.8520,-4.51,1.17,-1.09,4.78
2022-11-15 21:20:54.8530,-4.34,1.98,-1.26,4.93
2022-11-15 21:20:54.8690,-3.88,2.53,-1.09,4.75
2022-11-15 21:20:54.8700,-3.3,2.71,-0.74,4.33
2022-11-15 21:20:54.9250,-2.73,2.5,-0.31,3.71
2022-11-15 21:20:54.9260,-2.16,1.92,0.0,2.88
2022-11-15 21:20:54.9370,-1.52,1.19,0.16,1.93
2022-11-15 21:20:54.9380,-0.77,0.52,0.31,0.97
2022-11-15 21:20:54.9530,0.06,0.06,0.35,0.36
2022-11-15 21:20:54.9540,0.74,-0.08,0.17,0.76
2022-11-15 21:20:54.9690,1.27,-0.01,-0.17,1.28
2022-11-15 21:20:54.9700,1.54,0.12,-0.48,1.61
2022-11-15 21:20:54.9860,1.65,0.25,-0.78,1.84
2022-11-15 21:20:54.9860,1.65,0.34,-1.05,1.98
2022-11-15 21:20:55.0410,1.51,0.25,-1.34,2.03
2022-11-15 21:20:55.0420,1.29,0.04,-1.61,2.06
2022-11-15 21:20:55.0540,1.25,-0.17,-1.76,2.16
2022-11-15 21:20:55.0550,1.33,-0.24,-1.8,2.25
2022-11-15 21:20:55.0700,1.33,-0.28,-1.88,2.31
2022-11-15 21:20:55.0710,1.24,-0.25,-1.88,2.26
2022-11-15 21:20:55.0860,1.15,-0.16,-1.62,1.99
2022-11-15 21:20:55.0860,1.07,-0.02,-1.28,1.66
2022-11-15 21:20:55.1020,0.97,0.06,-0.92,1.33
2022-11-15 21:20:55.1030,0.92,0.14,-0.64,1.12
2022-11-15 21:20:55.1580,0.93,0.27,-0.49,1.08
2022-11-15 21:20:55.1590,0.9,0.4,-0.26,1.01
2022-11-15 21:20:55.1710,0.74,0.53,0.04,0.91
2022-11-15 21:20:55.1720,0.74,0.78,0.17,1.08
2022-11-15 21:20:55.1870,0.69,0.95,0.26,1.2
2022-11-15 21:20:55.1870,0.69,1.04,0.31,1.28
2022-11-15 21:20:55.2020,0.63,1.02,0.34,1.24
2022-11-15 21:20:55.2030,0.59,0.98,0.39,1.2
2022-11-15 21:20:55.2190,0.56,0.85,0.49,1.12
2022-11-15 21:20:55.2200,0.53,0.64,0.52,0.98
2022-11-15 21:20:55.2750,0.53,0.41,0.45,0.8
2022-11-15 21:20:55.2760,0.51,0.15,0.45,0.69
2022-11-15 21:20:55.2870,0.47,-0.12,0.62,0.78
2022-11-15 21:20:55.2880,0.37,-0.36,0.77,0.92
2022-11-15 21:20:55.3030,0.22,-0.55,0.79,0.98
2022-11-15 21:20:55.3040,0.04,-0.7,0.8,1.06
2022-11-15 21:20:55.3190,-0.06,-0.73,0.88,1.14
2022-11-15 21:20:55.3200,-0.07,-0.6,0.97,1.14
2022-11-15 21:20:55.3360,-0.04,-0.41,1.05,1.12
2022-11-15 21:20:55.3370,-0.04,-0.26,1.06,1.09
2022-11-15 21:20:55.3930,-0.07,-0.1,1.1,1.1
2022-11-15 21:20:55.3930,-0.07,0.0,1.05,1.05
2022-11-15 21:20:55.4030,-0.02,0.02,0.84,0.84
2022-11-15 21:20:55.4040,0.01,0.01,0.78,0.78
2022-11-15 21:20:55.4200,0.08,-0.01,0.67,0.67
2022-11-15 21:20:55.4200,0.13,-0.03,0.38,0.4
2022-11-15 21:20:55.4360,0.16,-0.03,0.06,0.17
2022-11-15 21:20:55.4370,0.25,-0.05,-0.17,0.3
2022-11-15 21:20:55.4520,0.4,-0.01,-0.37,0.54
2022-11-15 21:20:55.4530,0.52,0.16,-0.45,0.7
2022-11-15 21:20:55.5080,0.57,0.47,-0.33,0.8
2022-11-15 21:20:55.5090,0.47,0.82,-0.05,0.94
2022-11-15 21:20:55.5200,0.27,0.98,0.21,1.03
2022-11-15 21:20:55.5210,0.08,0.8,0.58,0.99
2022-11-15 21:20:55.5370,0.09,0.09,0.34,0.36
2022-11-15 21:20:55.5370,0.24,-1.14,-0.23,1.18
2022-11-15 21:20:55.5530,0.46,-2.36,-0.45,2.44
2022-11-15 21:20:55.5540,0.71,-3.27,-0.5,3.38
2022-11-15 21:20:55.5690,0.71,-3.87,-0.5,3.96
2022-11-15 21:20:55.5700,0.69,-4.07,-0.54,4.16
2022-11-15 21:20:55.6250,0.89,-3.93,-0.53,4.06
2022-11-15 21:20:55.6260,1.25,-3.63,-0.56,3.87
2022-11-15 21:20:55.6370,1.65,-3.18,-0.63,3.63
2022-11-15 21:20:55.6380,1.96,-2.79,-0.74,3.48
2022-11-15 21:20:55.6530,2.08,-2.53,-0.74,3.35
2022-11-15 21:20:55.6540,2.11,-2.23,-0.7,3.14
2022-11-15 21:20:55.6690,1.91,-1.85,-0.7,2.74
2022-11-15 21:20:55.6700,1.55,-1.35,-0.77,2.19
2022-11-15 21:20:55.6850,1.31,-0.61,-0.93,1.71
2022-11-15 21:20:55.6860,0.98,-0.28,-1.47,1.78
2022-11-15 21:20:55.7410,0.83,0.09,-1.94,2.11
2022-11-15 21:20:55.7410,0.83,0.65,-2.0,2.26
2022-11-15 21:20:55.7540,0.73,1.18,-1.91,2.36
2022-11-15 21:20:55.7550,0.49,1.6,-1.71,2.39
2022-11-15 21:20:55.7700,0.29,1.95,-1.47,2.45
2022-11-15 21:20:55.7710,0.06,2.17,-1.11,2.43
2022-11-15 21:20:55.7860,-0.2,2.16,-0.88,2.34
2022-11-15 21:20:55.7860,-0.37,1.92,-0.66,2.06
2022-11-15 21:20:55.8030,-0.46,1.55,-0.53,1.7
2022-11-15 21:20:55.8040,-0.38,1.25,-0.7,1.48
2022-11-15 21:20:55.8590,-0.1,0.99,-0.95,1.37
2022-11-15 21:20:55.8600,0.16,0.68,-0.99,1.21
2022-11-15 21:20:55.8710,0.29,0.32,-0.97,1.06
2022-11-15 21:20:55.8710,0.42,-0.06,-1.02,1.1
2022-11-15 21:20:55.8860,0.68,-0.4,-1.03,1.29
2022-11-15 21:20:55.8870,0.98,-0.43,-1.1,1.53
2022-11-15 21:20:55.9030,1.14,-0.2,-1.3,1.74
2022-11-15 21:20:55.9030,1.11,0.22,-1.59,1.95
2022-11-15 21:20:55.9190,0.97,0.73,-1.75,2.12
2022-11-15 21:20:55.9200,0.82,1.11,-1.8,2.26
2022-11-15 21:20:55.9740,0.68,1.4,-1.74,2.33
2022-11-15 21:20:55.9750,0.54,1.61,-1.59,2.32
2022-11-15 21:20:55.9870,0.35,1.7,-1.41,2.23
2022-11-15 21:20:55.9880,0.09,1.69,-1.18,2.06
2022-11-15 21:20:56.0030,-0.14,1.59,-0.91,1.83
2022-11-15 21:20:56.0040,-0.33,1.36,-0.67,1.55
2022-11-15 21:20:56.0190,-0.51,1.13,-0.44,1.31
2022-11-15 21:20:56.0200,-0.56,0.91,-0.29,1.1
2022-11-15 21:20:56.0360,-0.53,0.7,-0.17,0.89
2022-11-15 21:20:56.0370,-0.44,0.49,-0.09,0.66
2022-11-15 21:20:56.0920,-0.28,0.29,0.03,0.4
2022-11-15 21:20:56.0930,-0.13,0.13,0.12,0.21
2022-11-15 21:20:56.1040,-0.02,0.01,0.18,0.18
2022-11-15 21:20:56.1040,0.07,-0.02,0.18,0.19
2022-11-15 21:20:56.1200,0.11,0.01,0.06,0.12
2022-11-15 21:20:56.1210,0.14,0.06,-0.09,0.17
2022-11-15 21:20:56.1360,0.2,0.34,-0.2,0.44
2022-11-15 21:20:56.1360,0.18,0.39,-0.13,0.44
2022-11-15 21:20:56.1520,0.21,0.49,-0.14,0.55
2022-11-15 21:20:56.1530,0.21,0.59,-0.06,0.62
2022-11-15 21:20:56.2080,0.21,0.66,0.22,0.72
2022-11-15 21:20:56.2090,0.29,0.81,0.47,0.98
2022-11-15 21:20:56.2200,0.4,0.9,0.64,1.17
2022-11-15 21:20:56.2210,0.44,0.9,0.75,1.25
2022-11-15 21:20:56.2360,0.5,0.84,0.8,1.26
2022-11-15 21:20:56.2370,0.62,0.71,0.82,1.24
2022-11-15 21:20:56.2520,0.84,0.62,0.75,1.28
2022-11-15 21:20:56.2530,1.06,0.51,0.64,1.33
2022-11-15 21:20:56.2690,1.18,0.41,0.53,1.35
2022-11-15 21:20:56.2700,1.25,0.34,0.41,1.35
2022-11-15 21:20:56.3240,1.25,0.3,0.33,1.32
2022-11-15 21:20:56.3240,1.23,0.29,0.31,1.3
2022-11-15 21:20:56.3370,1.2,0.32,0.35,1.29
2022-11-15 21:20:56.3380,1.18,0.44,0.43,1.33
2022-11-15 21:20:56.3530,1.05,0.59,0.53,1.31
2022-11-15 21:20:56.3540,0.78,0.58,0.82,1.27
2022-11-15 21:20:56.3690,0.46,0.35,1.24,1.36
2022-11-15 21:20:56.3700,0.06,-0.2,1.67,1.68
2022-11-15 21:20:56.3860,-0.37,-1.3,2.02,2.43
2022-11-15 21:20:56.3870,-0.49,-2.9,1.92,3.51
2022-11-15 21:20:56.4410,0.41,-4.54,0.83,4.63
2022-11-15 21:20:56.4420,1.99,-5.5,-0.99,5.93
2022-11-15 21:20:56.4540,2.8,-5.64,-2.07,6.62
2022-11-15 21:20:56.4540,2.35,-5.26,-2.0,6.09
2022-11-15 21:20:56.4700,1.06,-4.41,-1.41,4.74
2022-11-15 21:20:56.4710,-0.63,-3.02,-0.76,3.17
2022-11-15 21:20:56.4860,-2.14,-1.37,-0.33,2.56
2022-11-15 21:20:56.4870,-3.05,-0.05,-0.26,3.06
2022-11-15 21:20:56.5020,-3.72,0.75,-0.5,3.82
2022-11-15 21:20:56.5030,-3.98,1.42,-1.18,4.38
2022-11-15 21:20:56.5590,-3.66,1.97,-1.53,4.42
2022-11-15 21:20:56.5600,-3.03,2.12,-1.21,3.89
2022-11-15 21:20:56.5710,-2.46,1.91,-0.66,3.18
2022-11-15 21:20:56.5710,-1.93,1.5,-0.35,2.46
2022-11-15 21:20:56.5860,-1.3,0.94,-0.36,1.64
2022-11-15 21:20:56.5870,-0.58,0.37,-0.45,0.82
2022-11-15 21:20:56.6030,0.08,-0.15,-0.48,0.5
2022-11-15 21:20:56.6030,0.63,-0.46,-0.39,0.87
2022-11-15 21:20:56.6190,1.02,-0.45,-0.39,1.18
2022-11-15 21:20:56.6200,1.1,-0.15,-0.57,1.24
2022-11-15 21:20:56.6750,0.95,0.34,-0.89,1.34
2022-11-15 21:20:56.6760,0.64,0.78,-1.23,1.59
2022-11-15 21:20:56.6870,0.47,1.15,-1.56,1.99
2022-11-15 21:20:56.6880,0.25,1.36,-1.73,2.21
2022-11-15 21:20:56.7030,0.02,1.29,-1.71,2.14
2022-11-15 21:20:56.7040,-0.04,1.15,-1.64,2.0
2022-11-15 21:20:56.7190,0.02,0.89,-1.54,1.77
2022-11-15 21:20:56.7200,0.12,0.63,-1.24,1.39
2022-11-15 21:20:56.7360,0.17,0.4,-1.06,1.14
2022-11-15 21:20:56.7370,0.14,0.0,-1.07,1.07
2022-11-15 21:20:56.7920,0.14,-0.42,-1.17,1.25
2022-11-15 21:20:56.7930,0.05,-0.69,-1.15,1.34
2022-11-15 21:20:56.8040,-0.14,-0.77,-0.95,1.23
2022-11-15 21:20:56.8040,-0.29,-0.64,-0.69,0.98
2022-11-15 21:20:56.8200,-0.31,-0.53,-0.58,0.84
2022-11-15 21:20:56.8210,-0.18,-0.48,-0.53,0.73
2022-11-15 21:20:56.8360,-0.07,-0.35,-0.45,0.57
2022-11-15 21:20:56.8370,-0.04,-0.27,-0.34,0.43
2022-11-15 21:20:56.8520,-0.08,-0.21,-0.16,0.27
2022-11-15 21:20:56.8530,-0.06,-0.01,-0.06,0.08
2022-11-15 21:20:56.9080,0.13,0.3,0.0,0.32
2022-11-15 21:20:56.9090,0.29,0.51,0.06,0.58
2022-11-15 21:20:56.9200,0.41,0.61,0.12,0.74
2022-11-15 21:20:56.9210,0.51,0.76,0.19,0.93
2022-11-15 21:20:56.9370,0.69,0.84,0.22,1.1
2022-11-15 21:20:56.9370,0.7,0.73,0.13,1.01
2022-11-15 21:20:56.9520,0.62,0.51,0.01,0.8
2022-11-15 21:20:56.9530,0.55,0.34,-0.07,0.65
2022-11-15 21:20:56.9690,0.44,0.19,-0.06,0.48
2022-11-15 21:20:56.9700,0.27,0.09,0.04,0.28
2022-11-15 21:20:57.0260,0.13,0.0,0.14,0.19
2022-11-15 21:20:57.0260,0.01,-0.05,0.18,0.18
2022-11-15 21:20:57.0370,-0.1,-0.05,0.19,0.22
2022-11-15 21:20:57.0380,-0.2,0.01,0.23,0.3
2022-11-15 21:20:57.0530,-0.3,0.15,0.32,0.46
2022-11-15 21:20:57.0540,-0.26,0.27,0.47,0.6
2022-11-15 21:20:57.0690,-0.16,0.37,0.68,0.79
2022-11-15 21:20:57.0700,-0.07,0.41,0.89,0.98
2022-11-15 21:20:57.0850,-0.02,0.31,1.08,1.12
2022-11-15 21:20:57.0860,0.04,0.14,1.13,1.13
2022-11-15 21:20:57.1400,0.12,-0.01,1.08,1.08
2022-11-15 21:20:57.1410,0.15,-0.2,0.96,0.99
2022-11-15 21:20:57.1540,0.12,-0.35,0.83,0.9
2022-11-15 21:20:57.1540,0.11,-0.41,0.68,0.8
2022-11-15 21:20:57.1700,0.13,-0.35,0.53,0.64
2022-11-15 21:20:57.1710,0.17,-0.21,0.53,0.59
2022-11-15 21:20:57.1860,0.14,-0.16,0.87,0.89
2022-11-15 21:20:57.1860,0.11,-0.22,0.72,0.76
2022-11-15 21:20:57.2020,0.12,-0.27,0.64,0.7
2022-11-15 21:20:57.2030,0.15,-0.28,0.54,0.62
2022-11-15 21:20:57.2570,0.32,-0.34,0.22,0.51
2022-11-15 21:20:57.2580,0.55,-0.6,-0.07,0.81
2022-11-15 21:20:57.2710,0.77,-1.04,-0.41,1.35
2022-11-15 21:20:57.2710,1.13,-1.48,-0.64,1.96
2022-11-15 21:20:57.2870,1.5,-1.74,-0.65,2.38
2022-11-15 21:20:57.2870,1.72,-1.7,-0.5,2.46
2022-11-15 21:20:57.3020,1.81,-1.36,-0.3,2.28
2022-11-15 21:20:57.3030,2.02,-0.95,-0.19,2.24
2022-11-15 21:20:57.3190,2.28,-0.7,-0.18,2.39
2022-11-15 21:20:57.3200,2.39,-0.74,-0.18,2.5
2022-11-15 21:20:57.3730,2.36,-0.95,-0.18,2.55
2022-11-15 21:20:57.3740,2.19,-1.23,-0.27,2.52
2022-11-15 21:20:57.3870,1.93,-1.42,-0.47,2.44
2022-11-15 21:20:57.3880,1.71,-1.51,-0.71,2.38
2022-11-15 21:20:57.4030,1.61,-1.57,-0.94,2.43
2022-11-15 21:20:57.4040,1.61,-1.63,-1.0,2.49
2022-11-15 21:20:57.4190,1.65,-1.6,-0.94,2.48
2022-11-15 21:20:57.4200,1.69,-1.29,-0.57,2.2
2022-11-15 21:20:57.4360,1.51,-1.08,-0.21,1.86
2022-11-15 21:20:57.4370,1.44,-1.13,-0.38,1.86
2022-11-15 21:20:57.4900,1.47,-0.96,-0.17,1.76
2022-11-15 21:20:57.4910,1.36,-0.75,-0.24,1.57
2022-11-15 21:20:57.5040,1.23,-0.46,-0.45,1.38
2022-11-15 21:20:57.5040,1.11,-0.01,-0.8,1.36
2022-11-15 21:20:57.5200,0.98,0.66,-1.02,1.56
2022-11-15 21:20:57.5200,0.8,1.25,-1.12,1.85
2022-11-15 21:20:57.5360,0.65,1.73,-1.19,2.19
2022-11-15 21:20:57.5370,0.54,1.95,-1.2,2.35
2022-11-15 21:20:57.5520,0.35,1.94,-1.13,2.27
2022-11-15 21:20:57.5530,0.24,1.87,-1.2,2.23
2022-11-15 21:20:57.6070,0.22,1.67,-1.31,2.13
2022-11-15 21:20:57.6080,0.09,1.45,-1.28,1.93
2022-11-15 21:20:57.6210,0.05,1.23,-1.27,1.76
2022-11-15 21:20:57.6210,0.04,0.89,-1.17,1.47
2022-11-15 21:20:57.6370,-0.04,0.42,-1.01,1.09
2022-11-15 21:20:57.6370,0.14,0.0,-0.8,0.81
2022-11-15 21:20:57.6520,0.54,-0.23,-0.72,0.92
2022-11-15 21:20:57.6530,0.92,-0.22,-0.74,1.2
2022-11-15 21:20:57.6690,1.16,-0.04,-0.87,1.45
2022-11-15 21:20:57.6700,1.29,0.23,-1.05,1.67
2022-11-15 21:20:57.7250,1.29,0.57,-1.23,1.87
2022-11-15 21:20:57.7250,1.22,0.98,-1.37,2.07
2022-11-15 21:20:57.7370,1.13,1.34,-1.44,2.26
2022-11-15 21:20:57.7380,1.02,1.55,-1.37,2.3
2022-11-15 21:20:57.7530,0.93,1.62,-1.17,2.2
2022-11-15 21:20:57.7540,0.82,1.53,-0.97,1.98
2022-11-15 21:20:57.7690,0.72,1.36,-0.8,1.73
2022-11-15 21:20:57.7700,0.62,1.18,-0.64,1.47
2022-11-15 21:20:57.7860,0.54,0.94,-0.48,1.18
2022-11-15 21:20:57.7870,0.5,0.68,-0.33,0.9
2022-11-15 21:20:57.8420,0.46,0.38,-0.19,0.62
2022-11-15 21:20:57.8420,0.46,0.16,-0.08,0.49
2022-11-15 21:20:57.8540,0.48,0.04,0.0,0.48
2022-11-15 21:20:57.8550,0.46,0.0,0.02,0.46
2022-11-15 21:20:57.8700,0.37,0.12,0.24,0.45
2022-11-15 21:20:57.8710,0.36,-0.07,0.51,0.62
2022-11-15 21:20:57.8860,0.44,-0.18,0.43,0.64
2022-11-15 21:20:57.8860,0.51,-0.21,0.32,0.63
2022-11-15 21:20:57.9020,0.72,-0.06,0.09,0.72
2022-11-15 21:20:57.9030,0.82,0.12,-0.16,0.84
2022-11-15 21:20:57.9560,0.77,0.28,-0.37,0.89
2022-11-15 21:20:57.9570,0.66,0.63,-0.39,0.99
2022-11-15 21:20:57.9700,0.48,1.03,-0.18,1.15
2022-11-15 21:20:57.9710,0.32,1.33,-0.09,1.37
2022-11-15 21:20:57.9870,0.14,1.55,0.05,1.55
2022-11-15 21:20:57.9880,-0.08,1.62,0.28,1.64
2022-11-15 21:20:58.0020,-0.21,1.58,0.56,1.68
2022-11-15 21:20:58.0030,-0.17,1.5,0.88,1.74
2022-11-15 21:20:58.0190,0.0,1.34,1.02,1.68
2022-11-15 21:20:58.0200,0.19,1.12,1.06,1.55
2022-11-15 21:20:58.0740,0.42,0.87,1.05,1.42
2022-11-15 21:20:58.0750,0.76,0.71,1.12,1.52
2022-11-15 21:20:58.0870,1.12,0.61,1.27,1.79
2022-11-15 21:20:58.0880,1.45,0.63,1.43,2.13
2022-11-15 21:20:58.1030,1.64,0.77,1.55,2.38
2022-11-15 21:20:58.1040,1.38,1.0,1.43,2.22
2022-11-15 21:20:58.1190,1.29,0.63,1.3,1.93
2022-11-15 21:20:58.1200,1.36,0.03,1.59,2.09
2022-11-15 21:20:58.1360,0.51,-1.41,1.62,2.2
2022-11-15 21:20:58.1370,-0.13,-3.86,1.33,4.08
2022-11-15 21:20:58.1910,1.12,-6.43,0.31,6.53
2022-11-15 21:20:58.1910,4.16,-7.63,-1.39,8.8
2022-11-15 21:20:58.2040,5.86,-7.59,-2.2,9.83
2022-11-15 21:20:58.2050,4.19,-7.31,-2.17,8.7
2022-11-15 21:20:58.2200,0.38,-6.21,-2.32,6.64
2022-11-15 21:20:58.2200,-3.18,-4.25,-2.49,5.86
2022-11-15 21:20:58.2360,-4.99,-2.22,-2.11,5.85
2022-11-15 21:20:58.2370,-5.5,-0.09,-1.41,5.67
2022-11-15 21:20:58.2520,-5.84,1.42,-1.32,6.15
2022-11-15 21:20:58.2530,-5.7,2.25,-1.74,6.37
2022-11-15 21:20:58.3070,-5.08,2.72,-1.61,5.98
2022-11-15 21:20:58.3070,-4.45,2.93,-0.87,5.39
2022-11-15 21:20:58.3200,-3.79,2.9,-0.26,4.77
2022-11-15 21:20:58.3210,-3.12,2.65,-0.06,4.09
2022-11-15 21:20:58.3360,-2.48,2.12,-0.05,3.26
2022-11-15 21:20:58.3370,-1.75,1.45,-0.15,2.27
2022-11-15 21:20:58.3520,-1.05,0.87,-0.22,1.38
2022-11-15 21:20:58.3530,-0.56,0.59,-0.32,0.87
2022-11-15 21:20:58.3690,-0.36,0.5,-0.46,0.76
2022-11-15 21:20:58.3700,-0.36,0.3,-0.57,0.73
2022-11-15 21:20:58.4250,-0.32,-0.09,-0.78,0.84
2022-11-15 21:20:58.4260,-0.31,-0.66,-1.06,1.28
2022-11-15 21:20:58.4370,-0.39,-1.24,-1.41,1.91
2022-11-15 21:20:58.4380,-0.62,-1.76,-1.65,2.49
2022-11-15 21:20:58.4530,-0.85,-1.96,-1.65,2.69
2022-11-15 21:20:58.4530,-1.0,-1.7,-1.73,2.62
2022-11-15 21:20:58.4690,-1.16,-1.3,-1.86,2.54
2022-11-15 21:20:58.4700,-1.33,-0.86,-1.6,2.25
2022-11-15 21:20:58.4860,-1.34,-0.37,-1.25,1.86
2022-11-15 21:20:58.4860,-1.22,0.05,-1.04,1.6
2022-11-15 21:20:58.5400,-1.1,0.3,-0.98,1.5
2022-11-15 21:20:58.5410,-1.01,0.49,-0.72,1.33
2022-11-15 21:20:58.5540,-0.87,0.46,-0.63,1.16
2022-11-15 21:20:58.5540,-0.58,0.5,-0.57,0.95
2022-11-15 21:20:58.5700,-0.19,0.61,-0.55,0.84
2022-11-15 21:20:58.5710,0.09,0.69,-0.44,0.82
2022-11-15 21:20:58.5850,0.23,0.63,-0.49,0.83
2022-11-15 21:20:58.5860,0.39,0.57,-0.58,0.9
2022-11-15 21:20:58.6020,0.49,0.37,-0.61,0.86
2022-11-15 21:20:58.6030,0.57,0.23,-0.58,0.84
2022-11-15 21:20:58.6580,0.79,0.02,-0.57,0.97
2022-11-15 21:20:58.6590,0.92,-0.25,-0.58,1.11
2022-11-15 21:20:58.6710,0.96,-0.37,-0.46,1.12
2022-11-15 21:20:58.6710,0.9,-0.5,-0.28,1.06
2022-11-15 21:20:58.6860,0.8,-0.54,-0.06,0.96
2022-11-15 21:20:58.6870,0.68,-0.45,0.06,0.81
2022-11-15 21:20:58.7020,0.6,-0.31,0.3,0.73
2022-11-15 21:20:58.7030,0.53,-0.2,0.63,0.84
2022-11-15 21:20:58.7190,0.43,-0.09,0.89,0.99
2022-11-15 21:20:58.7200,0.2,-0.03,1.06,1.07
2022-11-15 21:20:58.7730,-0.06,0.02,1.27,1.27
2022-11-15 21:20:58.7740,-0.29,0.11,1.36,1.39
2022-11-15 21:20:58.7870,-0.54,0.21,1.26,1.38
2022-11-15 21:20:58.7880,-0.73,0.41,1.11,1.39
2022-11-15 21:20:58.8030,-0.83,0.69,0.92,1.41
2022-11-15 21:20:58.8040,-0.89,0.96,0.79,1.52
2022-11-15 21:20:58.8190,-0.89,1.09,0.78,1.6
2022-11-15 21:20:58.8200,-0.85,1.06,0.9,1.62
2022-11-15 21:20:58.8360,-0.76,0.92,1.09,1.61
2022-11-15 21:20:58.8370,-0.72,0.58,1.29,1.58
2022-11-15 21:20:58.8910,-0.71,0.05,1.33,1.5
2022-11-15 21:20:58.8910,-0.75,-0.57,1.37,1.66
2022-11-15 21:20:58.9040,-0.59,-1.11,1.29,1.8
2022-11-15 21:20:58.9040,-0.38,-1.47,1.01,1.82
2022-11-15 21:20:58.9200,-0.24,-1.69,0.6,1.8
2022-11-15 21:20:58.9200,-0.04,-1.76,0.1,1.76
2022-11-15 21:20:58.9360,0.2,-1.7,-0.25,1.72
2022-11-15 21:20:58.9360,0.47,-1.57,-0.37,1.68
2022-11-15 21:20:58.9520,0.68,-1.51,-0.19,1.66
2022-11-15 21:20:58.9530,0.75,-1.59,0.2,1.76
2022-11-15 21:20:59.0090,0.74,-1.61,0.46,1.83
2022-11-15 21:20:59.0090,0.76,-1.59,0.46,1.82
2022-11-15 21:20:59.0200,0.93,-1.48,0.25,1.76
2022-11-15 21:20:59.0210,1.23,-1.53,-0.05,1.96
2022-11-15 21:20:59.0360,1.67,-1.61,-0.27,2.33
2022-11-15 21:20:59.0370,2.01,-1.59,-0.42,2.59
2022-11-15 21:20:59.0530,2.17,-1.6,-0.64,2.77
2022-11-15 21:20:59.0530,2.18,-1.41,-0.87,2.73
2022-11-15 21:20:59.0690,2.0,-1.02,-0.92,2.42
2022-11-15 21:20:59.0700,1.62,-0.72,-1.09,2.08
2022-11-15 21:20:59.1230,1.24,-0.55,-1.49,2.01
2022-11-15 21:20:59.1240,0.94,-0.16,-1.6,1.86
2022-11-15 21:20:59.1370,0.64,0.26,-1.58,1.72
2022-11-15 21:20:59.1380,0.31,0.6,-1.65,1.78
2022-11-15 21:20:59.1530,-0.01,0.93,-1.64,1.88
2022-11-15 21:20:59.1540,-0.37,1.18,-1.53,1.96
2022-11-15 21:20:59.1690,-0.75,1.38,-1.31,2.04
2022-11-15 21:20:59.1700,-1.17,1.4,-1.02,2.09
2022-11-15 21:20:59.1850,-1.54,1.22,-0.69,2.08
2022-11-15 21:20:59.1860,-1.9,0.96,-0.34,2.15
2022-11-15 21:20:59.2400,-2.18,0.57,-0.08,2.25
2022-11-15 21:20:59.2400,-2.3,0.12,0.06,2.3
2022-11-15 21:20:59.2540,-2.29,-0.28,0.11,2.3
2022-11-15 21:20:59.2540,-2.06,-0.58,0.16,2.14
2022-11-15 21:20:59.2700,-1.76,-0.68,0.16,1.89
2022-11-15 21:20:59.2700,-1.54,-0.52,-0.04,1.62
2022-11-15 21:20:59.2860,-1.36,-0.5,-0.25,1.47
2022-11-15 21:20:59.2860,-1.12,-0.63,-0.23,1.3
2022-11-15 21:20:59.3020,-0.72,-0.3,-0.24,0.81
2022-11-15 21:20:59.3030,-0.66,0.18,-0.27,0.73
2022-11-15 21:20:59.3590,-0.75,0.58,-0.26,0.98
2022-11-15 21:20:59.3590,-0.69,1.05,-0.24,1.27
2022-11-15 21:20:59.3700,-0.57,1.46,-0.16,1.57
2022-11-15 21:20:59.3710,-0.43,1.74,-0.03,1.79
2022-11-15 21:20:59.3860,-0.37,1.9,0.08,1.93
2022-11-15 21:20:59.3870,-0.31,1.95,0.21,1.98
2022-11-15 21:20:59.4020,-0.27,2.04,0.28,2.07
2022-11-15 21:20:59.4030,-0.16,2.02,0.26,2.04
2022-11-15 21:20:59.4190,-0.04,1.88,0.32,1.9
2022-11-15 21:20:59.4200,0.13,1.83,0.4,1.87
2022-11-15 21:20:59.4730,0.32,1.82,0.58,1.93
2022-11-15 21:20:59.4740,0.51,1.9,0.86,2.14
2022-11-15 21:20:59.4870,0.63,2.05,1.09,2.4
2022-11-15 21:20:59.4880,0.65,2.17,1.18,2.55
2022-11-15 21:20:59.5030,0.57,2.2,1.09,2.52
2022-11-15 21:20:59.5040,0.47,2.05,0.95,2.3
2022-11-15 21:20:59.5190,0.54,1.82,0.77,2.04
2022-11-15 21:20:59.5200,0.66,1.62,0.6,1.84
2022-11-15 21:20:59.5350,0.71,1.39,0.53,1.64
2022-11-15 21:20:59.5360,0.8,1.11,0.67,1.52
2022-11-15 21:20:59.5900,0.77,0.68,0.97,1.41
2022-11-15 21:20:59.5910,0.37,-0.1,1.52,1.56
2022-11-15 21:20:59.6040,-0.15,-1.13,2.22,2.49
2022-11-15 21:20:59.6050,-0.54,-2.35,2.42,3.41
2022-11-15 21:20:59.6200,-0.78,-3.74,1.47,4.09
2022-11-15 21:20:59.6200,-0.86,-5.14,-0.46,5.23
2022-11-15 21:20:59.6360,-0.49,-5.6,-2.36,6.09
2022-11-15 21:20:59.6370,0.11,-4.74,-3.02,5.62
2022-11-15 21:20:59.6520,0.16,-3.95,-2.33,4.58
2022-11-15 21:20:59.6530,0.17,-3.41,-1.72,3.82
2022-11-15 21:20:59.7060,0.68,-2.38,-1.7,3.0
2022-11-15 21:20:59.7070,1.03,-1.26,-1.86,2.47
2022-11-15 21:20:59.7200,1.03,-0.41,-1.83,2.13
2022-11-15 21:20:59.7210,1.02,0.3,-1.51,1.84
2022-11-15 21:20:59.7360,1.05,0.93,-1.14,1.8
2022-11-15 21:20:59.7370,0.95,1.27,-0.91,1.82
2022-11-15 21:20:59.7520,0.79,1.53,-0.94,1.96
2022-11-15 21:20:59.7530,0.52,1.86,-1.08,2.21
2022-11-15 21:20:59.7690,0.12,2.15,-1.24,2.48
2022-11-15 21:20:59.7700,-0.41,2.21,-1.28,2.58
2022-11-15 21:20:59.8230,-0.88,2.07,-1.2,2.54
2022-11-15 21:20:59.8240,-1.07,1.84,-1.21,2.44
2022-11-15 21:20:59.8370,-1.05,1.53,-1.05,2.13
2022-11-15 21:20:59.8380,-0.93,1.08,-0.81,1.63
2022-11-15 21:20:59.8530,-0.76,0.47,-0.73,1.15
2022-11-15 21:20:59.8540,-0.67,-0.04,-0.7,0.96
2022-11-15 21:20:59.8690,-0.72,-0.39,-0.63,1.03
2022-11-15 21:20:59.8700,-0.89,-0.66,-0.57,1.24
2022-11-15 21:20:59.8850,-1.04,-0.73,-0.47,1.35
2022-11-15 21:20:59.8860,-1.07,-0.58,-0.45,1.29
2022-11-15 21:20:59.9400,-1.12,-0.45,-0.52,1.31
2022-11-15 21:20:59.9410,-1.07,-0.35,-0.55,1.25
2022-11-15 21:20:59.9540,-0.9,-0.19,-0.47,1.03
2022-11-15 21:20:59.9540,-0.59,0.02,-0.33,0.67
2022-11-15 21:20:59.9700,-0.24,0.17,-0.14,0.32
2022-11-15 21:20:59.9710,0.02,0.16,0.0,0.16
2022-11-15 21:20:59.9850,0.17,0.03,0.08,0.19
2022-11-15 21:20:59.9860,0.3,-0.09,0.19,0.36
2022-11-15 21:21:00.0010,0.49,-0.15,0.33,0.6
2022-11-15 21:21:00.0020,0.82,-0.13,0.52,0.97
2022-11-15 21:21:00.0550,1.07,-0.11,0.75,1.31
2022-11-15 21:21:00.0550,1.26,-0.08,0.83,1.51
2022-11-15 21:21:00.0720,1.46,0.02,0.68,1.61
2022-11-15 21:21:00.0730,1.41,0.19,0.51,1.51
2022-11-15 21:21:00.0860,1.16,0.37,0.3,1.25
2022-11-15 21:21:00.0870,0.92,0.43,0.03,1.01
2022-11-15 21:21:00.1020,0.69,0.4,-0.08,0.8
2022-11-15 21:21:00.1030,0.43,0.41,-0.06,0.59
2022-11-15 21:21:00.1190,0.2,0.45,0.05,0.49
2022-11-15 21:21:00.1200,0.08,0.51,0.24,0.56
2022-11-15 21:21:00.1740,0.11,0.54,0.48,0.73
2022-11-15 21:21:00.1740,0.15,0.5,0.73,0.89
2022-11-15 21:21:00.1870,0.14,0.39,0.93,1.01
2022-11-15 21:21:00.1880,0.11,0.22,1.0,1.02
2022-11-15 21:21:00.2030,0.12,0.06,0.97,0.97
2022-11-15 21:21:00.2040,0.14,-0.17,0.97,0.99
2022-11-15 21:21:00.2190,0.18,-0.46,0.96,1.07
2022-11-15 21:21:00.2190,0.32,-0.65,0.98,1.21
2022-11-15 21:21:00.2350,0.57,-0.66,0.98,1.31
2022-11-15 21:21:00.2360,0.88,-0.55,0.91,1.38
2022-11-15 21:21:00.2900,1.16,-0.39,0.79,1.45
2022-11-15 21:21:00.2900,1.37,-0.22,0.75,1.57
2022-11-15 21:21:00.3040,1.51,-0.11,0.71,1.67
2022-11-15 21:21:00.3040,1.6,-0.01,0.58,1.7
2022-11-15 21:21:00.3200,1.63,0.07,0.42,1.68
2022-11-15 21:21:00.3200,1.61,0.12,0.19,1.62
2022-11-15 21:21:00.3360,1.51,0.06,-0.14,1.51
2022-11-15 21:21:00.3370,1.35,-0.13,-0.58,1.47
2022-11-15 21:21:00.3520,1.23,-0.37,-0.98,1.61
2022-11-15 21:21:00.3530,1.21,-0.62,-1.17,1.79
2022-11-15 21:21:00.4070,1.16,-0.72,-1.02,1.7
2022-11-15 21:21:00.4070,0.96,-0.75,-0.72,1.41
2022-11-15 21:21:00.4200,0.82,-0.68,-0.39,1.13
2022-11-15 21:21:00.4210,0.82,-0.47,-0.17,0.96
2022-11-15 21:21:00.4360,0.91,-0.22,0.04,0.93
2022-11-15 21:21:00.4370,1.16,-0.16,0.32,1.21
2022-11-15 21:21:00.4520,1.44,-0.34,0.63,1.6
2022-11-15 21:21:00.4530,1.57,-0.81,0.81,1.94
2022-11-15 21:21:00.4690,1.52,-1.42,0.83,2.23
2022-11-15 21:21:00.4700,1.38,-2.06,0.67,2.56
2022-11-15 21:21:00.5230,1.22,-2.45,0.35,2.75
2022-11-15 21:21:00.5240,0.98,-2.39,-0.1,2.58
2022-11-15 21:21:00.5370,0.62,-2.11,-0.49,2.25
2022-11-15 21:21:00.5380,0.23,-1.79,-0.68,1.92
2022-11-15 21:21:00.5530,-0.14,-1.48,-0.8,1.68
2022-11-15 21:21:00.5540,-0.52,-1.24,-0.96,1.65
2022-11-15 21:21:00.5690,-0.84,-1.0,-1.12,1.72
2022-11-15 21:21:00.5700,-1.08,-0.78,-1.3,1.86
2022-11-15 21:21:00.5850,-1.19,-0.47,-1.24,1.78
2022-11-15 21:21:00.5860,-1.3,-0.2,-0.92,1.6
2022-11-15 21:21:00.6400,-1.5,-0.1,-0.5,1.58
2022-11-15 21:21:00.6410,-1.78,-0.19,-0.02,1.79
2022-11-15 21:21:00.6530,-2.16,-0.3,0.4,2.21
2022-11-15 21:21:00.6540,-2.52,-0.52,0.59,2.63
2022-11-15 21:21:00.6700,-2.82,-0.55,0.61,2.93
2022-11-15 21:21:00.6710,-2.87,-0.26,0.43,2.91
2022-11-15 21:21:00.6850,-2.37,-0.17,0.12,2.37
2022-11-15 21:21:00.6860,-1.78,-0.32,-0.08,1.81
2022-11-15 21:21:00.7020,-1.61,-0.5,-0.01,1.68
2022-11-15 21:21:00.7030,-1.29,-0.67,0.12,1.45
2022-11-15 21:21:00.7570,-0.68,-0.72,0.01,0.99
2022-11-15 21:21:00.7580,-0.13,-0.65,-0.29,0.72
2022-11-15 21:21:00.7700,0.36,-0.53,-0.69,0.94
2022-11-15 21:21:00.7710,0.73,-0.35,-0.98,1.27
2022-11-15 21:21:00.7860,0.93,-0.08,-1.14,1.47
2022-11-15 21:21:00.7870,1.0,0.36,-1.13,1.55
2022-11-15 21:21:00.8020,0.83,0.77,-1.02,1.52
2022-11-15 21:21:00.8030,0.18,1.15,-1.03,1.55
2022-11-15 21:21:00.8190,-0.52,1.46,-1.11,1.9
2022-11-15 21:21:00.8200,-0.92,1.65,-1.09,2.18
2022-11-15 21:21:00.8750,-1.15,1.76,-0.95,2.3
2022-11-15 21:21:00.8760,-1.29,1.87,-0.82,2.41
2022-11-15 21:21:00.8870,-1.4,2.0,-0.7,2.53
2022-11-15 21:21:00.8880,-1.58,2.14,-0.56,2.71
2022-11-15 21:21:00.9030,-1.86,2.28,-0.32,2.95
2022-11-15 21:21:00.9040,-2.08,2.43,-0.01,3.19
2022-11-15 21:21:00.9190,-2.29,2.59,0.36,3.47
2022-11-15 21:21:00.9190,-2.46,2.75,0.76,3.76
2022-11-15 21:21:00.9350,-2.56,2.85,1.14,3.99
2022-11-15 21:21:00.9360,-2.59,2.83,1.43,4.09
2022-11-15 21:21:00.9910,-2.35,2.7,1.54,3.89
2022-11-15 21:21:00.9910,-2.0,2.55,1.68,3.65
2022-11-15 21:21:01.0040,-1.68,2.3,1.74,3.33
2022-11-15 21:21:01.0040,-1.36,1.9,1.65,2.86
2022-11-15 21:21:01.0200,-0.89,1.37,1.47,2.19
2022-11-15 21:21:01.0200,-0.35,0.74,1.41,1.63
2022-11-15 21:21:01.0350,0.15,0.1,1.5,1.51
2022-11-15 21:21:01.0360,0.56,-0.38,1.56,1.7
2022-11-15 21:21:01.0520,0.76,-0.62,1.55,1.83
2022-11-15 21:21:01.0530,0.72,-0.58,1.38,1.66
2022-11-15 21:21:01.1070,0.39,-0.43,1.2,1.33
2022-11-15 21:21:01.1080,-0.13,-0.34,1.03,1.09
2022-11-15 21:21:01.1200,-0.58,-0.33,0.92,1.13
2022-11-15 21:21:01.1210,-0.9,-0.34,1.05,1.42
2022-11-15 21:21:01.1360,-1.26,-0.71,1.36,1.98
2022-11-15 21:21:01.1370,-1.65,-1.71,1.96,3.08
2022-11-15 21:21:01.1520,-1.76,-3.49,2.62,4.7
2022-11-15 21:21:01.1530,-0.94,-5.78,2.61,6.41
2022-11-15 21:21:01.1690,0.64,-7.57,1.26,7.7
2022-11-15 21:21:01.1700,1.56,-7.9,-0.5,8.06
2022-11-15 21:21:01.2230,1.01,-6.51,-1.26,6.7
2022-11-15 21:21:01.2230,-0.09,-4.1,-1.5,4.36
2022-11-15 21:21:01.2370,-0.92,-1.77,-1.57,2.53
2022-11-15 21:21:01.2380,-1.72,-0.38,-1.26,2.16
2022-11-15 21:21:01.2530,-2.44,0.08,-0.76,2.55
2022-11-15 21:21:01.2540,-2.9,0.11,-0.47,2.93
2022-11-15 21:21:01.2690,-3.13,0.07,-0.55,3.17
2022-11-15 21:21:01.2700,-2.93,0.09,-0.97,3.08
2022-11-15 21:21:01.2850,-2.53,0.21,-1.24,2.82
2022-11-15 21:21:01.2860,-2.27,0.36,-1.12,2.55
2022-11-15 21:21:01.3400,-2.2,0.49,-0.9,2.42
2022-11-15 21:21:01.3410,-2.25,0.71,-0.73,2.46
2022-11-15 21:21:01.3530,-2.25,0.99,-0.57,2.52
2022-11-15 21:21:01.3540,-2.14,1.32,-0.52,2.56
2022-11-15 21:21:01.3700,-2.0,1.6,-0.67,2.64
2022-11-15 21:21:01.3700,-1.85,1.8,-0.95,2.75
2022-11-15 21:21:01.3850,-1.79,1.85,-1.31,2.88
2022-11-15 21:21:01.3860,-1.67,1.6,-1.57,2.79
2022-11-15 21:21:01.4020,-1.76,1.14,-1.48,2.56
2022-11-15 21:21:01.4030,-1.71,0.83,-1.24,2.26
2022-11-15 21:21:01.4550,-1.6,0.32,-1.17,2.0
2022-11-15 21:21:01.4560,-1.63,-0.33,-1.08,1.98
2022-11-15 21:21:01.4700,-1.63,-0.83,-1.02,2.09
2022-11-15 21:21:01.4710,-1.59,-1.2,-1.23,2.34
2022-11-15 21:21:01.4860,-1.51,-1.49,-1.36,2.51
2022-11-15 21:21:01.4870,-1.34,-1.72,-1.29,2.53
2022-11-15 21:21:01.5020,-1.33,-1.86,-1.07,2.52
2022-11-15 21:21:01.5030,-1.3,-1.88,-0.9,2.45
2022-11-15 21:21:01.5190,-1.14,-1.87,-0.74,2.31
2022-11-15 21:21:01.5190,-1.03,-1.69,-0.35,2.0
2022-11-15 21:21:01.5740,-0.9,-1.21,-0.04,1.5
2022-11-15 21:21:01.5740,-0.68,-0.6,0.1,0.91
2022-11-15 21:21:01.5870,-0.41,-0.01,0.15,0.43
2022-11-15 21:21:01.5880,-0.01,0.49,0.2,0.52
2022-11-15 21:21:01.6030,0.31,0.97,0.21,1.03
2022-11-15 21:21:01.6040,0.54,1.37,0.17,1.48
2022-11-15 21:21:01.6190,0.63,1.66,-0.04,1.77
2022-11-15 21:21:01.6190,0.65,1.74,-0.27,1.87
2022-11-15 21:21:01.6350,0.73,1.61,-0.33,1.79
2022-11-15 21:21:01.6360,0.76,1.33,-0.25,1.55
2022-11-15 21:21:01.6890,0.82,0.87,-0.15,1.2
2022-11-15 21:21:01.6900,1.11,0.65,0.12,1.29
2022-11-15 21:21:01.7040,1.5,0.53,0.19,1.6
2022-11-15 21:21:01.7040,1.45,0.25,0.23,1.48
2022-11-15 21:21:01.7190,1.34,0.03,0.48,1.42
2022-11-15 21:21:01.7200,1.14,-0.1,0.79,1.39
2022-11-15 21:21:01.7360,0.85,-0.37,1.0,1.36
2022-11-15 21:21:01.7370,0.63,-0.64,1.1,1.42
2022-11-15 21:21:01.7520,0.53,-0.72,1.15,1.45
2022-11-15 21:21:01.7530,0.41,-0.72,1.36,1.59
2022-11-15 21:21:01.8060,0.3,-0.73,1.68,1.85
2022-11-15 21:21:01.8060,0.27,-0.63,1.93,2.04
2022-11-15 21:21:01.8200,0.32,-0.31,2.09,2.13
2022-11-15 21:21:01.8210,0.5,0.18,2.22,2.28
2022-11-15 21:21:01.8360,0.77,0.68,2.16,2.39
2022-11-15 21:21:01.8370,1.02,0.87,1.89,2.31
2022-11-15 21:21:01.8520,1.31,0.7,1.56,2.15
2022-11-15 21:21:01.8530,1.56,0.14,1.24,1.99
2022-11-15 21:21:01.8690,1.56,-0.86,0.88,1.98
2022-11-15 21:21:01.8700,1.3,-2.09,0.43,2.49
2022-11-15 21:21:01.9230,0.87,-3.26,0.25,3.38
2022-11-15 21:21:01.9240,0.12,-4.18,0.33,4.19
2022-11-15 21:21:01.9370,-1.04,-4.65,0.28,4.77
2022-11-15 21:21:01.9380,-2.04,-4.34,0.14,4.79
2022-11-15 21:21:01.9530,-2.33,-3.76,0.05,4.42
2022-11-15 21:21:01.9540,-2.01,-3.41,0.08,3.95
2022-11-15 21:21:01.9690,-1.24,-3.07,-0.02,3.31
2022-11-15 21:21:01.9700,-0.54,-2.41,-0.2,2.47
2022-11-15 21:21:01.9850,-0.2,-1.69,-0.48,1.76
2022-11-15 21:21:01.9860,-0.02,-0.92,-0.72,1.16
2022-11-15 21:21:02.0400,0.03,-0.31,-0.92,0.97
2022-11-15 21:21:02.0400,0.03,0.19,-0.96,0.97
2022-11-15 21:21:02.0530,0.07,0.65,-0.87,1.08
2022-11-15 21:21:02.0540,0.07,0.88,-0.71,1.13
2022-11-15 21:21:02.0690,0.07,0.81,-0.52,0.96
2022-11-15 21:21:02.0700,0.13,0.58,-0.34,0.68
2022-11-15 21:21:02.0850,0.17,0.31,-0.16,0.38
2022-11-15 21:21:02.0860,0.09,0.09,-0.31,0.33
2022-11-15 21:21:02.1020,0.2,-0.08,-1.04,1.06
2022-11-15 21:21:02.1030,0.64,-0.16,-1.97,2.07
2022-11-15 21:21:02.1560,1.27,0.03,-2.66,2.94
2022-11-15 21:21:02.1570,1.68,0.16,-2.85,3.31
2022-11-15 21:21:02.1700,1.72,0.06,-2.36,2.92
2022-11-15 21:21:02.1710,1.6,0.17,-1.8,2.41
2022-11-15 21:21:02.1860,1.51,0.29,-1.03,1.85
2022-11-15 21:21:02.1870,1.38,0.46,-0.23,1.47
2022-11-15 21:21:02.2020,1.05,0.59,0.38,1.26
2022-11-15 21:21:02.2030,0.61,0.83,0.63,1.2
2022-11-15 21:21:02.2190,0.06,1.02,0.49,1.13
2022-11-15 21:21:02.2200,-0.56,1.2,0.27,1.35
2022-11-15 21:21:02.2720,-1.06,1.53,0.21,1.87
2022-11-15 21:21:02.2730,-1.29,1.9,0.27,2.31
2022-11-15 21:21:02.2870,-1.2,2.15,0.51,2.51
2022-11-15 21:21:02.2880,-1.13,2.24,0.83,2.64
2022-11-15 21:21:02.3030,-1.05,2.33,0.98,2.73
2022-11-15 21:21:02.3040,-0.9,2.47,1.01,2.81
2022-11-15 21:21:02.3180,-0.85,2.61,0.96,2.9
2022-11-15 21:21:02.3190,-0.82,2.75,0.8,2.97
2022-11-15 21:21:02.3350,-0.73,2.82,0.63,2.98
2022-11-15 21:21:02.3360,-0.55,2.78,0.53,2.88
2022-11-15 21:21:02.3890,-0.32,2.65,0.56,2.72
2022-11-15 21:21:02.3900,-0.15,2.58,0.84,2.71
2022-11-15 21:21:02.4040,0.02,2.56,1.39,2.91
2022-11-15 21:21:02.4040,0.17,2.63,1.87,3.23
2022-11-15 21:21:02.4190,0.17,2.62,2.15,3.39
2022-11-15 21:21:02.4200,0.24,2.4,1.95,3.1
2022-11-15 21:21:02.4350,0.52,2.08,1.74,2.76
2022-11-15 21:21:02.4360,1.0,1.73,1.64,2.58
2022-11-15 21:21:02.4520,1.32,1.18,1.47,2.3
2022-11-15 21:21:02.4530,1.46,0.6,1.33,2.06
2022-11-15 21:21:02.5050,1.59,0.19,1.3,2.06
2022-11-15 21:21:02.5060,1.61,-0.1,1.54,2.23
2022-11-15 21:21:02.5200,1.47,-0.35,2.13,2.61
2022-11-15 21:21:02.5210,1.09,-0.87,2.73,3.06
2022-11-15 21:21:02.5360,0.58,-1.89,3.15,3.71
2022-11-15 21:21:02.5370,0.08,-3.36,3.56,4.89
2022-11-15 21:21:02.5520,-0.1,-5.32,3.05,6.13
2022-11-15 21:21:02.5530,0.77,-6.75,0.94,6.85
2022-11-15 21:21:02.5690,2.21,-6.85,-1.13,7.28
2022-11-15 21:21:02.5700,2.15,-6.81,-1.35,7.26
2022-11-15 21:21:02.6220,0.64,-6.85,-1.01,6.95
2022-11-15 21:21:02.6230,-0.69,-6.14,-1.57,6.37
2022-11-15 21:21:02.6370,-1.22,-4.18,-2.05,4.81
2022-11-15 21:21:02.6370,-1.65,-1.75,-1.99,3.12
2022-11-15 21:21:02.6530,-2.4,0.13,-1.53,2.84
2022-11-15 21:21:02.6540,-2.92,1.26,-1.22,3.4
2022-11-15 21:21:02.6690,-2.91,1.47,-1.35,3.52
2022-11-15 21:21:02.6700,-2.26,1.4,-1.38,2.99
2022-11-15 21:21:02.6850,-1.36,1.47,-1.18,2.32
2022-11-15 21:21:02.6860,-0.56,1.72,-0.93,2.03
2022-11-15 21:21:02.7390,-0.05,2.08,-0.66,2.18
2022-11-15 21:21:02.7400,0.09,2.46,-0.47,2.5
2022-11-15 21:21:02.7540,0.13,2.89,-0.53,2.94
2022-11-15 21:21:02.7540,0.16,3.28,-0.86,3.39
2022-11-15 21:21:02.7690,0.2,3.62,-1.19,3.81
2022-11-15 21:21:02.7700,0.28,3.75,-1.41,4.01
2022-11-15 21:21:02.7850,0.3,3.6,-1.6,3.95
2022-11-15 21:21:02.7860,0.25,3.0,-1.65,3.43
2022-11-15 21:21:02.8020,0.16,1.9,-1.53,2.44
2022-11-15 21:21:02.8030,0.25,0.48,-1.31,1.41
2022-11-15 21:21:02.8560,0.31,-0.75,-0.95,1.24
2022-11-15 21:21:02.8570,0.02,-1.63,-0.74,1.79
2022-11-15 21:21:02.8700,-0.53,-2.47,-0.9,2.68
2022-11-15 21:21:02.8710,-0.94,-2.93,-1.22,3.31
2022-11-15 21:21:02.8860,-1.1,-2.4,-1.32,2.95
2022-11-15 21:21:02.8870,-1.35,-1.42,-1.1,2.24
2022-11-15 21:21:02.9020,-1.68,-0.63,-0.71,1.92
2022-11-15 21:21:02.9030,-1.78,-0.01,-0.28,1.8
2022-11-15 21:21:02.9180,-1.71,0.33,0.1,1.74
2022-11-15 21:21:02.9190,-1.52,0.52,0.44,1.66
2022-11-15 21:21:02.9720,-1.18,0.61,0.71,1.5
2022-11-15 21:21:02.9730,-0.79,0.66,0.94,1.39
2022-11-15 21:21:02.9870,-0.41,0.72,1.11,1.38
2022-11-15 21:21:02.9870,-0.03,0.82,1.17,1.42
2022-11-15 21:21:03.0030,0.37,0.93,1.25,1.6
2022-11-15 21:21:03.0030,0.66,0.99,1.41,1.84
2022-11-15 21:21:03.0180,0.94,1.01,1.6,2.11
2022-11-15 21:21:03.0190,1.25,0.99,1.57,2.23
2022-11-15 21:21:03.0350,1.55,0.97,1.31,2.24
2022-11-15 21:21:03.0360,1.73,0.84,0.94,2.14
2022-11-15 21:21:03.0890,1.75,0.6,0.62,1.95
2022-11-15 21:21:03.0890,1.78,0.37,0.42,1.86
2022-11-15 21:21:03.1040,1.89,0.15,0.24,1.91
2022-11-15 21:21:03.1040,1.83,-0.13,0.15,1.84
2022-11-15 21:21:03.1190,1.68,-0.48,0.23,1.76
2022-11-15 21:21:03.1200,1.56,-0.84,0.18,1.78
2022-11-15 21:21:03.1350,1.36,-0.98,-0.03,1.67
2022-11-15 21:21:03.1360,1.05,-0.86,-0.36,1.4
2022-11-15 21:21:03.1520,0.62,-0.66,-0.47,1.02
2022-11-15 21:21:03.1530,0.22,-0.34,-1.01,1.08
2022-11-15 21:21:03.2060,-0.09,0.04,-1.16,1.16
2022-11-15 21:21:03.2070,-0.36,0.03,-1.06,1.11
2022-11-15 21:21:03.2200,-0.53,-0.49,-0.91,1.16
2022-11-15 21:21:03.2210,-0.53,-1.34,-0.73,1.61
2022-11-15 21:21:03.2360,-0.54,-2.32,-0.39,2.41
2022-11-15 21:21:03.2370,-0.5,-3.01,0.11,3.05
2022-11-15 21:21:03.2520,-0.44,-3.4,0.34,3.44
2022-11-15 21:21:03.2530,-0.47,-3.64,0.39,3.69
2022-11-15 21:21:03.2690,-0.43,-3.65,0.34,3.69
2022-11-15 21:21:03.2690,-0.37,-3.69,0.0,3.7
2022-11-15 21:21:03.3230,-0.25,-3.46,-0.46,3.49
2022-11-15 21:21:03.3230,-0.16,-3.07,-0.82,3.18
2022-11-15 21:21:03.3370,-0.08,-2.47,-0.99,2.66
2022-11-15 21:21:03.3380,-0.09,-1.77,-1.1,2.08
2022-11-15 21:21:03.3530,-0.14,-1.0,-1.18,1.55
2022-11-15 21:21:03.3540,-0.33,-0.22,-1.23,1.29
2022-11-15 21:21:03.3690,-0.56,0.51,-1.24,1.45
2022-11-15 21:21:03.3700,-0.79,1.15,-1.21,1.84
2022-11-15 21:21:03.3850,-1.0,1.59,-1.2,2.22
2022-11-15 21:21:03.3860,-1.1,1.81,-1.2,2.43
2022-11-15 21:21:03.4390,-1.08,1.85,-1.19,2.45
2022-11-15 21:21:03.4400,-0.94,1.68,-1.29,2.31
2022-11-15 21:21:03.4530,-0.69,1.44,-1.46,2.16
2022-11-15 21:21:03.4540,-0.31,1.12,-1.64,2.0
2022-11-15 21:21:03.4690,-0.19,0.81,-1.56,1.76
2022-11-15 21:21:03.4700,-0.33,0.52,-1.17,1.32
2022-11-15 21:21:03.4850,-0.43,0.2,-0.87,0.99
2022-11-15 21:21:03.4860,-0.17,-0.13,-0.75,0.77
2022-11-15 21:21:03.5020,0.31,-0.28,-0.74,0.84
2022-11-15 21:21:03.5030,0.57,-0.16,-0.57,0.82
2022-11-15 21:21:03.5560,0.59,0.04,-0.48,0.76
2022-11-15 21:21:03.5570,0.55,0.31,-0.39,0.74
2022-11-15 21:21:03.5700,0.54,0.67,-0.51,1.0
2022-11-15 21:21:03.5710,0.45,1.05,-0.63,1.3
2022-11-15 21:21:03.5860,0.21,1.31,-0.54,1.43
2022-11-15 21:21:03.5870,-0.02,1.47,-0.33,1.5
2022-11-15 21:21:03.6020,-0.14,1.61,-0.15,1.62
2022-11-15 21:21:03.6030,-0.31,1.62,0.03,1.64
2022-11-15 21:21:03.6190,-0.5,1.57,0.27,1.66
2022-11-15 21:21:03.6200,-0.67,1.53,0.39,1.71
2022-11-15 21:21:03.6730,-0.99,1.39,-0.08,1.7
2022-11-15 21:21:03.6730,-1.76,1.58,-1.16,2.63
2022-11-15 21:21:03.6870,-0.75,2.2,-0.83,2.46
2022-11-15 21:21:03.6880,-0.66,1.84,0.87,2.13
2022-11-15 21:21:03.7030,-1.06,1.7,1.77,2.67
2022-11-15 21:21:03.7040,0.22,1.73,2.01,2.66
2022-11-15 21:21:03.7180,-0.06,0.93,2.2,2.38
2022-11-15 21:21:03.7190,-0.39,0.22,1.85,1.9
2022-11-15 21:21:03.7350,-0.28,-0.37,1.08,1.17
2022-11-15 21:21:03.7360,-0.15,-0.94,0.58,1.11
2022-11-15 21:21:03.7900,-0.04,-1.3,0.38,1.35
2022-11-15 21:21:03.7910,0.07,-1.43,0.42,1.49
2022-11-15 21:21:03.8040,-0.08,-1.42,0.72,1.59
2022-11-15 21:21:03.8040,-0.4,-1.07,1.04,1.54
2022-11-15 21:21:03.8190,-0.63,-0.82,0.99,1.43
2022-11-15 21:21:03.8200,-1.13,-1.09,0.15,1.57
2022-11-15 21:21:03.8350,-1.47,-1.32,-0.11,1.97
2022-11-15 21:21:03.8360,-1.61,-2.07,-0.09,2.62
2022-11-15 21:21:03.8510,-1.52,-2.94,-0.16,3.31
2022-11-15 21:21:03.8520,-1.09,-3.36,-0.65,3.59
2022-11-15 21:21:03.9040,-0.6,-3.09,-1.49,3.48
2022-11-15 21:21:03.9050,-0.26,-2.28,-1.82,2.92
2022-11-15 21:21:03.9210,-0.46,-1.62,-1.83,2.48
2022-11-15 21:21:03.9210,-0.67,-1.14,-2.08,2.46
2022-11-15 21:21:03.9360,-0.45,-0.74,-2.36,2.51
2022-11-15 21:21:03.9370,-0.16,-0.46,-2.36,2.4
2022-11-15 21:21:03.9520,0.04,-0.27,-2.2,2.21
2022-11-15 21:21:03.9530,0.13,0.07,-2.04,2.04
2022-11-15 21:21:03.9680,0.07,0.53,-1.96,2.03
2022-11-15 21:21:03.9690,0.02,1.1,-1.93,2.22
2022-11-15 21:21:04.0230,-0.73,1.45,-1.86,2.46
2022-11-15 21:21:04.0240,-0.95,1.65,-1.92,2.7
2022-11-15 21:21:04.0370,-1.06,1.64,-1.73,2.6
2022-11-15 21:21:04.0370,-0.78,1.68,-1.56,2.42
2022-11-15 21:21:04.0530,-0.21,1.94,-1.27,2.32
2022-11-15 21:21:04.0530,-0.76,1.15,-0.93,1.66
2022-11-15 21:21:04.0690,-0.64,0.28,-1.16,1.35
2022-11-15 21:21:04.0700,-0.28,0.07,-1.12,1.15
2022-11-15 21:21:04.0850,0.23,0.12,-1.11,1.13
2022-11-15 21:21:04.0860,0.19,-0.32,-0.83,0.9
2022-11-15 21:21:04.1400,-0.21,-0.57,-0.59,0.84
2022-11-15 21:21:04.1410,-0.58,-0.5,-0.71,1.04
2022-11-15 21:21:04.1540,-0.78,-0.33,-1.09,1.38
2022-11-15 21:21:04.1540,-0.68,-0.04,-1.12,1.31
2022-11-15 21:21:04.1690,-1.42,-0.61,-1.2,1.95
2022-11-15 21:21:04.1700,-1.19,-0.62,-1.69,2.15
2022-11-15 21:21:04.1850,-1.11,-0.49,-1.3,1.77
2022-11-15 21:21:04.1860,-1.56,-0.63,-0.6,1.78
2022-11-15 21:21:04.2020,-1.71,-0.74,-0.42,1.91
2022-11-15 21:21:04.2030,-1.63,-0.85,-0.43,1.88
2022-11-15 21:21:04.2560,-1.34,-0.95,-0.37,1.68
2022-11-15 21:21:04.2560,-1.32,-1.18,-0.29,1.79
2022-11-15 21:21:04.2700,-1.18,-0.98,-0.18,1.54
2022-11-15 21:21:04.2710,-1.01,-0.62,-0.2,1.2
2022-11-15 21:21:04.2860,-0.84,-0.32,-0.32,0.95
2022-11-15 21:21:04.2870,-0.5,0.0,-0.58,0.76
2022-11-15 21:21:04.3020,-0.1,0.1,-0.91,0.92
2022-11-15 21:21:04.3030,0.29,0.0,-1.06,1.09
2022-11-15 21:21:04.3180,0.65,-0.28,-1.21,1.4
2022-11-15 21:21:04.3190,1.07,-0.45,-1.32,1.75
2022-11-15 21:21:04.3730,1.43,-0.46,-1.18,1.91
2022-11-15 21:21:04.3730,1.52,-0.49,-1.04,1.9
2022-11-15 21:21:04.3870,1.24,-0.47,-1.02,1.67
2022-11-15 21:21:04.3870,0.86,-0.24,-0.98,1.32
2022-11-15 21:21:04.4030,0.77,0.2,-1.01,1.28
2022-11-15 21:21:04.4030,0.72,0.64,-1.07,1.43
2022-11-15 21:21:04.4180,0.54,0.97,-1.04,1.52
2022-11-15 21:21:04.4190,0.38,0.99,-0.4,1.13
2022-11-15 21:21:04.4350,-0.18,0.33,-0.05,0.37
2022-11-15 21:21:04.4360,-0.1,0.26,-0.99,1.02
2022-11-15 21:21:04.4920,0.31,0.64,-0.89,1.13
2022-11-15 21:21:04.4920,-0.04,0.26,-0.53,0.59
2022-11-15 21:21:04.5030,-0.12,0.21,-0.13,0.27
2022-11-15 21:21:04.5040,-0.12,0.19,0.11,0.25
2022-11-15 21:21:04.5190,-0.17,-0.05,0.01,0.17
2022-11-15 21:21:04.5200,0.1,-0.16,-0.09,0.2
2022-11-15 21:21:04.5350,0.48,-0.14,-0.42,0.65
2022-11-15 21:21:04.5360,0.52,-0.12,-0.71,0.88
2022-11-15 21:21:04.5520,0.51,0.1,-0.46,0.69
2022-11-15 21:21:04.5530,0.33,0.3,0.03,0.44
2022-11-15 21:21:04.6050,0.24,0.33,0.12,0.42
2022-11-15 21:21:04.6060,0.44,0.14,0.07,0.46
2022-11-15 21:21:04.6200,0.54,-0.54,0.14,0.77
2022-11-15 21:21:04.6210,0.56,-1.07,0.35,1.25
2022-11-15 21:21:04.6360,0.32,-0.73,0.5,0.94
2022-11-15 21:21:04.6370,-0.17,0.11,-0.09,0.22
2022-11-15 21:21:04.6520,-0.13,0.66,-1.1,1.28
2022-11-15 21:21:04.6530,0.04,0.78,-1.46,1.65
2022-11-15 21:21:04.6690,0.05,0.32,-1.48,1.51
2022-11-15 21:21:04.6690,0.0,-0.32,-1.16,1.2
2022-11-15 21:21:04.7220,0.11,-0.62,-0.73,0.96
2022-11-15 21:21:04.7230,0.38,-0.62,-0.45,0.85
2022-11-15 21:21:04.7370,0.55,-0.51,-0.35,0.82
2022-11-15 21:21:04.7370,0.62,-0.18,-0.44,0.78
2022-11-15 21:21:04.7520,0.54,0.16,-0.42,0.7
2022-11-15 21:21:04.7530,0.38,0.34,-0.25,0.56
2022-11-15 21:21:04.7690,0.28,0.35,-0.03,0.44
2022-11-15 21:21:04.7690,0.26,0.29,0.11,0.4
2022-11-15 21:21:04.7850,0.22,0.2,0.18,0.34
2022-11-15 21:21:04.7860,0.26,0.16,0.1,0.32
2022-11-15 21:21:04.8410,0.36,0.16,-0.08,0.4
2022-11-15 21:21:04.8410,0.25,-0.02,-0.2,0.32
2022-11-15 21:21:04.8530,-0.04,-0.2,-0.12,0.23
2022-11-15 21:21:04.8540,-0.25,-0.26,-0.07,0.36
2022-11-15 21:21:04.8690,-0.44,-0.3,-0.1,0.54
2022-11-15 21:21:04.8700,-0.54,-0.27,0.03,0.6
2022-11-15 21:21:04.8850,-0.54,-0.25,0.14,0.61
2022-11-15 21:21:04.8860,-0.59,-0.05,0.22,0.63
2022-11-15 21:21:04.9020,-0.63,0.13,0.29,0.7
2022-11-15 21:21:04.9030,-0.67,0.09,0.31,0.74
2022-11-15 21:21:04.9550,-0.63,0.02,0.31,0.7
2022-11-15 21:21:04.9560,-0.73,-0.2,0.13,0.76
2022-11-15 21:21:04.9700,-0.74,-0.44,-0.08,0.86
2022-11-15 21:21:04.9710,-0.39,-0.42,-0.31,0.65
2022-11-15 21:21:04.9860,-0.12,-0.27,-0.39,0.48
2022-11-15 21:21:04.9870,0.03,-0.11,-0.4,0.41
2022-11-15 21:21:05.0020,0.04,-0.04,-0.41,0.41
2022-11-15 21:21:05.0030,0.0,0.0,-0.41,0.41
2022-11-15 21:21:05.0180,-0.09,0.02,-0.4,0.41
2022-11-15 21:21:05.0190,-0.24,0.02,-0.33,0.4
2022-11-15 21:21:05.0710,-0.32,0.08,-0.24,0.4
2022-11-15 21:21:05.0720,-0.36,0.12,-0.25,0.45
2022-11-15 21:21:05.0870,-0.35,0.04,-0.26,0.43
2022-11-15 21:21:05.0870,-0.33,-0.13,-0.16,0.38
2022-11-15 21:21:05.1030,-0.23,-0.12,-0.09,0.27
2022-11-15 21:21:05.1030,-0.19,-0.11,-0.11,0.24
2022-11-15 21:21:05.1180,-0.24,-0.11,-0.12,0.28
2022-11-15 21:21:05.1190,-0.16,-0.11,-0.15,0.24
2022-11-15 21:21:05.1350,-0.09,-0.21,-0.12,0.25
2022-11-15 21:21:05.1360,0.17,-0.03,0.0,0.17
2022-11-15 21:21:05.1900,0.23,0.01,0.07,0.24
2022-11-15 21:21:05.1900,0.18,-0.05,0.15,0.23
2022-11-15 21:21:05.2030,0.05,-0.24,0.22,0.32
2022-11-15 21:21:05.2040,-0.03,-0.47,0.35,0.58
2022-11-15 21:21:05.2190,-0.1,-0.61,0.46,0.77
2022-11-15 21:21:05.2200,-0.28,-0.47,0.63,0.83
2022-11-15 21:21:05.2350,-0.19,-0.55,0.61,0.84
2022-11-15 21:21:05.2360,-0.03,-0.71,0.51,0.87
2022-11-15 21:21:05.2520,-0.06,-0.68,0.44,0.81
2022-11-15 21:21:05.2530,-0.1,-0.46,0.14,0.49
2022-11-15 21:21:05.3050,-0.27,-0.18,-0.11,0.34
2022-11-15 21:21:05.3060,-0.46,-0.02,-0.18,0.49
2022-11-15 21:21:05.3200,-0.8,-0.23,0.04,0.83
2022-11-15 21:21:05.3210,-1.02,-0.41,0.34,1.15
2022-11-15 21:21:05.3360,-0.81,-0.43,0.35,0.98
2022-11-15 21:21:05.3370,-0.25,-0.79,-0.19,0.85
2022-11-15 21:21:05.3520,-0.11,-1.28,-0.55,1.39
2022-11-15 21:21:05.3520,-0.26,-1.51,-0.57,1.63
2022-11-15 21:21:05.3690,-0.02,-0.88,-0.13,0.88
2022-11-15 21:21:05.3690,0.16,-0.98,0.02,0.99
2022-11-15 21:21:05.4210,0.04,-1.53,-0.18,1.54
2022-11-15 21:21:05.4220,0.09,-1.76,-0.09,1.76
2022-11-15 21:21:05.4370,0.02,-1.76,0.03,1.76
2022-11-15 21:21:05.4370,-0.01,-1.58,0.06,1.58
2022-11-15 21:21:05.4520,0.02,-1.11,0.03,1.11
2022-11-15 21:21:05.4530,-0.12,-0.56,0.04,0.57
2022-11-15 21:21:05.4680,-0.74,-1.51,0.03,1.68
2022-11-15 21:21:05.4690,-0.69,-1.76,-0.18,1.89
2022-11-15 21:21:05.4850,-0.84,-0.45,0.14,0.96
2022-11-15 21:21:05.4860,-1.19,-0.13,0.41,1.26
2022-11-15 21:21:05.5380,-1.11,-0.02,-0.1,1.11
2022-11-15 21:21:05.5390,-1.16,0.04,-0.02,1.16
2022-11-15 21:21:05.5530,-0.84,0.58,0.27,1.05
2022-11-15 21:21:05.5540,-0.69,0.65,0.45,1.04
2022-11-15 21:21:05.5690,-0.66,0.51,0.45,0.94
2022-11-15 21:21:05.5700,-0.44,0.09,0.01,0.44
2022-11-15 21:21:05.5850,-0.15,-0.44,-0.34,0.57
2022-11-15 21:21:05.5860,0.13,-0.89,-0.14,0.91
2022-11-15 21:21:05.6020,0.2,-1.16,0.02,1.17
2022-11-15 21:21:05.6030,0.23,-0.54,0.2,0.62
2022-11-15 21:21:05.6560,0.17,-0.59,0.31,0.68
2022-11-15 21:21:05.6570,0.22,-0.45,0.59,0.77
2022-11-15 21:21:05.6710,-0.35,-0.04,1.13,1.18
2022-11-15 21:21:05.6710,-0.53,0.59,1.34,1.55
2022-11-15 21:21:05.6860,-0.47,0.67,0.75,1.11
2022-11-15 21:21:05.6870,-0.51,0.81,0.54,1.09
2022-11-15 21:21:05.7020,-0.49,1.15,0.27,1.27
2022-11-15 21:21:05.7030,-0.46,1.42,0.0,1.49
2022-11-15 21:21:05.7180,-0.4,1.23,-0.42,1.35
2022-11-15 21:21:05.7190,-0.38,1.08,-0.54,1.26
2022-11-15 21:21:05.7700,-0.33,0.99,-0.42,1.12
2022-11-15 21:21:05.7710,-0.35,0.66,-0.74,1.05
2022-11-15 21:21:05.7870,0.13,0.82,-0.48,0.95
2022-11-15 21:21:05.7880,-0.03,0.64,-0.09,0.64
2022-11-15 21:21:05.8030,-0.59,0.93,0.37,1.16
2022-11-15 21:21:05.8030,-0.73,1.46,1.13,1.98
2022-11-15 21:21:05.8190,-0.51,1.83,1.23,2.26
2022-11-15 21:21:05.8200,-0.19,1.78,0.78,1.95
2022-11-15 21:21:05.8340,0.25,1.35,0.19,1.38
2022-11-15 21:21:05.8350,0.16,0.86,-0.51,1.01
2022-11-15 21:21:05.8860,-0.24,0.4,0.28,0.54
2022-11-15 21:21:05.8870,-0.04,0.03,1.07,1.07
2022-11-15 21:21:05.9040,0.22,-0.26,0.85,0.91
2022-11-15 21:21:05.9050,0.6,-0.74,0.23,0.98
2022-11-15 21:21:05.9190,0.68,-1.09,0.08,1.28
2022-11-15 21:21:05.9200,0.49,-1.82,0.16,1.89
2022-11-15 21:21:05.9350,1.83,0.13,0.63,1.93
2022-11-15 21:21:05.9360,1.31,0.85,1.97,2.51
2022-11-15 21:21:05.9520,0.25,-1.27,1.65,2.09
2022-11-15 21:21:05.9530,0.45,-3.09,0.72,3.2
2022-11-15 21:21:06.0050,-0.49,-5.9,0.26,5.92
2022-11-15 21:21:06.0060,-0.22,-6.05,-0.27,6.06
2022-11-15 21:21:06.0200,0.48,-1.18,1.31,1.82
2022-11-15 21:21:06.0210,-0.54,0.14,2.11,2.18
2022-11-15 21:21:06.0350,-0.24,-0.34,0.68,0.79
2022-11-15 21:21:06.0360,-0.5,-0.19,0.42,0.68
2022-11-15 21:21:06.0520,-0.64,2.76,0.97,2.99
2022-11-15 21:21:06.0530,-0.59,3.72,1.17,3.94
2022-11-15 21:21:06.0690,-0.58,5.76,0.83,5.84
2022-11-15 21:21:06.0700,-1.0,7.19,-0.88,7.31
2022-11-15 21:21:06.1220,-1.95,5.64,-2.23,6.37
2022-11-15 21:21:06.1220,-1.97,4.53,-1.65,5.2
2022-11-15 21:21:06.1350,-1.39,3.48,-0.7,3.81
2022-11-15 21:21:06.1350,0.08,2.13,-0.95,2.33
2022-11-15 21:21:06.1520,1.75,0.61,-1.89,2.64
2022-11-15 21:21:06.1520,2.85,-0.71,-1.08,3.12
2022-11-15 21:21:06.1690,3.28,-1.8,0.25,3.74
2022-11-15 21:21:06.1700,2.98,-2.35,1.0,3.92
2022-11-15 21:21:06.1850,2.54,-2.09,1.05,3.45
2022-11-15 21:21:06.1860,1.77,-2.07,0.93,2.87
2022-11-15 21:21:06.2390,1.01,-2.34,0.3,2.56
2022-11-15 21:21:06.2400,0.43,-2.39,-0.38,2.45
2022-11-15 21:21:06.2530,0.06,-2.34,-0.46,2.38
2022-11-15 21:21:06.2540,0.03,-2.17,0.2,2.17
2022-11-15 21:21:06.2690,-0.36,-2.07,0.47,2.15
2022-11-15 21:21:06.2700,-1.4,-2.05,0.46,2.52
2022-11-15 21:21:06.2850,-1.41,-2.0,-1.11,2.68
2022-11-15 21:21:06.2860,-0.97,-1.47,-1.15,2.1
2022-11-15 21:21:06.3020,-0.98,-1.03,-0.5,1.5
2022-11-15 21:21:06.3030,-0.95,-1.05,-0.22,1.43
2022-11-15 21:21:06.3540,-0.96,-0.98,-0.13,1.37
2022-11-15 21:21:06.3550,-0.6,-1.06,-0.25,1.24
2022-11-15 21:21:06.3710,-0.48,-0.93,-0.05,1.04
2022-11-15 21:21:06.3710,-0.36,-1.24,0.38,1.34
2022-11-15 21:21:06.3860,-0.28,-1.34,0.58,1.48
2022-11-15 21:21:06.3870,-0.05,-1.1,0.33,1.14
2022-11-15 21:21:06.4020,0.4,-1.25,0.25,1.33
2022-11-15 21:21:06.4030,0.6,-1.54,0.59,1.75
2022-11-15 21:21:06.4180,0.79,-1.29,0.49,1.59
2022-11-15 21:21:06.4190,1.1,-0.98,0.63,1.6
2022-11-15 21:21:06.4710,1.13,-1.46,0.62,1.94
2022-11-15 21:21:06.4720,1.16,-1.87,1.24,2.52
2022-11-15 21:21:06.4870,1.62,-2.23,2.77,3.9
2022-11-15 21:21:06.4880,1.67,-1.51,3.75,4.37
2022-11-15 21:21:06.5030,1.37,-1.24,2.62,3.2
2022-11-15 21:21:06.5040,0.82,-1.33,1.1,1.91
2022-11-15 21:21:06.5180,0.75,-0.92,0.45,1.26
2022-11-15 21:21:06.5190,0.78,-0.2,0.44,0.91
2022-11-15 21:21:06.5350,0.82,1.18,3.95,4.2
2022-11-15 21:21:06.5360,1.16,-0.01,3.64,3.82
2022-11-15 21:21:06.5890,1.43,-0.66,2.08,2.6
2022-11-15 21:21:06.5900,2.24,-0.3,1.97,2.99
2022-11-15 21:21:06.6040,2.81,-0.59,1.8,3.38
2022-11-15 21:21:06.6040,3.18,-0.73,2.05,3.85
2022-11-15 21:21:06.6190,3.52,-0.08,2.03,4.06
2022-11-15 21:21:06.6200,3.59,0.54,1.36,3.87
2022-11-15 21:21:06.6350,3.53,1.52,0.24,3.85
2022-11-15 21:21:06.6360,3.2,2.62,-0.83,4.21
2022-11-15 21:21:06.6520,3.0,3.56,-1.3,4.83
2022-11-15 21:21:06.6530,2.9,4.13,-1.58,5.28
2022-11-15 21:21:06.7060,2.78,4.4,-1.75,5.49
2022-11-15 21:21:06.7070,2.68,4.38,-2.21,5.59
2022-11-15 21:21:06.7200,2.76,4.05,-2.78,5.63
2022-11-15 21:21:06.7210,3.06,3.21,-2.73,5.2
2022-11-15 21:21:06.7360,3.01,2.56,-2.24,4.54
2022-11-15 21:21:06.7370,3.09,1.98,-2.23,4.29
2022-11-15 21:21:06.7510,3.29,1.38,-2.38,4.28
2022-11-15 21:21:06.7520,3.14,1.41,-2.95,4.53
2022-11-15 21:21:06.7690,2.92,1.66,-3.57,4.9
2022-11-15 21:21:06.7690,2.52,1.6,-3.95,4.95
2022-11-15 21:21:06.8220,2.05,1.38,-4.38,5.02
2022-11-15 21:21:06.8220,1.85,0.88,-4.44,4.88
2022-11-15 21:21:06.8370,1.51,0.01,-4.17,4.43
2022-11-15 21:21:06.8370,1.23,-0.6,-3.64,3.88
2022-11-15 21:21:06.8530,1.31,-1.21,-3.22,3.68
2022-11-15 21:21:06.8530,1.19,-1.9,-3.47,4.13
2022-11-15 21:21:06.8690,1.25,-1.85,-3.68,4.3
2022-11-15 21:21:06.8690,1.05,-1.54,-4.1,4.5
2022-11-15 21:21:06.8850,0.84,-1.28,-4.79,5.02
2022-11-15 21:21:06.8860,0.32,-1.31,-5.11,5.28
2022-11-15 21:21:06.9380,-0.5,-1.59,-4.66,4.94
2022-11-15 21:21:06.9390,-0.83,-1.67,-4.05,4.45
2022-11-15 21:21:06.9530,-0.77,-1.53,-3.57,3.95
2022-11-15 21:21:06.9540,-0.61,-1.37,-2.96,3.31
2022-11-15 21:21:06.9690,-0.27,-1.48,-2.59,2.99
2022-11-15 21:21:06.9700,-0.03,-1.82,-2.18,2.84
2022-11-15 21:21:06.9850,0.13,-2.3,-1.41,2.7
2022-11-15 21:21:06.9860,0.25,-2.98,-0.68,3.06
2022-11-15 21:21:07.0020,0.31,-3.7,0.07,3.71
2022-11-15 21:21:07.0030,0.47,-3.79,0.41,3.84
2022-11-15 21:21:07.0560,0.2,-3.3,0.47,3.33
2022-11-15 21:21:07.0560,0.13,-3.21,0.15,3.21
2022-11-15 21:21:07.0700,-0.11,-2.82,-0.02,2.82
2022-11-15 21:21:07.0710,-0.34,-2.5,-0.01,2.52
2022-11-15 21:21:07.0860,-0.56,-2.87,-0.52,2.97
2022-11-15 21:21:07.0860,-0.84,-2.32,-0.68,2.55
2022-11-15 21:21:07.1020,-1.08,-1.95,-0.65,2.32
2022-11-15 21:21:07.1020,-1.24,-2.11,-0.43,2.48
2022-11-15 21:21:07.1180,-1.45,-2.44,-0.31,2.85
2022-11-15 21:21:07.1190,-1.62,-1.99,-0.43,2.6
2022-11-15 21:21:07.1720,-1.71,-1.69,-0.64,2.48
2022-11-15 21:21:07.1730,-1.63,-1.75,-0.78,2.51
2022-11-15 21:21:07.1870,-1.37,-1.83,-0.63,2.37
2022-11-15 21:21:07.1870,-1.06,-1.88,-0.4,2.19
2022-11-15 21:21:07.2030,-0.77,-2.24,-0.07,2.36
2022-11-15 21:21:07.2030,-0.64,-2.09,0.14,2.19
2022-11-15 21:21:07.2180,-0.57,-1.44,0.15,1.55
2022-11-15 21:21:07.2190,-0.44,-1.23,0.25,1.33
2022-11-15 21:21:07.2350,-0.33,-1.27,0.7,1.48
2022-11-15 21:21:07.2360,-0.16,-1.48,0.75,1.66
2022-11-15 21:21:07.2880,-0.07,-1.23,0.52,1.33
2022-11-15 21:21:07.2880,0.0,-1.07,0.36,1.12
2022-11-15 21:21:07.3030,0.16,-0.97,-0.01,0.98
2022-11-15 21:21:07.3040,0.23,-0.85,0.12,0.88
2022-11-15 21:21:07.3190,0.32,-0.9,0.34,1.01
2022-11-15 21:21:07.3200,0.29,-0.65,0.18,0.73
2022-11-15 21:21:07.3350,0.35,-0.49,-0.05,0.6
2022-11-15 21:21:07.3360,0.32,-0.35,-0.22,0.52
2022-11-15 21:21:07.3510,0.24,-0.34,-0.22,0.47
2022-11-15 21:21:07.3520,0.17,-0.28,-0.14,0.35
2022-11-15 21:21:07.4040,0.08,-0.18,-0.22,0.29
2022-11-15 21:21:07.4040,0.14,-0.09,-0.45,0.47
2022-11-15 21:21:07.4200,0.16,-0.13,-0.54,0.57
2022-11-15 21:21:07.4210,0.13,-0.16,-0.54,0.57
2022-11-15 21:21:07.4360,0.06,-0.03,-0.56,0.56
2022-11-15 21:21:07.4360,-0.06,0.11,-0.49,0.5
2022-11-15 21:21:07.4510,0.01,0.12,-0.17,0.2
2022-11-15 21:21:07.4520,0.02,-0.06,-0.12,0.13
2022-11-15 21:21:07.4680,0.02,-0.17,0.07,0.18
2022-11-15 21:21:07.4690,0.05,-0.18,0.08,0.2
2022-11-15 21:21:07.5200,0.0,-0.07,0.11,0.13
2022-11-15 21:21:07.5210,-0.07,0.0,0.28,0.28
2022-11-15 21:21:07.5370,-0.03,-0.16,0.23,0.28
2022-11-15 21:21:07.5370,-0.05,-0.07,0.25,0.26
2022-11-15 21:21:07.5520,-0.08,0.03,0.08,0.11
2022-11-15 21:21:07.5530,-0.16,0.14,-0.14,0.25
2022-11-15 21:21:07.5680,-0.26,0.09,-0.15,0.31
2022-11-15 21:21:07.5690,-0.35,0.04,-0.33,0.48
2022-11-15 21:21:07.5850,-0.4,0.03,-0.68,0.78
2022-11-15 21:21:07.5860,-0.41,-0.06,-0.9,0.99
2022-11-15 21:21:07.6370,-0.45,-0.11,-0.85,0.96
2022-11-15 21:21:07.6380,-0.45,-0.18,-0.68,0.83
2022-11-15 21:21:07.6530,-0.45,-0.08,-0.39,0.6
2022-11-15 21:21:07.6540,-0.38,-0.12,-0.02,0.39
2022-11-15 21:21:07.6690,-0.39,-0.35,0.31,0.6
2022-11-15 21:21:07.6700,-0.38,-0.27,0.56,0.72
2022-11-15 21:21:07.6850,-0.36,-0.17,0.74,0.84
2022-11-15 21:21:07.6860,-0.36,-0.08,0.82,0.89
2022-11-15 21:21:07.7020,-0.36,-0.04,0.75,0.83
2022-11-15 21:21:07.7020,-0.41,0.13,0.53,0.68
2022-11-15 21:21:07.7540,-0.38,0.23,0.29,0.53
2022-11-15 21:21:07.7550,-0.34,0.22,0.05,0.4
2022-11-15 21:21:07.7690,-0.31,0.36,0.03,0.47
2022-11-15 21:21:07.7700,-0.23,0.37,0.04,0.43
2022-11-15 21:21:07.7860,-0.12,0.03,-0.08,0.14
2022-11-15 21:21:07.7860,-0.08,0.11,-0.17,0.21
2022-11-15 21:21:07.8020,-0.15,0.35,-0.34,0.51
2022-11-15 21:21:07.8030,-0.21,0.21,-0.4,0.49
2022-11-15 21:21:07.8170,-0.26,0.12,-0.07,0.29
2022-11-15 21:21:07.8180,-0.27,-0.01,0.1,0.28
2022-11-15 21:21:07.8680,-0.24,-0.15,0.16,0.32
2022-11-15 21:21:07.8690,-0.24,-0.12,0.18,0.32
2022-11-15 21:21:07.8870,-0.17,-0.33,0.12,0.39
2022-11-15 21:21:07.8870,-0.22,-0.51,0.17,0.58
2022-11-15 21:21:07.9020,-0.32,-0.52,0.22,0.64
2022-11-15 21:21:07.9030,-0.35,-0.54,0.22,0.68
2022-11-15 21:21:07.9180,-0.36,-0.55,0.4,0.76
2022-11-15 21:21:07.9190,-0.35,-0.54,0.52,0.82
2022-11-15 21:21:07.9350,-0.3,-0.4,0.57,0.75
2022-11-15 21:21:07.9360,-0.24,-0.39,0.59,0.74
2022-11-15 21:21:07.9890,-0.21,-0.42,0.6,0.76
2022-11-15 21:21:07.9890,-0.18,-0.37,0.44,0.6
2022-11-15 21:21:08.0030,-0.12,-0.37,0.36,0.53
2022-11-15 21:21:08.0040,-0.04,-0.33,0.26,0.42
2022-11-15 21:21:08.0190,0.0,-0.22,0.19,0.29
2022-11-15 21:21:08.0200,0.01,-0.2,0.12,0.23
2022-11-15 21:21:08.0350,0.03,-0.27,0.0,0.27
2022-11-15 21:21:08.0360,0.03,-0.09,-0.05,0.1
2022-11-15 21:21:08.0510,0.06,-0.1,-0.03,0.12
2022-11-15 21:21:08.0520,0.09,-0.27,0.06,0.29
2022-11-15 21:21:08.1030,0.1,-0.48,0.16,0.51
2022-11-15 21:21:08.1040,-0.01,-0.47,0.19,0.5
2022-11-15 21:21:08.1200,-0.14,-0.37,0.32,0.5
2022-11-15 21:21:08.1210,-0.21,-0.4,0.36,0.57
2022-11-15 21:21:08.1360,-0.27,-0.32,0.32,0.52
2022-11-15 21:21:08.1360,-0.3,-0.31,0.32,0.53
2022-11-15 21:21:08.1510,-0.3,-0.37,0.22,0.52
2022-11-15 21:21:08.1520,-0.3,-0.44,0.06,0.53
2022-11-15 21:21:08.1680,-0.39,-0.59,0.06,0.7
2022-11-15 21:21:08.1690,-0.55,-0.46,0.26,0.76
2022-11-15 21:21:08.2200,-0.62,-0.38,0.35,0.8
2022-11-15 21:21:08.2200,-0.69,-0.4,0.33,0.86
2022-11-15 21:21:08.2370,-0.65,-0.34,0.23,0.76
2022-11-15 21:21:08.2370,-0.56,-0.33,0.12,0.66
2022-11-15 21:21:08.2520,-0.54,-0.12,-0.07,0.55
2022-11-15 21:21:08.2530,-0.46,0.01,-0.26,0.52
2022-11-15 21:21:08.2680,-0.32,-0.14,-0.47,0.58
2022-11-15 21:21:08.2690,-0.12,-0.44,-0.42,0.62
2022-11-15 21:21:08.2850,0.02,-0.7,-0.22,0.73
2022-11-15 21:21:08.2860,0.07,-0.7,-0.05,0.7
2022-11-15 21:21:08.3370,-0.07,-0.67,0.16,0.69
2022-11-15 21:21:08.3370,-0.26,-0.56,0.39,0.73
2022-11-15 21:21:08.3530,-0.37,-0.5,0.46,0.77
2022-11-15 21:21:08.3540,-0.38,-0.64,0.63,0.97
2022-11-15 21:21:08.3690,-0.35,-0.73,0.98,1.27
2022-11-15 21:21:08.3700,-0.24,-0.64,0.85,1.09
2022-11-15 21:21:08.3850,-0.14,-0.51,0.58,0.78
2022-11-15 21:21:08.3860,-0.11,-0.43,0.43,0.61
2022-11-15 21:21:08.4020,-0.12,-0.32,0.22,0.4
2022-11-15 21:21:08.4020,-0.06,-0.11,-0.06,0.13
2022-11-15 21:21:08.4530,0.1,0.13,-0.46,0.48
2022-11-15 21:21:08.4540,0.16,0.39,-0.57,0.7
2022-11-15 21:21:08.4700,0.24,0.6,-0.97,1.16
2022-11-15 21:21:08.4710,0.37,0.69,-1.04,1.3
2022-11-15 21:21:08.4860,0.42,0.44,-0.74,0.95
2022-11-15 21:21:08.4860,0.4,0.69,-0.59,0.99
2022-11-15 21:21:08.5020,0.36,0.95,-0.29,1.05
2022-11-15 21:21:08.5020,0.06,0.96,0.32,1.01
2022-11-15 21:21:08.5180,-0.28,0.86,0.59,1.07
2022-11-15 21:21:08.5190,-0.26,0.6,1.05,1.23
2022-11-15 21:21:08.5680,-0.21,0.39,1.09,1.17
2022-11-15 21:21:08.5690,0.03,0.37,0.57,0.68
2022-11-15 21:21:08.5860,0.34,0.18,0.25,0.45
2022-11-15 21:21:08.5870,0.6,-0.09,0.18,0.63
2022-11-15 21:21:08.6030,0.74,-0.2,0.11,0.77
2022-11-15 21:21:08.6030,0.74,-0.39,0.0,0.83
2022-11-15 21:21:08.6180,0.66,-0.38,-0.08,0.76
2022-11-15 21:21:08.6190,0.51,-0.3,0.05,0.59
2022-11-15 21:21:08.6350,0.31,-0.54,0.37,0.72
2022-11-15 21:21:08.6360,0.04,-0.32,0.64,0.71
2022-11-15 21:21:08.6850,-0.04,0.16,0.49,0.51
2022-11-15 21:21:08.6860,-0.04,-0.22,0.81,0.84
2022-11-15 21:21:08.7040,-0.04,-0.32,0.75,0.81
2022-11-15 21:21:08.7040,-0.02,0.1,0.16,0.18
2022-11-15 21:21:08.7190,-0.06,0.19,-0.32,0.37
2022-11-15 21:21:08.7200,-0.04,0.21,-0.68,0.71
2022-11-15 21:21:08.7350,-0.08,0.22,-0.97,0.99
2022-11-15 21:21:08.7360,0.0,0.03,-1.05,1.05
2022-11-15 21:21:08.7510,0.01,-0.25,-1.07,1.09
2022-11-15 21:21:08.7520,-0.02,0.06,-0.98,0.98
2022-11-15 21:21:08.8030,0.03,-0.03,-0.96,0.96
2022-11-15 21:21:08.8040,0.23,-0.29,-0.66,0.75
2022-11-15 21:21:08.8200,0.44,-0.55,-0.37,0.79
2022-11-15 21:21:08.8210,0.56,-0.41,-0.02,0.69
2022-11-15 21:21:08.8360,0.63,-0.26,0.19,0.7
2022-11-15 21:21:08.8370,0.64,-0.16,0.3,0.72
2022-11-15 21:21:08.8520,0.54,-0.03,0.22,0.58
2022-11-15 21:21:08.8520,0.35,0.05,0.11,0.37
2022-11-15 21:21:08.8680,0.23,0.2,0.14,0.33
2022-11-15 21:21:08.8690,0.09,0.16,0.03,0.18
2022-11-15 21:21:08.9180,-0.02,0.2,-0.13,0.23
2022-11-15 21:21:08.9190,-0.13,0.21,-0.18,0.3
2022-11-15 21:21:08.9370,-0.34,0.09,-0.1,0.36
2022-11-15 21:21:08.9380,-0.39,0.08,-0.02,0.39
2022-11-15 21:21:08.9530,-0.37,-0.02,0.0,0.37
2022-11-15 21:21:08.9530,-0.27,-0.11,-0.06,0.29
2022-11-15 21:21:08.9690,-0.13,-0.23,0.11,0.28
2022-11-15 21:21:08.9690,0.02,-0.3,0.14,0.33
2022-11-15 21:21:08.9850,0.13,-0.25,0.2,0.34
2022-11-15 21:21:08.9860,0.07,-0.18,-0.14,0.23
2022-11-15 21:21:09.0350,-0.07,0.12,-0.26,0.29
2022-11-15 21:21:09.0360,-0.34,0.27,0.22,0.48
2022-11-15 21:21:09.0530,-0.57,0.3,0.21,0.67
2022-11-15 21:21:09.0540,-0.37,0.32,-0.01,0.48
2022-11-15 21:21:09.0690,0.03,-0.05,0.01,0.05
2022-11-15 21:21:09.0700,0.34,-0.25,0.01,0.42
2022-11-15 21:21:09.0850,0.43,0.01,-0.08,0.43
2022-11-15 21:21:09.0860,0.44,0.18,-0.28,0.55
2022-11-15 21:21:09.1020,0.38,0.35,-0.17,0.54
2022-11-15 21:21:09.1020,0.31,0.44,-0.19,0.57
2022-11-15 21:21:09.1520,0.31,0.47,-0.46,0.72
2022-11-15 21:21:09.1530,0.45,0.38,-0.59,0.83
2022-11-15 21:21:09.1700,0.53,0.26,-0.73,0.93
2022-11-15 21:21:09.1710,0.62,-0.03,-0.73,0.95
2022-11-15 21:21:09.1860,0.44,-0.18,-0.56,0.73
2022-11-15 21:21:09.1870,0.25,0.08,-0.47,0.53
2022-11-15 21:21:09.2020,0.06,0.19,-0.42,0.46
2022-11-15 21:21:09.2030,-0.06,0.21,-0.29,0.36
2022-11-15 21:21:09.2180,-0.14,0.21,-0.33,0.41
2022-11-15 21:21:09.2190,-0.09,0.16,-0.43,0.46
2022-11-15 21:21:09.2680,0.12,0.02,-0.61,0.62
2022-11-15 21:21:09.2690,0.36,-0.02,-0.75,0.83
2022-11-15 21:21:09.2870,0.54,0.0,-0.71,0.89
2022-11-15 21:21:09.2870,0.59,0.0,-0.56,0.81
2022-11-15 21:21:09.3020,0.56,0.19,-0.31,0.66
2022-11-15 21:21:09.3030,0.49,0.21,-0.21,0.57
2022-11-15 21:21:09.3180,0.38,0.16,-0.02,0.41
2022-11-15 21:21:09.3190,0.19,0.16,0.14,0.28
2022-11-15 21:21:09.3350,0.04,0.07,0.4,0.4
2022-11-15 21:21:09.3360,-0.14,-0.01,0.7,0.71
2022-11-15 21:21:09.3850,-0.27,-0.21,0.89,0.95
2022-11-15 21:21:09.3860,-0.47,-0.36,0.97,1.13
2022-11-15 21:21:09.4030,-0.38,-0.14,1.01,1.08
2022-11-15 21:21:09.4040,-0.53,-0.17,0.8,0.97
2022-11-15 21:21:09.4190,-0.6,-0.14,0.68,0.91
2022-11-15 21:21:09.4200,-0.53,-0.22,0.49,0.75
2022-11-15 21:21:09.4350,-0.54,-0.19,0.36,0.67
2022-11-15 21:21:09.4360,-0.53,-0.05,0.27,0.59
2022-11-15 21:21:09.4510,-0.53,-0.03,0.1,0.54
2022-11-15 21:21:09.4520,-0.5,0.1,0.04,0.51
2022-11-15 21:21:09.5010,-0.35,0.17,-0.09,0.39
2022-11-15 21:21:09.5020,-0.4,0.1,0.01,0.41
2022-11-15 21:21:09.5200,-0.47,0.15,0.09,0.5
2022-11-15 21:21:09.5210,-0.54,0.06,0.04,0.54
2022-11-15 21:21:09.5360,-0.55,-0.01,-0.04,0.55
2022-11-15 21:21:09.5370,-0.42,0.02,-0.14,0.44
2022-11-15 21:21:09.5510,-0.31,-0.08,-0.21,0.38
2022-11-15 21:21:09.5520,-0.24,-0.12,-0.16,0.31
2022-11-15 21:21:09.5680,-0.15,-0.09,0.12,0.21
2022-11-15 21:21:09.5690,-0.01,-0.09,0.18,0.2
2022-11-15 21:21:09.6170,0.17,-0.09,0.26,0.32
2022-11-15 21:21:09.6180,0.25,-0.18,0.32,0.44
2022-11-15 21:21:09.6370,0.22,-0.19,0.19,0.34
2022-11-15 21:21:09.6380,0.18,-0.09,0.09,0.22
2022-11-15 21:21:09.6520,0.16,-0.16,0.06,0.23
2022-11-15 21:21:09.6530,0.24,-0.11,0.06,0.27
2022-11-15 21:21:09.6690,0.2,0.11,-0.1,0.24
2022-11-15 21:21:09.6690,0.08,0.19,-0.1,0.22
2022-11-15 21:21:09.6850,0.11,0.11,0.05,0.16
2022-11-15 21:21:09.6860,0.19,0.02,-0.03,0.19
2022-11-15 21:21:09.7340,0.32,0.02,-0.08,0.33
2022-11-15 21:21:09.7340,0.38,0.02,-0.12,0.39
2022-11-15 21:21:09.7530,0.36,0.07,-0.07,0.37
2022-11-15 21:21:09.7540,0.36,0.05,-0.01,0.36
2022-11-15 21:21:09.7690,0.34,-0.07,0.05,0.35
2022-11-15 21:21:09.7700,0.24,-0.07,0.14,0.28
2022-11-15 21:21:09.7850,0.15,-0.02,0.14,0.2
2022-11-15 21:21:09.7860,0.05,-0.03,0.11,0.12
2022-11-15 21:21:09.8010,-0.03,-0.03,0.01,0.04
2022-11-15 21:21:09.8020,-0.07,0.04,-0.02,0.08
2022-11-15 21:21:09.8500,-0.1,-0.08,-0.07,0.14
2022-11-15 21:21:09.8510,-0.13,-0.12,0.0,0.17
2022-11-15 21:21:09.8710,-0.11,-0.16,0.0,0.19
2022-11-15 21:21:09.8710,-0.12,-0.13,0.05,0.18
2022-11-15 21:21:09.8860,-0.15,-0.09,0.19,0.25
2022-11-15 21:21:09.8860,-0.13,-0.06,0.37,0.39
2022-11-15 21:21:09.9020,-0.1,-0.1,0.44,0.46
2022-11-15 21:21:09.9020,-0.11,-0.16,0.45,0.49
2022-11-15 21:21:09.9180,-0.11,-0.15,0.38,0.42
2022-11-15 21:21:09.9190,-0.12,-0.14,0.3,0.35
2022-11-15 21:21:09.9670,-0.09,-0.11,0.31,0.34
2022-11-15 21:21:09.9670,-0.06,-0.12,0.33,0.35
2022-11-15 21:21:09.9860,-0.08,-0.09,0.29,0.31
2022-11-15 21:21:09.9870,-0.07,-0.04,0.23,0.24
2022-11-15 21:21:10.0020,-0.07,-0.05,0.16,0.18
2022-11-15 21:21:10.0030,-0.08,-0.07,0.16,0.19
2022-11-15 21:21:10.0180,-0.09,-0.1,0.18,0.22
2022-11-15 21:21:10.0190,-0.12,-0.14,0.13,0.22
2022-11-15 21:21:10.0350,-0.16,-0.13,0.05,0.21
2022-11-15 21:21:10.0350,-0.21,-0.14,-0.03,0.25
2022-11-15 21:21:10.0830,-0.19,-0.07,-0.12,0.23
2022-11-15 21:21:10.0840,-0.09,-0.12,-0.15,0.21
2022-11-15 21:21:10.1040,-0.04,-0.13,-0.14,0.19
2022-11-15 21:21:10.1050,0.05,-0.04,-0.07,0.09
2022-11-15 21:21:10.1190,0.13,-0.03,-0.02,0.13
2022-11-15 21:21:10.1200,0.17,0.0,0.03,0.17
2022-11-15 21:21:10.1350,0.2,-0.01,0.0,0.2
2022-11-15 21:21:10.1360,0.18,0.01,-0.06,0.19
2022-11-15 21:21:10.1510,0.07,0.0,-0.1,0.12
2022-11-15 21:21:10.1520,-0.05,0.03,-0.02,0.06
2022-11-15 21:21:10.1990,-0.16,-0.02,0.03,0.16
2022-11-15 21:21:10.2000,-0.19,-0.02,0.05,0.19
2022-11-15 21:21:10.2210,-0.04,-0.04,-0.04,0.06
2022-11-15 21:21:10.2210,0.06,-0.1,-0.03,0.12
2022-11-15 21:21:10.2360,0.1,-0.04,-0.09,0.14
2022-11-15 21:21:10.2360,0.08,0.1,-0.07,0.14
2022-11-15 21:21:10.2510,0.0,0.08,-0.03,0.08
2022-11-15 21:21:10.2520,-0.02,0.02,0.0,0.02
2022-11-15 21:21:10.2680,-0.01,0.01,-0.12,0.12
2022-11-15 21:21:10.2690,0.02,0.06,-0.17,0.18
2022-11-15 21:21:10.3170,0.05,-0.02,-0.19,0.19
2022-11-15 21:21:10.3180,0.08,0.01,-0.14,0.16
2022-11-15 21:21:10.3370,0.1,0.05,-0.18,0.21
2022-11-15 21:21:10.3370,0.12,0.02,-0.21,0.24
2022-11-15 21:21:10.3520,0.13,-0.03,-0.26,0.29
2022-11-15 21:21:10.3530,0.11,-0.03,-0.16,0.19
2022-11-15 21:21:10.3680,0.05,0.01,-0.12,0.13
2022-11-15 21:21:10.3690,-0.06,0.12,0.0,0.13
2022-11-15 21:21:10.3850,-0.15,0.04,0.05,0.16
2022-11-15 21:21:10.3860,-0.11,0.05,0.03,0.12
2022-11-15 21:21:10.4320,-0.02,0.07,-0.12,0.14
2022-11-15 21:21:10.4330,0.17,0.12,-0.21,0.29
2022-11-15 21:21:10.4530,0.26,0.16,-0.19,0.35
2022-11-15 21:21:10.4540,0.28,0.14,0.02,0.31
2022-11-15 21:21:10.4690,0.39,0.13,-0.03,0.41
2022-11-15 21:21:10.4700,0.65,0.25,-0.22,0.73
2022-11-15 21:21:10.4850,0.78,0.29,-0.35,0.9
2022-11-15 21:21:10.4860,0.46,0.41,-0.37,0.71
2022-11-15 21:21:10.5010,0.15,0.48,-0.33,0.6
2022-11-15 21:21:10.5020,-0.01,0.37,-0.14,0.39
2022-11-15 21:21:10.5490,0.05,0.09,-0.07,0.12
2022-11-15 21:21:10.5490,0.21,0.04,-0.17,0.27
2022-11-15 21:21:10.5700,0.29,-0.07,-0.38,0.48
2022-11-15 21:21:10.5710,0.41,0.01,-0.32,0.52
2022-11-15 21:21:10.5860,0.49,0.1,-0.41,0.64
2022-11-15 21:21:10.5870,0.46,0.17,-0.37,0.61
2022-11-15 21:21:10.6020,0.34,0.14,-0.2,0.41
2022-11-15 21:21:10.6030,0.21,0.05,-0.05,0.22
2022-11-15 21:21:10.6180,0.01,0.09,0.15,0.17
2022-11-15 21:21:10.6190,-0.22,0.15,0.31,0.4
2022-11-15 21:21:10.6650,-0.5,0.03,0.48,0.69
2022-11-15 21:21:10.6660,-0.71,0.0,0.55,0.89
2022-11-15 21:21:10.6870,-0.99,0.11,0.79,1.27
2022-11-15 21:21:10.6870,-1.14,-0.15,0.74,1.36
2022-11-15 21:21:10.7020,-0.77,-0.45,0.53,1.03
2022-11-15 21:21:10.7030,-0.52,-0.21,0.28,0.62
2022-11-15 21:21:10.7180,-0.49,0.0,0.18,0.52
2022-11-15 21:21:10.7190,-0.51,-0.04,0.38,0.63
2022-11-15 21:21:10.7350,-0.6,-0.02,0.71,0.92
2022-11-15 21:21:10.7360,-0.66,-0.07,0.65,0.92
2022-11-15 21:21:10.7800,-0.1,-0.11,0.41,0.43
2022-11-15 21:21:10.7810,0.33,0.04,0.19,0.38
2022-11-15 21:21:10.7840,0.58,0.07,-0.16,0.6
2022-11-15 21:21:10.8020,0.73,0.23,-0.33,0.83
2022-11-15 21:21:10.8030,0.76,0.37,-0.55,1.0
2022-11-15 21:21:10.8180,0.85,0.51,-0.64,1.17
2022-11-15 21:21:10.8190,0.62,0.78,-0.45,1.09
2022-11-15 21:21:10.8340,0.13,0.97,-0.17,0.99
2022-11-15 21:21:10.8350,-0.32,0.96,0.07,1.01
2022-11-15 21:21:10.8520,-0.52,0.59,-0.02,0.78
2022-11-15 21:21:10.8970,-0.38,0.34,-0.26,0.57
2022-11-15 21:21:10.8980,-0.38,0.29,-0.35,0.59
2022-11-15 21:21:10.9020,-0.52,0.35,-0.4,0.74
2022-11-15 21:21:10.9190,-0.34,0.52,-0.66,0.9
2022-11-15 21:21:10.9200,-0.26,0.61,-0.56,0.86
2022-11-15 21:21:10.9350,0.0,0.65,-0.46,0.79
2022-11-15 21:21:10.9360,0.3,0.56,-0.58,0.86
2022-11-15 21:21:10.9510,0.34,0.17,-0.54,0.66
2022-11-15 21:21:10.9520,0.54,0.09,-0.41,0.68
2022-11-15 21:21:10.9680,0.68,0.17,-0.33,0.77
2022-11-15 21:21:11.0160,0.69,0.07,-0.09,0.69
2022-11-15 21:21:11.0170,0.81,0.11,0.0,0.81
2022-11-15 21:21:11.0370,0.9,0.41,0.02,0.98
2022-11-15 21:21:11.0380,0.45,0.52,0.18,0.71
2022-11-15 21:21:11.0520,0.16,0.34,0.3,0.48
2022-11-15 21:21:11.0530,0.02,-0.07,0.3,0.3
2022-11-15 21:21:11.0680,-0.06,-0.42,0.53,0.67
2022-11-15 21:21:11.0690,-0.15,-0.76,0.79,1.1
2022-11-15 21:21:11.0850,-0.01,-0.74,0.71,1.02
2022-11-15 21:21:11.0860,0.1,-0.72,0.84,1.11
2022-11-15 21:21:11.1310,0.22,-0.41,1.08,1.17
2022-11-15 21:21:11.1310,0.4,-0.15,1.05,1.13
2022-11-15 21:21:11.1330,0.3,-0.1,0.99,1.03
2022-11-15 21:21:11.1520,0.19,0.09,0.99,1.01
2022-11-15 21:21:11.1530,0.18,0.15,0.99,1.01
2022-11-15 21:21:11.1680,0.22,0.0,1.03,1.05
2022-11-15 21:21:11.1690,0.16,-0.08,1.06,1.07
2022-11-15 21:21:11.1850,0.23,0.04,1.07,1.09
2022-11-15 21:21:11.1850,0.45,-0.07,0.88,0.99
2022-11-15 21:21:11.2010,0.66,-0.05,0.39,0.76
2022-11-15 21:21:11.2480,0.33,0.29,0.22,0.49
2022-11-15 21:21:11.2490,0.12,0.38,-0.01,0.39
2022-11-15 21:21:11.2700,-0.01,0.58,-0.3,0.65
2022-11-15 21:21:11.2710,0.09,0.95,-0.45,1.05
2022-11-15 21:21:11.2860,0.06,1.04,-0.74,1.27
2022-11-15 21:21:11.2860,-0.04,1.03,-0.89,1.36
2022-11-15 21:21:11.3010,0.09,0.8,-0.99,1.27
2022-11-15 21:21:11.3020,-0.1,0.39,-0.69,0.79
2022-11-15 21:21:11.3180,-0.27,0.02,0.11,0.29
2022-11-15 21:21:11.3190,-0.09,-0.04,0.93,0.93
2022-11-15 21:21:11.3640,-0.31,0.1,0.87,0.92
2022-11-15 21:21:11.3650,-0.71,0.17,0.12,0.73
2022-11-15 21:21:11.3660,-0.68,0.33,-0.56,0.94
2022-11-15 21:21:11.3850,-0.48,0.54,-0.64,0.96
2022-11-15 21:21:11.3860,-0.53,0.47,-0.24,0.74
2022-11-15 21:21:11.4020,-0.16,0.32,0.14,0.38
2022-11-15 21:21:11.4020,0.26,0.04,0.26,0.36
2022-11-15 21:21:11.4180,1.6,1.75,0.24,2.38
2022-11-15 21:21:11.4190,2.2,2.47,0.51,3.34
2022-11-15 21:21:11.4350,1.31,1.31,0.39,1.89
2022-11-15 21:21:11.4800,0.75,0.68,0.08,1.01
2022-11-15 21:21:11.4810,0.96,0.61,-0.01,1.13
2022-11-15 21:21:11.4830,1.62,0.74,-0.14,1.78
2022-11-15 21:21:11.5020,1.91,0.84,-0.51,2.14
2022-11-15 21:21:11.5030,1.85,0.79,-0.58,2.09
2022-11-15 21:21:11.5180,0.56,-0.12,-0.47,0.74
2022-11-15 21:21:11.5190,-0.65,-0.85,-0.67,1.26
2022-11-15 21:21:11.5350,-0.25,-0.24,-0.39,0.52
2022-11-15 21:21:11.5360,0.47,0.44,-0.26,0.69
2022-11-15 21:21:11.5510,0.64,0.48,-0.52,0.95
2022-11-15 21:21:11.5970,0.22,-0.19,-0.86,0.9
2022-11-15 21:21:11.5970,-0.39,-0.94,-0.86,1.33
2022-11-15 21:21:11.6000,-0.55,-1.31,-0.27,1.44
2022-11-15 21:21:11.6190,-0.32,-1.5,0.37,1.57
2022-11-15 21:21:11.6190,0.07,-1.49,0.81,1.69
2022-11-15 21:21:11.6350,0.48,-1.2,1.28,1.81
2022-11-15 21:21:11.6350,0.74,-0.88,1.64,2.0
2022-11-15 21:21:11.6510,0.49,-0.9,2.59,2.78
2022-11-15 21:21:11.6520,-0.37,-1.26,3.8,4.02
2022-11-15 21:21:11.6680,-0.94,-1.62,2.59,3.19
2022-11-15 21:21:11.7140,-0.3,-1.41,0.96,1.73
2022-11-15 21:21:11.7150,0.03,-0.91,0.47,1.02
2022-11-15 21:21:11.7170,0.1,-0.69,-0.05,0.69
2022-11-15 21:21:11.7350,0.66,-0.52,-0.83,1.18
2022-11-15 21:21:11.7360,0.14,-0.24,-1.18,1.21
2022-11-15 21:21:11.7510,-0.27,-0.23,-1.35,1.39
2022-11-15 21:21:11.7520,-0.76,-0.43,-1.13,1.42
2022-11-15 21:21:11.7680,-1.14,-0.7,-0.5,1.42
2022-11-15 21:21:11.7690,-1.48,-0.86,0.36,1.74
2022-11-15 21:21:11.7850,-1.42,-0.81,0.81,1.82
2022-11-15 21:21:11.8310,0.9,-0.22,0.5,1.05
2022-11-15 21:21:11.8320,3.0,-0.11,-0.18,3.0
2022-11-15 21:21:11.8540,2.99,-0.51,-0.73,3.11
2022-11-15 21:21:11.8540,2.18,-0.59,-1.18,2.54
2022-11-15 21:21:11.8690,1.23,-0.79,-1.16,1.86
2022-11-15 21:21:11.8690,0.38,-1.02,-0.83,1.36
2022-11-15 21:21:11.8850,-0.9,-1.47,-0.6,1.82
2022-11-15 21:21:11.8860,-2.53,-2.03,-0.29,3.25
2022-11-15 21:21:11.9010,-3.51,-2.1,0.44,4.11
2022-11-15 21:21:11.9020,-3.49,-1.52,1.56,4.11
2022-11-15 21:21:11.9480,-1.44,-0.47,2.58,2.99
2022-11-15 21:21:11.9490,1.16,0.13,2.14,2.43
2022-11-15 21:21:11.9700,1.98,0.36,0.38,2.04
2022-11-15 21:21:11.9710,2.03,0.6,-1.12,2.39
2022-11-15 21:21:11.9860,1.45,0.3,-1.75,2.29
2022-11-15 21:21:11.9860,-0.15,-0.72,-0.94,1.19
2022-11-15 21:21:12.0010,-1.52,-1.73,0.75,2.42
2022-11-15 21:21:12.0020,-1.32,-1.8,1.59,2.74
2022-11-15 21:21:12.0180,-1.19,-1.13,1.09,1.97
2022-11-15 21:21:12.0190,-1.08,-0.32,-0.21,1.14
2022-11-15 21:21:12.0640,-0.82,0.69,-0.16,1.08
2022-11-15 21:21:12.0650,-0.56,1.15,-0.32,1.31
2022-11-15 21:21:12.0660,-0.43,1.19,-0.32,1.3
2022-11-15 21:21:12.0850,-0.52,0.88,-0.29,1.06
2022-11-15 21:21:12.0860,-0.3,0.48,-0.66,0.86
2022-11-15 21:21:12.1010,0.1,0.32,-0.59,0.67
2022-11-15 21:21:12.1020,1.1,1.15,-0.63,1.71
2022-11-15 21:21:12.1180,1.32,1.96,-0.95,2.54
2022-11-15 21:21:12.1190,0.53,0.31,-0.2,0.64
2022-11-15 21:21:12.1350,0.99,-0.27,-0.4,1.1
2022-11-15 21:21:12.1800,1.43,0.47,-0.88,1.74
2022-11-15 21:21:12.1810,1.25,0.8,-0.95,1.76
2022-11-15 21:21:12.1830,1.51,0.3,-0.95,1.8
2022-11-15 21:21:12.2020,1.62,-0.16,-1.1,1.96
2022-11-15 21:21:12.2030,1.18,-0.09,-1.12,1.62
2022-11-15 21:21:12.2180,1.14,0.07,-0.74,1.36
2022-11-15 21:21:12.2190,0.53,-0.23,-0.68,0.89
2022-11-15 21:21:12.2350,0.79,-0.23,-0.92,1.23
2022-11-15 21:21:12.2350,0.61,-0.42,-0.8,1.09
2022-11-15 21:21:12.2510,1.11,-0.35,-0.67,1.34
2022-11-15 21:21:12.2980,1.61,-0.11,-0.28,1.63
2022-11-15 21:21:12.2990,0.69,-0.25,-0.05,0.73
2022-11-15 21:21:12.3200,0.63,-0.24,-0.62,0.91
2022-11-15 21:21:12.3210,0.78,-0.36,-0.9,1.24
2022-11-15 21:21:12.3350,1.21,-0.86,-1.29,1.96
2022-11-15 21:21:12.3360,1.36,-1.14,-0.81,1.95
2022-11-15 21:21:12.3510,1.43,-0.86,0.23,1.68
2022-11-15 21:21:12.3520,1.6,-0.14,0.83,1.8
2022-11-15 21:21:12.3680,1.69,0.48,0.86,1.95
2022-11-15 21:21:12.3690,1.32,1.46,2.07,2.85
2022-11-15 21:21:12.4130,1.85,1.79,1.63,3.04
2022-11-15 21:21:12.4140,2.36,1.63,2.44,3.76
2022-11-15 21:21:12.4170,-0.08,0.73,2.26,2.37
2022-11-15 21:21:12.4350,-1.3,1.41,2.12,2.85
2022-11-15 21:21:12.4360,-0.86,2.38,2.45,3.52
2022-11-15 21:21:12.4510,-0.63,3.1,2.8,4.22
2022-11-15 21:21:12.4520,-0.54,3.06,1.95,3.66
2022-11-15 21:21:12.4680,-0.66,1.75,-0.14,1.87
2022-11-15 21:21:12.4690,-2.13,0.05,-2.23,3.08
2022-11-15 21:21:12.4850,-2.9,-1.28,-3.18,4.49
2022-11-15 21:21:12.5320,-3.12,-2.96,-2.16,4.81
2022-11-15 21:21:12.5330,-2.56,-3.58,1.06,4.52
2022-11-15 21:21:12.5530,-1.31,-1.77,3.14,3.83
2022-11-15 21:21:12.5540,-0.03,0.98,3.62,3.75
2022-11-15 21:21:12.5690,-0.08,2.15,2.64,3.4
2022-11-15 21:21:12.5700,-1.3,2.17,1.42,2.9
2022-11-15 21:21:12.5850,-2.56,2.16,0.88,3.46
2022-11-15 21:21:12.5860,-3.12,2.13,0.65,3.83
2022-11-15 21:21:12.6010,-3.55,2.24,0.16,4.2
2022-11-15 21:21:12.6020,-3.18,2.33,0.07,3.94
2022-11-15 21:21:12.6470,-1.92,2.66,0.92,3.4
2022-11-15 21:21:12.6480,-1.18,2.41,1.54,3.09
2022-11-15 21:21:12.6490,-0.99,1.78,1.32,2.42
2022-11-15 21:21:12.6680,-0.76,1.67,0.47,1.89
2022-11-15 21:21:12.6690,-0.06,1.53,0.09,1.53
2022-11-15 21:21:12.6850,0.81,0.91,0.2,1.23
2022-11-15 21:21:12.6860,0.72,-0.22,0.2,0.77
2022-11-15 21:21:12.7010,0.01,-1.16,0.32,1.2
2022-11-15 21:21:12.7020,-0.14,-1.19,0.58,1.33
2022-11-15 21:21:12.7180,0.38,-1.75,1.08,2.09
2022-11-15 21:21:12.7630,0.64,-2.33,1.18,2.68
2022-11-15 21:21:12.7640,1.37,-2.27,0.73,2.75
2022-11-15 21:21:12.7660,2.31,-1.83,0.06,2.94
2022-11-15 21:21:12.7850,2.75,-1.25,-0.49,3.06
2022-11-15 21:21:12.7860,3.61,-0.16,-1.1,3.77
2022-11-15 21:21:12.8010,3.37,0.22,-1.43,3.66
2022-11-15 21:21:12.8020,3.12,-0.22,-0.64,3.19
2022-11-15 21:21:12.8170,3.83,-0.95,0.47,3.97
2022-11-15 21:21:12.8180,2.99,-0.8,1.77,3.56
2022-11-15 21:21:12.8350,2.36,0.06,2.34,3.32
2022-11-15 21:21:12.8800,1.32,-0.37,1.9,2.34
2022-11-15 21:21:12.8810,0.08,-0.54,-0.09,0.55
2022-11-15 21:21:12.8830,0.71,-0.98,-1.72,2.1
2022-11-15 21:21:12.9020,1.72,-1.07,-2.18,2.97
2022-11-15 21:21:12.9020,2.02,-0.66,-2.19,3.05
2022-11-15 21:21:12.9180,1.33,-0.42,-1.94,2.38
2022-11-15 21:21:12.9190,0.38,-0.2,-1.47,1.53
2022-11-15 21:21:12.9350,-0.1,0.23,-1.16,1.18
2022-11-15 21:21:12.9360,-0.03,0.62,-1.0,1.17
2022-11-15 21:21:12.9520,0.0,0.78,-1.06,1.31
2022-11-15 21:21:12.9970,-0.32,0.63,-0.78,1.05
2022-11-15 21:21:12.9980,-0.89,0.59,-0.45,1.15
2022-11-15 21:21:13.0200,-1.43,0.77,-0.38,1.66
2022-11-15 21:21:13.0210,-1.65,1.16,-0.29,2.03
2022-11-15 21:21:13.0350,-1.38,1.4,-0.15,1.97
2022-11-15 21:21:13.0360,-1.2,0.45,1.91,2.3
2022-11-15 21:21:13.0510,-1.48,-0.55,1.49,2.17
2022-11-15 21:21:13.0520,-1.67,-1.5,0.85,2.4
2022-11-15 21:21:13.0680,-2.26,-2.34,1.29,3.49
2022-11-15 21:21:13.0690,-2.24,-2.18,1.09,3.31
2022-11-15 21:21:13.1160,-1.71,-1.36,0.65,2.27
2022-11-15 21:21:13.1170,-1.69,-0.33,0.21,1.73
2022-11-15 21:21:13.1350,-1.31,0.62,0.16,1.45
2022-11-15 21:21:13.1360,-0.78,1.22,0.31,1.48
2022-11-15 21:21:13.1510,-0.79,1.3,0.5,1.6
2022-11-15 21:21:13.1520,-1.2,0.73,0.72,1.57
2022-11-15 21:21:13.1680,-1.56,0.17,0.77,1.74
2022-11-15 21:21:13.1690,-1.71,-0.07,0.82,1.89
2022-11-15 21:21:13.1850,-1.97,-0.39,1.17,2.32
2022-11-15 21:21:13.1860,-2.95,-0.73,1.69,3.47
2022-11-15 21:21:13.2310,-4.43,-0.96,2.61,5.23
2022-11-15 21:21:13.2320,-5.25,0.14,3.96,6.57
2022-11-15 21:21:13.2540,-4.79,1.53,3.6,6.18
2022-11-15 21:21:13.2540,-4.05,1.67,0.88,4.46
2022-11-15 21:21:13.2690,-2.67,1.09,0.41,2.91
2022-11-15 21:21:13.2690,-1.19,0.65,0.41,1.41
2022-11-15 21:21:13.2850,0.04,0.57,-0.53,0.77
2022-11-15 21:21:13.2850,-0.32,0.45,-2.28,2.34
2022-11-15 21:21:13.3010,-2.26,0.13,-3.65,4.29
2022-11-15 21:21:13.3020,-3.11,0.02,-3.33,4.55
2022-11-15 21:21:13.3480,-1.98,0.08,-1.6,2.54
2022-11-15 21:21:13.3490,-0.86,-0.16,0.16,0.88
2022-11-15 21:21:13.3700,-0.64,-0.7,0.88,1.29
2022-11-15 21:21:13.3710,-1.73,-0.83,0.37,1.95
2022-11-15 21:21:13.3860,-2.17,-0.56,0.0,2.24
2022-11-15 21:21:13.3860,-1.98,-0.05,-0.08,1.98
2022-11-15 21:21:13.4010,-1.7,0.47,0.22,1.77
2022-11-15 21:21:13.4020,-1.56,0.58,0.39,1.7
2022-11-15 21:21:13.4180,-1.67,0.46,0.11,1.73
2022-11-15 21:21:13.4190,-1.6,0.14,-0.53,1.69
2022-11-15 21:21:13.4650,-1.31,0.16,-1.44,1.95
2022-11-15 21:21:13.4660,-0.74,0.32,-1.9,2.06
2022-11-15 21:21:13.4860,-0.51,0.66,-1.51,1.72
2022-11-15 21:21:13.4870,-0.75,0.96,-0.9,1.51
2022-11-15 21:21:13.5020,-1.03,0.24,0.04,1.05
