time,ax,ay,az,atotal
2022-11-15 21:20:43.2500,0.1,0.03,0.99,0.99
2022-11-15 21:20:43.2510,0.28,0.04,0.58,0.64
2022-11-15 21:20:43.2520,0.68,0.07,-0.25,0.72
2022-11-15 21:20:43.2540,0.44,0.07,-0.29,0.53
2022-11-15 21:20:43.2560,-0.14,0.14,0.09,0.21
2022-11-15 21:20:43.2580,-0.08,0.39,-0.23,0.45
2022-11-15 21:20:43.2680,0.07,0.54,-0.64,0.84
2022-11-15 21:20:43.2780,0.18,0.51,-0.64,0.83
2022-11-15 21:20:43.2890,0.2,0.41,-0.59,0.74
2022-11-15 21:20:43.2980,0.16,0.28,-0.64,0.71
2022-11-15 21:20:43.3500,0.14,0.19,-0.73,0.76
2022-11-15 21:20:43.3520,0.22,0.12,-0.78,0.81
2022-11-15 21:20:43.3530,0.38,0.06,-0.57,0.68
2022-11-15 21:20:43.3540,0.59,-0.03,-0.51,0.78
2022-11-15 21:20:43.3550,0.71,0.0,-0.65,0.96
2022-11-15 21:20:43.3700,0.61,0.1,-0.74,0.96
2022-11-15 21:20:43.3710,0.61,0.11,-0.7,0.93
2022-11-15 21:20:43.3790,0.76,0.08,-0.76,1.07
2022-11-15 21:20:43.3890,0.79,0.08,-0.83,1.14
2022-11-15 21:20:43.3990,0.66,0.15,-0.83,1.07
2022-11-15 21:20:43.4490,0.33,0.22,-0.86,0.94
2022-11-15 21:20:43.4500,0.06,0.2,-0.8,0.82
2022-11-15 21:20:43.4510,0.0,0.14,-0.75,0.76
2022-11-15 21:20:43.4520,0.17,0.07,-1.06,1.07
2022-11-15 21:20:43.4530,0.38,0.03,-1.47,1.51
2022-11-15 21:20:43.4690,0.45,-0.06,-1.73,1.78
2022-11-15 21:20:43.4700,0.56,-0.15,-1.81,1.9
2022-11-15 21:20:43.4790,0.62,-0.22,-1.83,1.94
2022-11-15 21:20:43.4890,0.93,-0.34,-1.52,1.81
2022-11-15 21:20:43.4990,1.82,-0.54,-1.2,2.24
2022-11-15 21:20:43.5500,2.08,-0.47,-1.32,2.5
2022-11-15 21:20:43.5510,1.95,-0.18,-1.51,2.47
2022-11-15 21:20:43.5530,1.24,-0.03,-1.73,2.12
2022-11-15 21:20:43.5560,0.4,-0.1,-1.48,1.53
2022-11-15 21:20:43.5580,-0.13,-0.27,-0.93,0.97
2022-11-15 21:20:43.5600,-0.44,-0.37,-0.43,0.71
2022-11-15 21:20:43.5690,-0.12,-0.37,-0.4,0.55
2022-11-15 21:20:43.5790,0.51,-0.43,-0.7,0.96
2022-11-15 21:20:43.5890,1.08,-0.61,-0.53,1.34
2022-11-15 21:20:43.5990,1.59,-0.76,-0.2,1.77
2022-11-15 21:20:43.6500,1.84,-0.7,-0.17,1.97
2022-11-15 21:20:43.6510,1.84,-0.5,-0.52,1.97
2022-11-15 21:20:43.6540,1.76,-0.29,-0.89,1.99
2022-11-15 21:20:43.6550,1.59,-0.24,-0.87,1.82
2022-11-15 21:20:43.6580,1.11,-0.22,-0.52,1.24
2022-11-15 21:20:43.6600,0.6,-0.48,0.04,0.76
2022-11-15 21:20:43.6690,0.58,-0.54,0.21,0.81
2022-11-15 21:20:43.6800,0.85,-0.46,-0.38,1.03
2022-11-15 21:20:43.6900,1.21,-0.63,-0.81,1.58
2022-11-15 21:20:43.6990,1.61,-1.04,-0.49,1.97
2022-11-15 21:20:43.7500,1.93,-1.43,0.16,2.4
2022-11-15 21:20:43.7510,1.98,-1.27,0.63,2.43
2022-11-15 21:20:43.7540,1.38,-0.66,0.33,1.56
2022-11-15 21:20:43.7560,0.39,0.0,-0.29,0.48
2022-11-15 21:20:43.7580,-0.62,0.38,-0.5,0.88
2022-11-15 21:20:43.7600,-1.24,0.34,-0.33,1.32
2022-11-15 21:20:43.7700,-1.16,0.12,-0.33,1.21
2022-11-15 21:20:43.7800,-0.77,-0.05,-0.72,1.05
2022-11-15 21:20:43.7900,-0.5,-0.17,-1.03,1.15
2022-11-15 21:20:43.8000,-0.51,-0.25,-0.65,0.86
2022-11-15 21:20:43.8510,-0.68,-0.26,0.19,0.75
2022-11-15 21:20:43.8520,-0.92,-0.41,0.36,1.06
2022-11-15 21:20:43.8540,-0.75,-0.85,0.14,1.14
2022-11-15 21:20:43.8570,-0.36,-1.4,0.22,1.46
2022-11-15 21:20:43.8590,-0.1,-1.73,0.34,1.76
2022-11-15 21:20:43.8610,0.61,-1.93,0.81,2.18
2022-11-15 21:20:43.8700,1.18,-1.64,0.65,2.12
2022-11-15 21:20:43.8800,0.68,-1.47,-0.8,1.8
2022-11-15 21:20:43.8900,-0.37,-1.49,-1.57,2.19
2022-11-15 21:20:43.9000,-0.64,-1.31,-0.95,1.74
2022-11-15 21:20:43.9520,-0.56,-1.23,-0.11,1.35
2022-11-15 21:20:43.9540,-0.9,-1.79,-0.47,2.05
2022-11-15 21:20:43.9540,-1.24,-2.54,-0.96,2.98
2022-11-15 21:20:43.9550,-1.62,-3.12,-0.85,3.61
2022-11-15 21:20:43.9560,-1.92,-3.3,-0.68,3.87
2022-11-15 21:20:43.9710,-1.88,-3.09,-0.74,3.69
2022-11-15 21:20:43.9710,-1.54,-2.63,-0.69,3.12
2022-11-15 21:20:43.9800,-1.25,-2.26,-0.39,2.61
2022-11-15 21:20:43.9900,-1.17,-2.18,0.11,2.47
2022-11-15 21:20:44.0000,-1.21,-2.24,0.5,2.59
2022-11-15 21:20:44.0520,-1.32,-2.37,0.66,2.79
2022-11-15 21:20:44.0530,-1.63,-2.48,0.79,3.07
2022-11-15 21:20:44.0550,-1.57,-2.44,0.82,3.01
2022-11-15 21:20:44.0580,-1.15,-2.38,0.99,2.82
2022-11-15 21:20:44.0600,-0.77,-2.26,1.52,2.83
2022-11-15 21:20:44.0620,-0.61,-2.05,1.76,2.76
2022-11-15 21:20:44.0710,-0.63,-1.83,1.78,2.62
2022-11-15 21:20:44.0810,-0.86,-1.45,1.78,2.45
2022-11-15 21:20:44.0910,-1.06,-1.0,1.65,2.2
2022-11-15 21:20:44.1010,-1.18,-0.6,1.82,2.25
2022-11-15 21:20:44.1520,-1.32,-0.35,2.01,2.43
2022-11-15 21:20:44.1530,-1.31,-0.17,2.37,2.71
2022-11-15 21:20:44.1540,-1.05,-0.08,2.97,3.15
2022-11-15 21:20:44.1560,-0.76,-0.21,3.44,3.52
2022-11-15 21:20:44.1580,-0.75,-0.3,4.02,4.1
2022-11-15 21:20:44.1610,-0.93,0.05,4.62,4.71
2022-11-15 21:20:44.1710,-0.95,0.82,4.66,4.82
2022-11-15 21:20:44.1810,-0.72,1.68,4.08,4.47
2022-11-15 21:20:44.1910,-0.49,2.55,3.47,4.33
2022-11-15 21:20:44.2010,-0.21,3.47,2.91,4.53
2022-11-15 21:20:44.2510,0.03,4.02,2.61,4.79
2022-11-15 21:20:44.2520,0.04,4.21,2.53,4.91
2022-11-15 21:20:44.2530,0.08,4.14,2.64,4.91
2022-11-15 21:20:44.2550,0.4,3.96,3.27,5.15
2022-11-15 21:20:44.2570,0.68,3.93,4.19,5.78
2022-11-15 21:20:44.2610,0.86,4.12,4.47,6.13
2022-11-15 21:20:44.2710,1.03,4.32,4.17,6.09
2022-11-15 21:20:44.2810,1.23,4.55,3.81,6.06
2022-11-15 21:20:44.2910,1.16,4.75,3.45,5.98
2022-11-15 21:20:44.3010,0.92,4.82,2.97,5.73
2022-11-15 21:20:44.3500,0.82,4.71,2.53,5.4
2022-11-15 21:20:44.3510,0.58,4.43,2.52,5.12
2022-11-15 21:20:44.3520,0.31,3.98,2.67,4.8
2022-11-15 21:20:44.3540,0.15,3.26,2.68,4.22
2022-11-15 21:20:44.3570,0.02,2.37,2.94,3.77
2022-11-15 21:20:44.3610,0.14,1.56,3.23,3.58
2022-11-15 21:20:44.3720,0.4,0.87,3.31,3.44
2022-11-15 21:20:44.3820,0.61,0.5,2.97,3.07
2022-11-15 21:20:44.3920,0.88,0.5,2.22,2.43
2022-11-15 21:20:44.4020,1.02,0.48,1.4,1.79
2022-11-15 21:20:44.4500,0.97,0.39,0.93,1.39
2022-11-15 21:20:44.4510,1.18,0.28,0.99,1.56
2022-11-15 21:20:44.4520,1.58,-0.03,0.87,1.8
2022-11-15 21:20:44.4540,1.88,-0.13,0.52,1.95
2022-11-15 21:20:44.4560,2.38,-0.16,0.41,2.42
2022-11-15 21:20:44.4620,2.7,-0.53,0.27,2.76
2022-11-15 21:20:44.4720,2.8,-1.01,0.06,2.97
2022-11-15 21:20:44.4820,2.82,-1.23,-0.21,3.08
2022-11-15 21:20:44.4920,2.72,-1.39,-0.28,3.06
2022-11-15 21:20:44.5020,2.42,-1.4,-0.47,2.83
2022-11-15 21:20:44.5510,2.06,-1.15,-0.7,2.46
2022-11-15 21:20:44.5520,1.86,-0.77,-0.85,2.18
2022-11-15 21:20:44.5530,1.76,-0.54,-1.02,2.1
2022-11-15 21:20:44.5550,1.67,-0.59,-1.0,2.03
2022-11-15 21:20:44.5580,1.58,-0.56,-0.65,1.79
2022-11-15 21:20:44.5620,0.85,-0.31,-0.29,0.95
2022-11-15 21:20:44.5720,-0.65,-0.14,-0.07,0.66
2022-11-15 21:20:44.5820,-1.54,-0.11,0.08,1.54
2022-11-15 21:20:44.5920,-1.69,0.12,0.11,1.69
2022-11-15 21:20:44.6020,-1.72,0.08,0.22,1.73
2022-11-15 21:20:44.6520,-1.47,0.14,-0.07,1.47
2022-11-15 21:20:44.6530,-1.27,0.24,-0.56,1.4
2022-11-15 21:20:44.6540,-1.07,0.15,-0.74,1.3
2022-11-15 21:20:44.6560,-0.8,-0.03,-0.6,1.0
2022-11-15 21:20:44.6580,-0.46,-0.19,-0.45,0.67
2022-11-15 21:20:44.6620,-0.07,-0.18,-0.29,0.34
2022-11-15 21:20:44.6730,0.31,-0.23,-0.43,0.57
2022-11-15 21:20:44.6830,0.75,-0.33,-0.71,1.08
2022-11-15 21:20:44.6930,0.91,-0.49,-0.84,1.33
2022-11-15 21:20:44.7030,0.6,-0.72,-0.82,1.24
2022-11-15 21:20:44.7520,0.14,-0.73,-0.5,0.89
2022-11-15 21:20:44.7530,-0.32,-0.48,-0.1,0.58
2022-11-15 21:20:44.7540,-0.57,-0.12,0.08,0.58
2022-11-15 21:20:44.7560,-0.34,-0.03,0.3,0.45
2022-11-15 21:20:44.7580,0.09,-0.18,0.07,0.21
2022-11-15 21:20:44.7630,0.47,-0.35,-0.11,0.59
2022-11-15 21:20:44.7730,0.71,-0.14,-0.45,0.85
2022-11-15 21:20:44.7830,0.52,0.06,-0.42,0.67
2022-11-15 21:20:44.7930,0.03,0.28,-0.16,0.32
2022-11-15 21:20:44.8030,-0.34,0.7,0.05,0.77
2022-11-15 21:20:44.8530,-0.87,0.95,0.24,1.31
2022-11-15 21:20:44.8540,-1.29,0.94,0.4,1.64
2022-11-15 21:20:44.8550,-1.33,0.94,0.61,1.73
2022-11-15 21:20:44.8570,-1.41,0.82,0.43,1.68
2022-11-15 21:20:44.8590,-1.29,0.76,0.4,1.54
2022-11-15 21:20:44.8630,-1.04,0.85,0.19,1.35
2022-11-15 21:20:44.8730,-0.99,0.73,0.05,1.23
2022-11-15 21:20:44.8830,-0.61,0.78,0.24,1.01
2022-11-15 21:20:44.8930,-0.06,0.96,0.46,1.06
2022-11-15 21:20:44.9030,0.44,0.93,0.89,1.36
2022-11-15 21:20:44.9540,0.84,0.84,1.28,1.74
2022-11-15 21:20:44.9550,1.0,0.57,1.33,1.75
2022-11-15 21:20:44.9560,0.68,0.02,1.18,1.36
2022-11-15 21:20:44.9580,0.61,-0.36,1.05,1.26
2022-11-15 21:20:44.9600,0.55,-0.42,0.8,1.05
2022-11-15 21:20:44.9630,0.29,-0.61,0.77,1.02
2022-11-15 21:20:44.9730,0.17,-0.76,1.02,1.28
2022-11-15 21:20:44.9830,-0.04,-0.65,1.07,1.25
2022-11-15 21:20:44.9940,-0.51,-0.49,1.27,1.45
2022-11-15 21:20:45.0040,-0.63,-0.27,0.96,1.17
2022-11-15 21:20:45.0540,-0.41,-0.45,0.6,0.85
2022-11-15 21:20:45.0550,-0.2,-0.82,0.6,1.03
2022-11-15 21:20:45.0560,0.13,-0.63,0.14,0.65
2022-11-15 21:20:45.0580,0.54,-0.5,-0.3,0.79
2022-11-15 21:20:45.0600,0.53,-0.2,-0.51,0.76
2022-11-15 21:20:45.0640,0.15,0.33,-0.52,0.63
2022-11-15 21:20:45.0740,-0.41,0.74,-0.55,1.0
2022-11-15 21:20:45.0840,-0.82,1.05,-0.56,1.44
2022-11-15 21:20:45.0940,-1.28,1.2,-0.61,1.85
2022-11-15 21:20:45.1040,-1.52,1.17,-0.48,1.97
2022-11-15 21:20:45.1550,-1.61,1.22,-0.16,2.02
2022-11-15 21:20:45.1560,-1.71,1.08,0.17,2.02
2022-11-15 21:20:45.1570,-1.42,0.86,-0.05,1.66
2022-11-15 21:20:45.1590,-0.86,0.68,-0.69,1.29
2022-11-15 21:20:45.1610,-0.32,0.54,-1.0,1.18
2022-11-15 21:20:45.1640,0.06,0.36,-1.39,1.43
2022-11-15 21:20:45.1740,0.32,0.3,-2.0,2.04
2022-11-15 21:20:45.1840,0.72,-0.12,-1.92,2.05
2022-11-15 21:20:45.1940,0.95,-0.64,-1.9,2.21
2022-11-15 21:20:45.2040,1.0,-0.99,-2.09,2.51
2022-11-15 21:20:45.2560,1.1,-1.45,-2.13,2.8
2022-11-15 21:20:45.2570,1.11,-1.98,-1.71,2.84
2022-11-15 21:20:45.2580,0.95,-2.28,-1.2,2.74
2022-11-15 21:20:45.2600,0.56,-1.83,-0.42,1.95
2022-11-15 21:20:45.2620,-0.14,-1.12,0.19,1.14
2022-11-15 21:20:45.2640,-1.0,-0.73,0.06,1.23
2022-11-15 21:20:45.2740,-1.03,-0.56,-0.21,1.19
2022-11-15 21:20:45.2840,-0.83,-0.75,-0.4,1.18
2022-11-15 21:20:45.2940,-0.76,-1.18,-0.39,1.45
2022-11-15 21:20:45.3050,-0.36,-1.38,0.01,1.42
2022-11-15 21:20:45.3560,-0.21,-1.15,0.38,1.22
2022-11-15 21:20:45.3570,-0.43,-0.71,0.67,1.06
2022-11-15 21:20:45.3580,-0.58,-0.27,0.7,0.94
2022-11-15 21:20:45.3600,-0.63,0.0,0.58,0.85
2022-11-15 21:20:45.3620,-0.78,0.03,0.54,0.94
2022-11-15 21:20:45.3650,-1.01,-0.05,0.57,1.16
2022-11-15 21:20:45.3750,-1.25,0.19,0.2,1.28
2022-11-15 21:20:45.3850,-1.35,0.41,-0.08,1.41
2022-11-15 21:20:45.3950,-1.28,0.6,-0.3,1.44
2022-11-15 21:20:45.4050,-1.06,0.64,-0.86,1.5
2022-11-15 21:20:45.4570,-0.61,0.6,-1.05,1.35
2022-11-15 21:20:45.4580,-0.16,0.64,-0.9,1.11
2022-11-15 21:20:45.4590,0.26,1.05,-0.75,1.31
2022-11-15 21:20:45.4610,0.56,1.5,-0.25,1.62
2022-11-15 21:20:45.4630,0.6,1.71,0.35,1.84
2022-11-15 21:20:45.4660,0.82,1.59,0.78,1.95
2022-11-15 21:20:45.4750,1.11,1.33,1.14,2.07
2022-11-15 21:20:45.4850,1.33,0.94,0.93,1.87
2022-11-15 21:20:45.4950,1.82,0.77,0.37,2.01
2022-11-15 21:20:45.5050,2.06,0.85,0.12,2.23
2022-11-15 21:20:45.5570,1.74,0.87,0.12,1.94
2022-11-15 21:20:45.5580,1.17,0.78,0.46,1.47
2022-11-15 21:20:45.5590,0.76,0.82,0.91,1.44
2022-11-15 21:20:45.5610,0.42,0.93,1.11,1.5
2022-11-15 21:20:45.5630,0.08,1.19,1.11,1.62
2022-11-15 21:20:45.5650,0.03,1.16,0.97,1.51
2022-11-15 21:20:45.5750,0.26,1.06,0.22,1.11
2022-11-15 21:20:45.5850,0.24,0.87,-0.4,0.98
2022-11-15 21:20:45.5950,0.05,0.39,-0.6,0.71
2022-11-15 21:20:45.6060,-0.38,0.05,-0.68,0.78
2022-11-15 21:20:45.6590,-0.71,-0.2,-0.32,0.8
2022-11-15 21:20:45.6600,-0.45,-0.46,0.25,0.69
2022-11-15 21:20:45.6610,-0.14,-0.45,0.53,0.7
2022-11-15 21:20:45.6630,0.1,-0.49,0.57,0.75
2022-11-15 21:20:45.6650,0.15,-0.81,0.53,0.97
2022-11-15 21:20:45.6670,0.27,-0.52,0.45,0.73
2022-11-15 21:20:45.6760,0.34,0.33,0.53,0.71
2022-11-15 21:20:45.6860,0.11,0.1,0.32,0.35
2022-11-15 21:20:45.6960,-0.38,0.2,0.06,0.43
2022-11-15 21:20:45.7060,-0.25,0.36,-0.05,0.44
2022-11-15 21:20:45.7590,-0.26,0.46,-0.13,0.54
2022-11-15 21:20:45.7600,-0.13,0.63,-0.38,0.74
2022-11-15 21:20:45.7610,-0.15,0.33,-0.79,0.86
2022-11-15 21:20:45.7630,-0.16,-0.01,-1.01,1.02
2022-11-15 21:20:45.7650,-0.08,-0.31,-0.99,1.04
2022-11-15 21:20:45.7670,-0.34,-0.32,-0.77,0.9
2022-11-15 21:20:45.7760,-0.91,0.15,0.0,0.92
2022-11-15 21:20:45.7860,-0.8,0.52,0.96,1.35
2022-11-15 21:20:45.7960,-0.45,0.7,1.16,1.42
2022-11-15 21:20:45.8060,-0.42,0.79,1.29,1.56
2022-11-15 21:20:45.8600,-0.51,0.83,1.2,1.54
2022-11-15 21:20:45.8610,-0.49,0.96,1.03,1.49
2022-11-15 21:20:45.8610,-0.48,1.48,1.0,1.84
2022-11-15 21:20:45.8640,-0.39,1.95,1.07,2.25
2022-11-15 21:20:45.8660,-0.07,1.72,1.18,2.08
2022-11-15 21:20:45.8670,-0.27,1.62,0.97,1.9
2022-11-15 21:20:45.8760,-0.81,2.34,1.11,2.71
2022-11-15 21:20:45.8860,-0.6,1.54,-0.07,1.65
2022-11-15 21:20:45.8960,0.23,0.69,-0.01,0.72
2022-11-15 21:20:45.9060,-0.12,0.74,0.53,0.91
2022-11-15 21:20:45.9600,-0.28,0.86,0.99,1.34
2022-11-15 21:20:45.9610,-0.09,0.74,1.26,1.46
2022-11-15 21:20:45.9620,0.11,-0.76,0.62,0.98
2022-11-15 21:20:45.9640,0.83,-0.66,0.02,1.06
2022-11-15 21:20:45.9660,1.01,-0.46,-0.23,1.13
2022-11-15 21:20:45.9680,0.89,-0.51,-0.15,1.03
2022-11-15 21:20:45.9770,0.58,0.29,0.43,0.77
2022-11-15 21:20:45.9860,-0.05,0.52,0.83,0.98
2022-11-15 21:20:45.9970,-0.35,0.16,0.49,0.62
2022-11-15 21:20:46.0070,-0.35,-0.16,0.36,0.52
2022-11-15 21:20:46.0600,-0.47,-0.66,-0.2,0.83
2022-11-15 21:20:46.0610,0.23,-1.63,-0.78,1.82
2022-11-15 21:20:46.0630,0.92,-2.0,-1.13,2.47
2022-11-15 21:20:46.0650,0.79,-2.1,-1.19,2.53
2022-11-15 21:20:46.0670,0.41,-1.79,-0.93,2.05
2022-11-15 21:20:46.0680,0.11,-1.32,-0.46,1.4
2022-11-15 21:20:46.0860,-0.31,-0.94,-0.01,0.98
2022-11-15 21:20:46.0870,-0.44,-0.55,0.11,0.71
2022-11-15 21:20:46.0970,-0.01,-0.3,0.21,0.36
2022-11-15 21:20:46.1070,0.21,-0.08,0.09,0.24
2022-11-15 21:20:46.1600,0.33,0.27,-0.13,0.44
2022-11-15 21:20:46.1610,0.28,0.28,-0.47,0.61
2022-11-15 21:20:46.1640,-0.07,-0.1,-0.51,0.52
2022-11-15 21:20:46.1660,-0.45,-0.38,-0.2,0.62
2022-11-15 21:20:46.1670,-0.49,-0.63,0.04,0.79
2022-11-15 21:20:46.1690,-0.18,-0.61,0.02,0.63
2022-11-15 21:20:46.1770,0.21,-0.36,0.08,0.42
2022-11-15 21:20:46.1870,0.28,-0.12,0.16,0.34
2022-11-15 21:20:46.1970,0.36,0.25,-0.04,0.44
2022-11-15 21:20:46.2070,0.42,0.48,-0.24,0.68
2022-11-15 21:20:46.2620,0.32,0.55,-0.3,0.7
2022-11-15 21:20:46.2630,0.13,0.49,-0.48,0.69
2022-11-15 21:20:46.2640,0.07,0.32,-0.45,0.55
2022-11-15 21:20:46.2650,0.14,0.1,-0.58,0.6
2022-11-15 21:20:46.2660,0.48,-0.04,-0.34,0.58
2022-11-15 21:20:46.2860,0.51,-0.01,-0.26,0.57
2022-11-15 21:20:46.2870,0.15,-0.09,-0.1,0.2
2022-11-15 21:20:46.2880,-0.15,-0.18,-0.24,0.33
2022-11-15 21:20:46.2980,-0.44,-0.15,-0.28,0.54
2022-11-15 21:20:46.3080,-0.59,-0.16,-0.21,0.64
2022-11-15 21:20:46.3620,-0.64,-0.18,-0.12,0.67
2022-11-15 21:20:46.3630,-0.51,-0.15,0.12,0.54
2022-11-15 21:20:46.3650,-0.34,-0.08,-0.06,0.35
2022-11-15 21:20:46.3670,-0.26,0.02,0.11,0.28
2022-11-15 21:20:46.3680,-0.01,0.14,0.23,0.26
2022-11-15 21:20:46.3860,-0.35,0.3,-0.06,0.46
2022-11-15 21:20:46.3870,-1.33,0.75,0.63,1.65
2022-11-15 21:20:46.3880,-2.77,1.19,0.58,3.07
2022-11-15 21:20:46.3980,-2.64,-0.25,-1.41,3.0
2022-11-15 21:20:46.4080,-1.18,-0.75,-0.38,1.44
2022-11-15 21:20:46.4630,-0.34,-0.48,0.2,0.62
2022-11-15 21:20:46.4650,-0.49,-0.15,0.44,0.67
2022-11-15 21:20:46.4660,-1.32,0.13,0.52,1.42
2022-11-15 21:20:46.4670,-2.15,0.45,0.33,2.22
2022-11-15 21:20:46.4860,-2.82,1.07,0.36,3.03
2022-11-15 21:20:46.4870,-3.44,2.24,0.29,4.11
2022-11-15 21:20:46.4900,-3.57,3.29,-0.08,4.85
2022-11-15 21:20:46.4920,-3.26,2.53,0.46,4.15
2022-11-15 21:20:46.4980,-2.67,0.48,0.54,2.76
2022-11-15 21:20:46.5080,-1.37,-1.02,0.21,1.72
2022-11-15 21:20:46.5630,-0.02,-1.74,0.11,1.74
2022-11-15 21:20:46.5650,1.17,-2.16,-0.01,2.45
2022-11-15 21:20:46.5650,2.09,-2.35,0.14,3.14
2022-11-15 21:20:46.5660,2.36,-2.28,0.66,3.34
2022-11-15 21:20:46.5860,2.13,-1.7,0.84,2.85
2022-11-15 21:20:46.5870,1.74,-0.95,0.53,2.05
2022-11-15 21:20:46.5880,1.3,-0.58,-0.17,1.43
2022-11-15 21:20:46.5890,0.92,-0.71,-0.68,1.34
2022-11-15 21:20:46.6020,1.01,-1.0,-0.43,1.48
2022-11-15 21:20:46.6090,1.36,-0.87,-0.46,1.67
2022-11-15 21:20:46.6630,1.16,-0.6,-1.0,1.64
2022-11-15 21:20:46.6650,0.33,-0.77,-1.37,1.6
2022-11-15 21:20:46.6660,0.88,-0.25,-0.59,1.08
2022-11-15 21:20:46.6670,1.63,0.83,-0.89,2.03
2022-11-15 21:20:46.6890,2.91,1.12,1.24,3.35
2022-11-15 21:20:46.6900,3.8,0.75,3.23,5.04
2022-11-15 21:20:46.6910,1.54,-1.24,-0.86,2.15
2022-11-15 21:20:46.6920,0.08,-1.59,-3.13,3.51
2022-11-15 21:20:46.6990,1.26,-0.09,0.14,1.27
2022-11-15 21:20:46.7090,0.39,0.34,-0.19,0.55
2022-11-15 21:20:46.7650,-1.28,-0.21,-0.95,1.6
2022-11-15 21:20:46.7670,-1.28,0.41,-0.96,1.65
2022-11-15 21:20:46.7680,-0.62,1.19,-0.82,1.57
2022-11-15 21:20:46.7680,0.03,0.69,-0.77,1.03
2022-11-15 21:20:46.7690,0.24,-0.05,-0.91,0.94
2022-11-15 21:20:46.7860,0.22,-0.33,-1.02,1.09
2022-11-15 21:20:46.7870,0.67,-0.58,-0.8,1.19
2022-11-15 21:20:46.7890,0.62,-0.62,-0.23,0.9
2022-11-15 21:20:46.7990,-0.41,-0.34,0.38,0.65
2022-11-15 21:20:46.8090,-1.38,0.0,0.82,1.6
2022-11-15 21:20:46.8640,-1.12,0.0,0.92,1.44
2022-11-15 21:20:46.8660,-0.63,-0.16,0.89,1.1
2022-11-15 21:20:46.8670,-0.39,-0.38,1.04,1.17
2022-11-15 21:20:46.8670,-0.26,-0.36,0.82,0.93
2022-11-15 21:20:46.8690,-0.22,-0.36,0.39,0.57
2022-11-15 21:20:46.8720,-0.54,-0.57,0.26,0.82
2022-11-15 21:20:46.8790,-1.1,-0.72,0.22,1.33
2022-11-15 21:20:46.8900,-1.27,-0.9,0.08,1.55
2022-11-15 21:20:46.8990,-0.98,-1.34,0.01,1.66
2022-11-15 21:20:46.9090,-0.84,-1.43,-0.09,1.66
2022-11-15 21:20:46.9650,-0.5,-1.16,0.55,1.37
2022-11-15 21:20:46.9670,0.14,-0.38,1.56,1.61
2022-11-15 21:20:46.9680,0.54,0.95,2.2,2.45
2022-11-15 21:20:46.9680,0.75,2.43,2.17,3.34
2022-11-15 21:20:46.9690,-0.17,3.05,1.44,3.37
2022-11-15 21:20:46.9860,-2.35,3.35,0.73,4.15
2022-11-15 21:20:46.9870,-4.25,4.06,0.29,5.88
2022-11-15 21:20:46.9900,-4.69,4.32,-0.44,6.39
2022-11-15 21:20:47.0000,-3.55,3.55,-1.32,5.19
2022-11-15 21:20:47.0100,-1.28,2.75,-0.65,3.1
2022-11-15 21:20:47.0650,0.23,2.63,0.75,2.74
2022-11-15 21:20:47.0670,1.0,2.74,1.72,3.38
2022-11-15 21:20:47.0680,1.05,2.89,2.78,4.14
2022-11-15 21:20:47.0690,0.14,3.57,3.47,4.98
2022-11-15 21:20:47.0690,-0.36,4.55,3.18,5.56
2022-11-15 21:20:47.0860,-0.88,4.98,2.5,5.64
2022-11-15 21:20:47.0870,-1.12,5.07,1.42,5.38
2022-11-15 21:20:47.0900,-0.61,4.73,0.22,4.77
2022-11-15 21:20:47.1000,0.13,4.15,-0.31,4.16
2022-11-15 21:20:47.1100,0.26,3.65,-0.35,3.67
2022-11-15 21:20:47.1650,-0.12,2.94,0.31,2.95
2022-11-15 21:20:47.1670,-0.19,2.07,0.39,2.11
2022-11-15 21:20:47.1680,0.46,1.18,-0.09,1.26
2022-11-15 21:20:47.1690,1.01,-0.32,-0.61,1.22
2022-11-15 21:20:47.1690,0.99,-2.31,-1.47,2.91
2022-11-15 21:20:47.1860,0.7,-4.72,-2.3,5.29
2022-11-15 21:20:47.1870,0.1,-6.74,-3.32,7.51
2022-11-15 21:20:47.1900,-1.13,-7.32,-2.78,7.91
2022-11-15 21:20:47.2000,-1.38,-5.91,-1.82,6.33
2022-11-15 21:20:47.2100,-0.7,-4.13,-1.5,4.44
2022-11-15 21:20:47.2630,0.25,-2.74,-1.16,2.98
2022-11-15 21:20:47.2650,1.97,-1.3,-1.78,2.95
2022-11-15 21:20:47.2660,2.81,-0.68,-2.53,3.84
2022-11-15 21:20:47.2670,2.92,-0.82,-2.68,4.04
2022-11-15 21:20:47.2860,2.65,-1.6,-3.11,4.38
2022-11-15 21:20:47.2870,1.88,-2.31,-3.42,4.53
2022-11-15 21:20:47.2880,0.64,-2.15,-2.21,3.14
2022-11-15 21:20:47.2910,-0.67,-1.52,-0.38,1.7
2022-11-15 21:20:47.3010,-2.79,-2.22,1.12,3.73
2022-11-15 21:20:47.3110,-4.4,-2.38,1.65,5.26
2022-11-15 21:20:47.3640,-5.64,-1.65,2.32,6.31
2022-11-15 21:20:47.3660,-6.8,-1.4,2.73,7.46
2022-11-15 21:20:47.3660,-3.21,0.22,3.03,4.41
2022-11-15 21:20:47.3670,-1.03,1.7,2.87,3.49
2022-11-15 21:20:47.3860,0.32,3.49,3.1,4.67
2022-11-15 21:20:47.3870,1.24,4.09,3.16,5.31
2022-11-15 21:20:47.3890,0.42,2.94,2.15,3.66
2022-11-15 21:20:47.3920,-0.79,2.35,0.39,2.5
2022-11-15 21:20:47.4010,-1.49,1.42,-0.8,2.2
2022-11-15 21:20:47.4110,-1.3,0.47,-1.27,1.87
2022-11-15 21:20:47.4640,-0.73,-0.2,-1.8,1.95
2022-11-15 21:20:47.4660,0.04,-0.44,-1.68,1.73
2022-11-15 21:20:47.4670,0.66,-0.55,-1.44,1.67
2022-11-15 21:20:47.4670,1.22,-0.5,-1.19,1.77
2022-11-15 21:20:47.4690,1.97,0.08,-0.36,2.0
2022-11-15 21:20:47.4720,2.48,0.75,0.44,2.62
2022-11-15 21:20:47.4810,2.24,1.06,0.66,2.56
2022-11-15 21:20:47.4910,1.3,0.99,0.32,1.66
2022-11-15 21:20:47.5010,0.26,0.88,-0.43,1.01
2022-11-15 21:20:47.5120,-0.56,0.65,-1.33,1.58
2022-11-15 21:20:47.5640,-1.27,-0.02,-1.76,2.17
2022-11-15 21:20:47.5670,-1.59,-0.4,-1.73,2.38
2022-11-15 21:20:47.5670,-1.09,-0.18,-1.37,1.75
2022-11-15 21:20:47.5680,-0.07,-0.11,-0.39,0.41
2022-11-15 21:20:47.5690,0.47,-0.06,1.17,1.26
2022-11-15 21:20:47.5860,0.33,0.11,2.61,2.63
2022-11-15 21:20:47.5870,-0.3,0.12,3.66,3.67
2022-11-15 21:20:47.5920,-1.07,0.2,3.7,3.85
2022-11-15 21:20:47.6020,-1.22,0.17,2.57,2.84
2022-11-15 21:20:47.6120,-0.68,-0.17,1.47,1.62
2022-11-15 21:20:47.6650,-0.27,-0.18,0.55,0.63
2022-11-15 21:20:47.6660,-0.01,-0.21,-0.7,0.73
2022-11-15 21:20:47.6670,-0.28,-0.78,-1.55,1.75
2022-11-15 21:20:47.6680,-0.71,-0.83,-2.15,2.41
2022-11-15 21:20:47.6690,-0.15,-0.38,-2.12,2.15
2022-11-15 21:20:47.6860,1.13,0.26,-1.44,1.84
2022-11-15 21:20:47.6870,1.64,0.7,-0.72,1.92
2022-11-15 21:20:47.6920,1.06,0.58,0.25,1.23
2022-11-15 21:20:47.7020,0.17,0.35,1.25,1.3
2022-11-15 21:20:47.7120,-0.37,0.32,1.25,1.34
2022-11-15 21:20:47.7650,-0.26,0.36,0.61,0.75
2022-11-15 21:20:47.7670,0.17,0.61,-0.14,0.64
2022-11-15 21:20:47.7680,0.76,1.19,-1.13,1.8
2022-11-15 21:20:47.7690,-0.08,2.1,-2.9,3.58
2022-11-15 21:20:47.7690,-1.76,2.05,-2.86,3.93
2022-11-15 21:20:47.7860,-0.87,1.5,-0.72,1.87
2022-11-15 21:20:47.7870,0.26,0.7,0.77,1.07
2022-11-15 21:20:47.7920,0.09,-0.15,0.35,0.39
2022-11-15 21:20:47.8020,-0.25,-0.91,0.1,0.94
2022-11-15 21:20:47.8120,-0.58,-1.75,0.98,2.08
2022-11-15 21:20:47.8650,-1.05,-2.45,1.37,2.99
2022-11-15 21:20:47.8670,-0.99,-2.26,0.51,2.51
2022-11-15 21:20:47.8680,-0.1,-1.55,-0.25,1.57
2022-11-15 21:20:47.8690,0.38,-1.38,-0.74,1.61
2022-11-15 21:20:47.8690,0.49,-1.49,-0.98,1.84
2022-11-15 21:20:47.8860,0.62,-1.77,-0.15,1.88
2022-11-15 21:20:47.8870,0.31,-1.55,0.1,1.58
2022-11-15 21:20:47.8920,0.06,-1.18,0.01,1.18
2022-11-15 21:20:47.9020,-0.02,-0.81,-0.66,1.04
2022-11-15 21:20:47.9130,0.25,-0.36,-0.36,0.56
2022-11-15 21:20:47.9670,1.08,0.7,0.8,1.51
2022-11-15 21:20:47.9690,0.9,0.89,1.35,1.85
2022-11-15 21:20:47.9700,-0.42,0.5,-0.01,0.65
2022-11-15 21:20:47.9700,-1.28,0.34,-0.75,1.52
2022-11-15 21:20:47.9710,-1.49,0.05,-1.47,2.09
2022-11-15 21:20:47.9880,-0.95,-0.01,-1.92,2.14
2022-11-15 21:20:47.9890,-0.3,0.35,-1.41,1.48
2022-11-15 21:20:47.9930,0.16,1.29,-0.45,1.37
2022-11-15 21:20:48.0030,0.16,2.14,0.67,2.24
2022-11-15 21:20:48.0130,0.42,2.59,1.42,2.98
2022-11-15 21:20:48.0670,0.39,1.56,0.54,1.69
2022-11-15 21:20:48.0690,-0.67,0.79,0.39,1.1
2022-11-15 21:20:48.0700,-0.89,1.61,1.07,2.12
2022-11-15 21:20:48.0710,-0.64,2.07,1.81,2.82
2022-11-15 21:20:48.0710,-0.4,1.74,1.62,2.41
2022-11-15 21:20:48.0860,-0.16,1.6,0.65,1.73
2022-11-15 21:20:48.0870,-0.36,2.03,0.12,2.06
2022-11-15 21:20:48.0930,-0.9,2.53,0.74,2.78
2022-11-15 21:20:48.1030,-1.02,2.12,1.91,3.03
2022-11-15 21:20:48.1130,-1.29,1.23,1.53,2.34
2022-11-15 21:20:48.1670,-1.38,0.5,0.3,1.49
2022-11-15 21:20:48.1690,-0.63,-0.6,-0.33,0.93
2022-11-15 21:20:48.1700,-0.16,-1.19,0.39,1.26
2022-11-15 21:20:48.1710,0.49,-1.31,0.74,1.58
2022-11-15 21:20:48.1710,1.68,-0.85,0.31,1.9
2022-11-15 21:20:48.1860,2.48,0.28,-0.03,2.49
2022-11-15 21:20:48.1870,2.39,1.28,-0.57,2.77
2022-11-15 21:20:48.1930,1.5,1.33,-1.51,2.5
2022-11-15 21:20:48.2040,0.45,0.66,-1.46,1.66
2022-11-15 21:20:48.2130,-0.39,-0.15,-1.07,1.14
2022-11-15 21:20:48.2690,-0.73,-0.71,-0.54,1.15
2022-11-15 21:20:48.2700,-1.33,-0.9,0.26,1.62
2022-11-15 21:20:48.2710,-2.04,-0.14,1.5,2.53
2022-11-15 21:20:48.2720,-1.64,0.91,2.38,3.03
2022-11-15 21:20:48.2730,-0.17,2.02,2.39,3.13
2022-11-15 21:20:48.2860,0.79,2.4,1.04,2.73
2022-11-15 21:20:48.2870,-0.12,1.66,-0.95,1.91
2022-11-15 21:20:48.2940,-1.17,-0.04,-2.17,2.46
2022-11-15 21:20:48.3040,-1.89,-1.42,-2.45,3.4
2022-11-15 21:20:48.3140,-2.48,-1.42,-1.58,3.26
2022-11-15 21:20:48.3690,-2.68,-1.24,-0.51,2.99
2022-11-15 21:20:48.3700,-1.37,-0.74,-0.39,1.6
2022-11-15 21:20:48.3720,-0.81,-0.51,-0.2,0.97
2022-11-15 21:20:48.3740,-0.52,-0.51,-0.79,1.07
2022-11-15 21:20:48.3760,-0.02,-0.55,-1.64,1.72
2022-11-15 21:20:48.3780,0.35,-0.93,-1.68,1.95
2022-11-15 21:20:48.3840,0.49,-1.43,-0.51,1.59
2022-11-15 21:20:48.3940,0.91,-1.83,0.49,2.1
2022-11-15 21:20:48.4040,1.43,-2.08,1.33,2.85
2022-11-15 21:20:48.4140,1.97,-1.96,1.62,3.21
2022-11-15 21:20:48.4690,2.32,-1.72,1.93,3.47
2022-11-15 21:20:48.4710,2.29,-1.48,1.89,3.31
2022-11-15 21:20:48.4720,2.15,-0.95,1.64,2.86
2022-11-15 21:20:48.4860,2.3,-0.12,1.68,2.85
2022-11-15 21:20:48.4870,3.04,0.72,1.38,3.41
2022-11-15 21:20:48.4880,1.7,0.2,0.64,1.82
2022-11-15 21:20:48.4880,0.35,-0.31,-0.23,0.52
2022-11-15 21:20:48.5030,-0.62,-0.63,-0.98,1.31
2022-11-15 21:20:48.5040,-1.11,-0.6,-1.35,1.84
2022-11-15 21:20:48.5140,-1.04,-0.06,-0.72,1.26
2022-11-15 21:20:48.5700,-0.76,0.59,0.08,0.96
2022-11-15 21:20:48.5710,-0.31,1.33,0.92,1.64
2022-11-15 21:20:48.5730,0.0,1.96,1.49,2.46
2022-11-15 21:20:48.5760,-0.08,2.15,1.3,2.51
2022-11-15 21:20:48.5780,-0.57,1.79,0.41,1.92
2022-11-15 21:20:48.5800,-1.3,1.03,-0.39,1.7
2022-11-15 21:20:48.5840,-1.76,0.39,-0.35,1.83
2022-11-15 21:20:48.5950,-1.74,0.14,0.16,1.75
2022-11-15 21:20:48.6050,-1.37,0.26,0.58,1.51
2022-11-15 21:20:48.6150,-0.92,0.48,0.7,1.25
2022-11-15 21:20:48.6710,-1.02,0.41,0.49,1.2
2022-11-15 21:20:48.6720,-1.08,0.25,-0.08,1.11
2022-11-15 21:20:48.6740,-1.01,0.21,-0.85,1.33
2022-11-15 21:20:48.6760,-1.08,0.09,-1.43,1.79
2022-11-15 21:20:48.6780,-0.69,-0.06,-1.25,1.42
2022-11-15 21:20:48.6810,0.1,-0.01,-0.15,0.18
2022-11-15 21:20:48.6850,0.33,0.17,1.01,1.07
2022-11-15 21:20:48.6950,-0.56,0.42,1.18,1.37
2022-11-15 21:20:48.7050,-1.64,0.96,0.84,2.07
2022-11-15 21:20:48.7150,-0.88,1.63,0.7,1.98
2022-11-15 21:20:48.7710,0.82,1.8,0.83,2.14
2022-11-15 21:20:48.7720,1.8,1.85,0.63,2.65
2022-11-15 21:20:48.7740,1.74,1.42,-0.11,2.24
2022-11-15 21:20:48.7770,1.18,0.64,-0.89,1.61
2022-11-15 21:20:48.7790,0.78,-0.35,-1.31,1.56
2022-11-15 21:20:48.7810,0.34,-1.79,-1.56,2.39
2022-11-15 21:20:48.7850,-0.04,-2.64,-1.5,3.03
2022-11-15 21:20:48.7950,0.03,-2.5,-0.45,2.54
2022-11-15 21:20:48.8050,0.47,-1.45,1.01,1.82
2022-11-15 21:20:48.8150,0.3,-0.35,1.87,1.92
2022-11-15 21:20:48.8710,-0.61,0.06,2.11,2.19
2022-11-15 21:20:48.8720,-1.46,-0.2,2.04,2.51
2022-11-15 21:20:48.8750,-1.21,-0.07,1.41,1.85
2022-11-15 21:20:48.8770,-0.26,0.28,0.43,0.57
2022-11-15 21:20:48.8790,-0.09,0.32,-0.72,0.79
2022-11-15 21:20:48.8810,-0.69,0.05,-1.56,1.7
2022-11-15 21:20:48.8850,-0.66,0.22,-1.7,1.83
2022-11-15 21:20:48.8960,-0.03,0.92,-1.01,1.36
2022-11-15 21:20:48.9050,0.23,1.26,-0.07,1.28
2022-11-15 21:20:48.9160,-0.86,0.29,0.76,1.18
2022-11-15 21:20:48.9710,-1.42,-0.19,0.59,1.54
2022-11-15 21:20:48.9720,-0.65,0.57,0.23,0.89
2022-11-15 21:20:48.9750,-0.47,0.87,0.49,1.1
2022-11-15 21:20:48.9770,-0.62,0.69,0.27,0.96
2022-11-15 21:20:48.9790,-1.19,0.01,-0.51,1.29
2022-11-15 21:20:48.9810,-1.2,-0.3,-1.29,1.78
2022-11-15 21:20:48.9860,-0.55,-0.25,-1.53,1.64
2022-11-15 21:20:48.9960,0.14,-0.52,-0.58,0.79
2022-11-15 21:20:49.0060,0.95,-0.36,0.98,1.41
2022-11-15 21:20:49.0160,1.42,0.22,1.8,2.3
2022-11-15 21:20:49.0720,0.67,-0.11,1.28,1.44
2022-11-15 21:20:49.0730,-0.15,-0.81,0.27,0.86
2022-11-15 21:20:49.0750,-0.23,-1.04,-0.54,1.19
2022-11-15 21:20:49.0780,0.19,-1.28,-0.54,1.4
2022-11-15 21:20:49.0800,0.75,-1.19,-0.23,1.42
2022-11-15 21:20:49.0820,0.77,-0.85,-0.22,1.16
2022-11-15 21:20:49.0860,0.91,-0.55,-0.44,1.15
2022-11-15 21:20:49.0960,1.19,-0.43,-0.49,1.35
2022-11-15 21:20:49.1060,1.02,-0.82,-0.25,1.33
2022-11-15 21:20:49.1160,0.7,-1.0,0.61,1.36
2022-11-15 21:20:49.1720,1.08,-0.42,1.27,1.71
2022-11-15 21:20:49.1730,1.22,-0.44,1.62,2.07
2022-11-15 21:20:49.1750,1.12,-0.34,0.51,1.27
2022-11-15 21:20:49.1770,1.43,0.06,-1.22,1.88
2022-11-15 21:20:49.1800,1.78,0.37,-2.12,2.79
2022-11-15 21:20:49.1820,1.26,0.31,-1.87,2.27
2022-11-15 21:20:49.1860,1.14,0.51,-1.39,1.86
2022-11-15 21:20:49.1960,0.55,0.18,-0.85,1.02
2022-11-15 21:20:49.2060,0.12,0.0,0.27,0.29
2022-11-15 21:20:49.2160,0.07,0.15,0.85,0.86
2022-11-15 21:20:49.2730,-0.49,0.05,0.31,0.58
2022-11-15 21:20:49.2740,-1.94,0.55,-0.22,2.02
2022-11-15 21:20:49.2740,-1.69,2.03,0.19,2.64
2022-11-15 21:20:49.2770,-0.79,2.54,1.02,2.84
2022-11-15 21:20:49.2790,-0.7,1.71,2.1,2.79
2022-11-15 21:20:49.2810,-0.14,1.26,2.56,2.85
2022-11-15 21:20:49.2870,-0.96,0.97,2.58,2.91
2022-11-15 21:20:49.2970,-1.83,0.88,1.78,2.7
2022-11-15 21:20:49.3070,-1.37,0.48,0.22,1.46
2022-11-15 21:20:49.3170,-1.89,-0.37,-0.46,1.98
2022-11-15 21:20:49.3730,-2.06,-0.68,-0.52,2.23
2022-11-15 21:20:49.3740,-2.47,-0.77,-0.89,2.73
2022-11-15 21:20:49.3760,-2.5,-0.4,-0.99,2.71
2022-11-15 21:20:49.3780,-1.5,0.39,-0.74,1.71
2022-11-15 21:20:49.3800,-0.53,0.1,-0.57,0.78
2022-11-15 21:20:49.3830,0.19,-0.62,-0.62,0.89
2022-11-15 21:20:49.3870,0.85,-0.94,-0.75,1.47
2022-11-15 21:20:49.3970,0.31,-1.39,-0.36,1.46
2022-11-15 21:20:49.4070,0.43,-1.9,0.31,1.97
2022-11-15 21:20:49.4170,-0.13,-2.66,0.43,2.69
2022-11-15 21:20:49.4740,-1.38,-1.99,0.24,2.43
2022-11-15 21:20:49.4750,-0.83,-0.64,-0.35,1.1
2022-11-15 21:20:49.4770,-0.99,-0.39,-0.2,1.08
2022-11-15 21:20:49.4790,-0.43,-0.27,0.93,1.05
2022-11-15 21:20:49.4820,0.47,-0.02,1.56,1.62
2022-11-15 21:20:49.4840,0.38,-0.41,1.44,1.54
2022-11-15 21:20:49.4870,0.0,-0.82,0.86,1.18
2022-11-15 21:20:49.5030,-0.52,-0.91,0.0,1.04
2022-11-15 21:20:49.5070,-0.88,-0.88,-0.67,1.41
2022-11-15 21:20:49.5180,-0.52,-1.08,-0.72,1.39
2022-11-15 21:20:49.5740,0.19,-1.17,-0.53,1.29
2022-11-15 21:20:49.5750,-0.08,-0.71,-0.37,0.8
2022-11-15 21:20:49.5760,-0.23,-0.04,-0.08,0.24
2022-11-15 21:20:49.5780,-0.06,-0.1,0.07,0.13
2022-11-15 21:20:49.5800,0.18,-0.48,-0.12,0.52
2022-11-15 21:20:49.5820,0.35,-0.68,-0.54,0.93
2022-11-15 21:20:49.5880,0.8,-0.83,-0.44,1.23
2022-11-15 21:20:49.5980,0.98,-0.53,-0.68,1.3
2022-11-15 21:20:49.6080,0.65,0.17,-0.86,1.09
2022-11-15 21:20:49.6180,1.13,0.84,-0.27,1.43
2022-11-15 21:20:49.6750,1.83,1.01,-0.32,2.11
2022-11-15 21:20:49.6760,1.67,0.85,-0.77,2.02
2022-11-15 21:20:49.6760,1.46,0.99,-0.54,1.84
2022-11-15 21:20:49.6790,1.94,1.68,0.71,2.66
2022-11-15 21:20:49.6810,2.45,1.8,1.95,3.61
2022-11-15 21:20:49.6830,1.57,1.47,2.18,3.06
2022-11-15 21:20:49.6880,0.46,1.08,1.66,2.03
2022-11-15 21:20:49.7030,-0.13,0.92,1.33,1.62
2022-11-15 21:20:49.7080,-0.07,1.38,0.03,1.38
2022-11-15 21:20:49.7180,-0.07,1.36,-1.7,2.17
2022-11-15 21:20:49.7750,-2.41,1.49,-2.48,3.76
2022-11-15 21:20:49.7760,-2.4,2.42,-1.15,3.59
2022-11-15 21:20:49.7770,-0.34,2.54,0.76,2.67
2022-11-15 21:20:49.7790,1.36,1.89,1.62,2.83
2022-11-15 21:20:49.7810,1.08,1.65,1.72,2.61
2022-11-15 21:20:49.7830,-0.02,1.82,1.42,2.3
2022-11-15 21:20:49.7880,-0.66,1.51,1.24,2.06
2022-11-15 21:20:49.8030,-0.67,0.99,1.28,1.75
2022-11-15 21:20:49.8080,0.11,0.53,0.69,0.87
2022-11-15 21:20:49.8190,0.69,-0.39,0.26,0.83
2022-11-15 21:20:49.8750,0.26,-0.79,0.94,1.25
2022-11-15 21:20:49.8760,-0.2,-0.14,0.87,0.9
2022-11-15 21:20:49.8770,-0.43,0.34,0.57,0.79
2022-11-15 21:20:49.8790,-0.68,0.08,0.47,0.83
2022-11-15 21:20:49.8810,-1.0,-0.33,0.33,1.1
2022-11-15 21:20:49.8830,-1.49,-0.4,-0.01,1.54
2022-11-15 21:20:49.8880,-1.49,-0.33,-0.57,1.62
2022-11-15 21:20:49.9020,-1.21,-0.35,-1.12,1.68
2022-11-15 21:20:49.9090,-0.86,-0.3,-1.51,1.76
2022-11-15 21:20:49.9190,-0.47,-0.3,-1.98,2.05
2022-11-15 21:20:49.9760,0.15,0.33,-2.08,2.11
2022-11-15 21:20:49.9770,1.3,2.18,-1.0,2.72
2022-11-15 21:20:49.9780,2.45,4.54,-0.12,5.16
2022-11-15 21:20:49.9800,-0.3,3.47,-0.13,3.48
2022-11-15 21:20:49.9830,-2.35,0.41,-0.47,2.43
2022-11-15 21:20:49.9830,-1.64,-0.69,-0.77,1.93
2022-11-15 21:20:49.9890,-2.25,-1.02,-0.26,2.48
2022-11-15 21:20:49.9990,-2.07,-1.06,0.67,2.42
2022-11-15 21:20:50.0090,-1.06,-0.84,1.39,1.93
2022-11-15 21:20:50.0190,-0.18,-0.46,1.98,2.04
2022-11-15 21:20:50.0760,0.58,-0.28,2.35,2.43
2022-11-15 21:20:50.0770,1.04,-0.24,2.65,2.85
2022-11-15 21:20:50.0780,1.24,-0.25,2.84,3.1
2022-11-15 21:20:50.0800,1.19,-0.35,2.8,3.06
2022-11-15 21:20:50.0820,0.84,-0.63,2.42,2.63
2022-11-15 21:20:50.0840,0.39,-0.95,1.86,2.12
2022-11-15 21:20:50.0890,0.04,-1.23,1.17,1.69
2022-11-15 21:20:50.1030,-0.22,-1.5,0.44,1.57
2022-11-15 21:20:50.1090,-0.39,-1.61,-0.25,1.67
2022-11-15 21:20:50.1190,-0.47,-1.57,-0.8,1.82
2022-11-15 21:20:50.1770,-0.61,-1.4,-1.15,1.91
2022-11-15 21:20:50.1780,-0.81,-1.22,-1.29,1.95
2022-11-15 21:20:50.1780,-0.97,-1.03,-1.15,1.82
2022-11-15 21:20:50.1810,-0.96,-0.55,-0.79,1.35
2022-11-15 21:20:50.1830,-0.8,0.2,-0.32,0.88
2022-11-15 21:20:50.1840,-0.67,0.7,0.06,0.97
2022-11-15 21:20:50.2020,-0.62,0.93,0.25,1.14
2022-11-15 21:20:50.2030,-0.54,1.02,0.29,1.19
2022-11-15 21:20:50.2090,-0.44,0.95,0.26,1.07
2022-11-15 21:20:50.2200,-0.44,0.68,0.25,0.84
2022-11-15 21:20:50.2770,-0.49,0.36,0.25,0.65
2022-11-15 21:20:50.2780,-0.46,0.16,0.26,0.55
2022-11-15 21:20:50.2790,-0.32,0.07,0.28,0.43
2022-11-15 21:20:50.2810,-0.1,0.07,0.3,0.32
2022-11-15 21:20:50.2830,0.13,0.12,0.33,0.37
2022-11-15 21:20:50.2850,0.3,0.09,0.37,0.48
2022-11-15 21:20:50.3030,0.32,-0.03,0.39,0.5
2022-11-15 21:20:50.3030,0.25,-0.13,0.38,0.47
2022-11-15 21:20:50.3100,0.13,-0.13,0.34,0.38
2022-11-15 21:20:50.3200,-0.04,-0.09,0.3,0.31
2022-11-15 21:20:50.3780,-0.28,-0.13,0.23,0.38
2022-11-15 21:20:50.3790,-0.52,-0.29,0.12,0.6
2022-11-15 21:20:50.3790,-0.6,-0.36,-0.01,0.69
2022-11-15 21:20:50.3820,-0.5,-0.22,-0.1,0.55
2022-11-15 21:20:50.3840,-0.31,0.08,-0.18,0.36
2022-11-15 21:20:50.3850,-0.18,0.34,-0.25,0.45
2022-11-15 21:20:50.4030,-0.15,0.43,-0.35,0.57
2022-11-15 21:20:50.4040,-0.21,0.38,-0.43,0.61
2022-11-15 21:20:50.4100,-0.23,0.27,-0.51,0.62
2022-11-15 21:20:50.4200,-0.19,0.18,-0.63,0.68
2022-11-15 21:20:50.4790,-0.12,0.22,-0.75,0.79
2022-11-15 21:20:50.4790,-0.1,0.34,-0.82,0.89
2022-11-15 21:20:50.4800,-0.08,0.44,-0.79,0.9
2022-11-15 21:20:50.4830,-0.05,0.48,-0.71,0.85
2022-11-15 21:20:50.4830,-0.09,0.42,-0.6,0.73
2022-11-15 21:20:50.4850,-0.19,0.3,-0.54,0.64
2022-11-15 21:20:50.4900,-0.32,0.26,-0.49,0.64
2022-11-15 21:20:50.5000,-0.43,0.2,-0.48,0.67
2022-11-15 21:20:50.5110,-0.49,0.01,-0.47,0.67
2022-11-15 21:20:50.5200,-0.49,-0.19,-0.48,0.71
2022-11-15 21:20:50.5780,-0.51,-0.18,-0.52,0.75
2022-11-15 21:20:50.5790,-0.54,-0.16,-0.54,0.78
2022-11-15 21:20:50.5800,-0.54,-0.21,-0.48,0.75
2022-11-15 21:20:50.5820,-0.51,-0.28,-0.33,0.66
2022-11-15 21:20:50.5840,-0.45,-0.31,-0.1,0.55
2022-11-15 21:20:50.5850,-0.35,-0.27,0.17,0.47
2022-11-15 21:20:50.6020,-0.23,-0.19,0.45,0.53
2022-11-15 21:20:50.6030,-0.11,-0.18,0.75,0.77
2022-11-15 21:20:50.6110,-0.07,-0.07,0.86,0.86
2022-11-15 21:20:50.6210,-0.15,0.09,0.69,0.71
2022-11-15 21:20:50.6790,-0.42,0.27,0.42,0.65
2022-11-15 21:20:50.6800,-0.85,0.44,0.12,0.96
2022-11-15 21:20:50.6810,-1.3,0.63,-0.14,1.45
2022-11-15 21:20:50.6830,-1.7,0.8,-0.26,1.89
2022-11-15 21:20:50.6840,-2.1,0.89,-0.24,2.29
2022-11-15 21:20:50.7030,-2.37,0.91,-0.11,2.54
2022-11-15 21:20:50.7030,-2.44,0.96,0.12,2.62
2022-11-15 21:20:50.7040,-2.23,1.04,0.39,2.49
2022-11-15 21:20:50.7110,-1.83,1.11,0.61,2.22
2022-11-15 21:20:50.7210,-1.47,1.09,0.74,1.97
2022-11-15 21:20:50.7790,-1.34,0.95,0.79,1.82
2022-11-15 21:20:50.7800,-1.43,0.83,0.73,1.8
2022-11-15 21:20:50.7810,-1.6,0.68,0.55,1.82
2022-11-15 21:20:50.7840,-1.85,0.41,0.37,1.93
2022-11-15 21:20:50.7840,-2.04,0.11,0.29,2.06
2022-11-15 21:20:50.8020,-2.04,-0.15,0.35,2.07
2022-11-15 21:20:50.8030,-1.81,-0.21,0.51,1.89
2022-11-15 21:20:50.8040,-1.42,0.02,0.66,1.56
2022-11-15 21:20:50.8110,-1.03,0.35,0.7,1.29
2022-11-15 21:20:50.8210,-0.85,0.65,0.66,1.25
2022-11-15 21:20:50.8800,-0.92,0.86,0.57,1.38
2022-11-15 21:20:50.8810,-1.28,0.85,0.54,1.62
2022-11-15 21:20:50.8810,-1.81,0.57,0.62,1.99
2022-11-15 21:20:50.8830,-2.24,0.23,0.85,2.4
2022-11-15 21:20:50.9010,-2.35,-0.13,1.13,2.61
2022-11-15 21:20:50.9020,-2.08,-0.56,1.3,2.51
2022-11-15 21:20:50.9040,-1.9,-0.88,0.98,2.31
2022-11-15 21:20:50.9070,-1.95,-1.14,0.31,2.27
2022-11-15 21:20:50.9120,-2.23,-1.55,-0.48,2.75
2022-11-15 21:20:50.9220,-2.32,-2.28,-1.15,3.45
2022-11-15 21:20:50.9800,-2.05,-3.38,-1.38,4.18
2022-11-15 21:20:50.9810,-1.68,-4.48,-1.33,4.96
2022-11-15 21:20:50.9820,-1.36,-5.08,-1.58,5.49
2022-11-15 21:20:50.9840,-0.94,-5.29,-2.12,5.77
2022-11-15 21:20:51.0020,-0.5,-5.0,-2.48,5.6
2022-11-15 21:20:51.0030,-0.09,-4.27,-2.23,4.81
2022-11-15 21:20:51.0060,0.24,-3.49,-1.35,3.74
2022-11-15 21:20:51.0080,0.53,-2.48,-0.39,2.56
2022-11-15 21:20:51.0120,1.02,-1.38,0.42,1.76
2022-11-15 21:20:51.0220,1.66,-0.49,0.54,1.81
2022-11-15 21:20:51.0810,2.35,-0.1,0.13,2.35
2022-11-15 21:20:51.0820,2.94,-0.36,-0.49,3.0
2022-11-15 21:20:51.0820,3.46,-1.13,-0.82,3.73
2022-11-15 21:20:51.0840,3.65,-2.14,-1.2,4.39
2022-11-15 21:20:51.0860,3.73,-2.13,-0.95,4.39
2022-11-15 21:20:51.0880,4.85,0.31,3.58,6.03
2022-11-15 21:20:51.0920,3.68,3.05,3.63,6.0
2022-11-15 21:20:51.1020,1.84,4.75,1.84,5.41
2022-11-15 21:20:51.1120,0.64,5.96,1.49,6.17
2022-11-15 21:20:51.1230,0.38,6.43,1.69,6.65
2022-11-15 21:20:51.1800,-0.29,6.81,1.14,6.91
2022-11-15 21:20:51.1810,-0.28,7.7,0.37,7.71
2022-11-15 21:20:51.1820,0.1,8.48,0.07,8.48
2022-11-15 21:20:51.1840,1.3,9.26,-0.24,9.35
2022-11-15 21:20:51.2020,1.83,9.23,-0.52,9.42
2022-11-15 21:20:51.2030,1.26,9.57,-0.88,9.69
2022-11-15 21:20:51.2040,0.48,9.59,-0.55,9.61
2022-11-15 21:20:51.2050,-0.69,8.96,0.51,9.0
2022-11-15 21:20:51.2190,-1.99,7.46,1.6,7.88
2022-11-15 21:20:51.2230,-2.79,4.85,1.74,5.85
2022-11-15 21:20:51.2810,-2.98,2.05,1.27,3.83
2022-11-15 21:20:51.2820,-3.31,-0.64,0.58,3.42
2022-11-15 21:20:51.2830,-4.32,-3.9,-0.07,5.82
2022-11-15 21:20:51.2840,-6.16,-7.96,0.07,10.06
2022-11-15 21:20:51.2850,-7.3,-12.02,0.01,14.06
2022-11-15 21:20:51.3000,-6.52,-14.64,-0.12,16.02
2022-11-15 21:20:51.3010,-3.13,-15.85,1.48,16.22
2022-11-15 21:20:51.3030,1.73,-15.59,3.09,15.98
2022-11-15 21:20:51.3130,4.42,-10.75,1.84,11.76
2022-11-15 21:20:51.3230,2.47,-3.61,-0.85,4.45
2022-11-15 21:20:51.3810,0.85,1.14,-2.45,2.83
2022-11-15 21:20:51.3820,1.07,4.49,-3.58,5.84
2022-11-15 21:20:51.3830,2.25,7.0,-4.65,8.69
2022-11-15 21:20:51.3860,3.53,8.86,-4.62,10.59
2022-11-15 21:20:51.3880,4.63,10.07,-2.91,11.45
2022-11-15 21:20:51.3900,5.09,6.78,-0.14,8.47
2022-11-15 21:20:51.3930,2.0,0.62,1.39,2.51
2022-11-15 21:20:51.4030,-1.6,-2.11,1.14,2.88
2022-11-15 21:20:51.4130,-4.18,-2.28,0.46,4.78
2022-11-15 21:20:51.4230,-4.34,-0.96,0.32,4.45
2022-11-15 21:20:51.4810,-2.41,0.53,0.65,2.55
2022-11-15 21:20:51.4820,-0.93,1.25,0.8,1.75
2022-11-15 21:20:51.4840,-0.01,1.03,0.49,1.14
2022-11-15 21:20:51.4860,0.5,0.51,-0.22,0.74
2022-11-15 21:20:51.4880,0.67,0.32,-1.05,1.28
2022-11-15 21:20:51.4900,0.38,0.54,-1.33,1.48
2022-11-15 21:20:51.4930,-0.39,0.78,-0.91,1.26
2022-11-15 21:20:51.5040,-1.23,0.8,-0.26,1.49
2022-11-15 21:20:51.5140,-1.78,0.7,0.4,1.95
2022-11-15 21:20:51.5240,-2.23,0.64,0.82,2.46
2022-11-15 21:20:51.5820,-2.45,0.75,0.69,2.65
2022-11-15 21:20:51.5840,-2.44,0.92,0.34,2.62
2022-11-15 21:20:51.5840,-2.43,0.8,0.14,2.56
2022-11-15 21:20:51.5850,-2.47,0.62,-0.07,2.54
2022-11-15 21:20:51.5860,-2.34,0.5,-0.12,2.39
2022-11-15 21:20:51.6020,-2.22,0.37,0.17,2.25
2022-11-15 21:20:51.6030,-2.06,0.25,0.62,2.16
2022-11-15 21:20:51.6040,-1.89,-0.15,0.95,2.12
2022-11-15 21:20:51.6140,-1.75,-1.08,0.82,2.21
2022-11-15 21:20:51.6240,-1.48,-2.38,0.04,2.8
2022-11-15 21:20:51.6830,-1.03,-3.87,-1.25,4.19
2022-11-15 21:20:51.6850,0.0,-5.1,-2.51,5.68
2022-11-15 21:20:51.6860,1.05,-5.91,-2.71,6.58
2022-11-15 21:20:51.6860,1.05,-6.47,-1.74,6.78
2022-11-15 21:20:51.6870,0.49,-6.4,-1.08,6.5
2022-11-15 21:20:51.7030,0.05,-5.58,-1.14,5.69
2022-11-15 21:20:51.7040,0.18,-4.28,-1.25,4.46
2022-11-15 21:20:51.7050,0.9,-2.58,-0.84,2.85
2022-11-15 21:20:51.7140,1.64,-1.07,0.0,1.95
2022-11-15 21:20:51.7240,2.01,-0.14,0.77,2.15
2022-11-15 21:20:51.7830,2.14,0.23,0.84,2.31
2022-11-15 21:20:51.7850,2.42,0.17,0.33,2.44
2022-11-15 21:20:51.7860,2.89,-0.38,-0.06,2.91
2022-11-15 21:20:51.7870,3.06,-1.54,-0.17,3.42
2022-11-15 21:20:51.7870,2.75,-2.72,0.36,3.88
2022-11-15 21:20:51.8040,2.2,-2.88,1.02,3.76
2022-11-15 21:20:51.8040,1.28,-1.61,1.14,2.35
2022-11-15 21:20:51.8070,0.41,0.44,1.15,1.29
2022-11-15 21:20:51.8140,-0.13,2.1,1.27,2.45
2022-11-15 21:20:51.8250,-0.6,3.17,1.26,3.46
2022-11-15 21:20:51.8840,-0.89,3.77,1.13,4.03
2022-11-15 21:20:51.8860,-0.87,4.2,0.93,4.38
2022-11-15 21:20:51.8870,-0.66,4.49,0.65,4.58
2022-11-15 21:20:51.8880,-0.5,4.54,0.43,4.58
2022-11-15 21:20:51.8880,-0.37,4.39,0.29,4.41
2022-11-15 21:20:51.9030,-0.22,4.16,0.11,4.16
2022-11-15 21:20:51.9030,0.04,4.08,-0.01,4.08
2022-11-15 21:20:51.9050,0.28,4.17,0.11,4.18
2022-11-15 21:20:51.9150,0.49,4.48,0.51,4.53
2022-11-15 21:20:51.9250,0.59,4.79,1.01,4.93
2022-11-15 21:20:51.9850,0.59,5.12,1.29,5.31
2022-11-15 21:20:51.9870,0.52,5.47,1.17,5.61
2022-11-15 21:20:51.9870,0.41,5.76,0.83,5.83
2022-11-15 21:20:51.9880,0.27,5.87,0.55,5.9
2022-11-15 21:20:51.9890,0.1,5.94,0.43,5.95
2022-11-15 21:20:52.0020,-0.09,6.02,0.55,6.04
2022-11-15 21:20:52.0030,-0.4,5.93,0.85,6.0
2022-11-15 21:20:52.0050,-0.96,4.98,0.96,5.16
2022-11-15 21:20:52.0150,-1.3,2.03,1.37,2.77
2022-11-15 21:20:52.0250,-1.14,-1.64,0.72,2.12
2022-11-15 21:20:52.0840,-1.83,-5.9,-0.44,6.19
2022-11-15 21:20:52.0860,-3.37,-11.32,-1.2,11.87
2022-11-15 21:20:52.0870,-4.27,-16.6,-3.0,17.4
2022-11-15 21:20:52.0880,-0.98,-18.73,-1.76,18.83
2022-11-15 21:20:52.0880,4.55,-16.53,3.84,17.56
2022-11-15 21:20:52.1030,7.45,-9.88,7.01,14.22
2022-11-15 21:20:52.1030,3.46,-2.49,2.28,4.83
2022-11-15 21:20:52.1050,-0.76,2.17,-2.52,3.41
2022-11-15 21:20:52.1150,-2.02,5.25,-3.82,6.79
2022-11-15 21:20:52.1260,-2.22,7.56,-4.53,9.08
2022-11-15 21:20:52.1820,-2.08,9.28,-4.74,10.62
2022-11-15 21:20:52.1840,-1.91,10.44,-2.73,10.95
2022-11-15 21:20:52.1850,-2.94,9.77,1.56,10.32
2022-11-15 21:20:52.1860,-4.75,2.46,3.62,6.45
2022-11-15 21:20:52.1860,-4.33,-4.31,1.91,6.4
2022-11-15 21:20:52.2020,-2.69,-5.78,0.45,6.39
2022-11-15 21:20:52.2030,-0.51,-3.35,-0.14,3.39
2022-11-15 21:20:52.2060,0.73,0.23,-0.76,1.07
2022-11-15 21:20:52.2160,0.57,1.32,-0.81,1.65
2022-11-15 21:20:52.2260,0.55,0.97,-0.37,1.17
2022-11-15 21:20:52.2830,0.69,0.3,0.02,0.75
2022-11-15 21:20:52.2850,0.38,0.07,0.3,0.48
2022-11-15 21:20:52.2860,-0.32,0.33,0.27,0.53
2022-11-15 21:20:52.2860,-0.76,0.47,0.02,0.89
2022-11-15 21:20:52.2870,-0.79,0.58,-0.14,0.99
2022-11-15 21:20:52.3020,-0.69,0.89,-0.15,1.13
2022-11-15 21:20:52.3030,-1.18,0.83,-0.03,1.44
2022-11-15 21:20:52.3060,-2.13,0.3,0.12,2.15
2022-11-15 21:20:52.3160,-2.73,0.03,0.09,2.73
2022-11-15 21:20:52.3260,-2.89,0.1,-0.28,2.9
2022-11-15 21:20:52.3840,-3.02,0.16,-0.46,3.05
2022-11-15 21:20:52.3850,-3.22,0.21,-0.48,3.26
2022-11-15 21:20:52.3860,-3.54,0.23,-0.28,3.55
2022-11-15 21:20:52.3870,-3.97,0.15,0.12,3.97
2022-11-15 21:20:52.3880,-4.35,0.18,0.37,4.36
2022-11-15 21:20:52.4030,-4.78,0.43,0.43,4.81
2022-11-15 21:20:52.4030,-5.33,0.79,0.46,5.4
2022-11-15 21:20:52.4060,-5.95,1.04,0.31,6.04
2022-11-15 21:20:52.4160,-6.35,0.98,0.06,6.42
2022-11-15 21:20:52.4270,-6.18,0.62,-0.25,6.21
2022-11-15 21:20:52.4820,-5.15,0.12,-0.71,5.2
2022-11-15 21:20:52.4840,-3.31,-0.75,-1.32,3.64
2022-11-15 21:20:52.4840,-1.52,-2.09,-1.87,3.18
2022-11-15 21:20:52.4850,-0.06,-3.43,-1.8,3.87
2022-11-15 21:20:52.4860,0.31,-3.91,-1.52,4.2
2022-11-15 21:20:52.5020,-0.53,-3.31,-1.43,3.64
2022-11-15 21:20:52.5030,-1.27,-2.92,0.1,3.18
2022-11-15 21:20:52.5070,-1.44,-3.18,1.8,3.92
2022-11-15 21:20:52.5170,-0.57,-3.41,1.21,3.66
2022-11-15 21:20:52.5270,1.11,-2.98,-1.12,3.37
2022-11-15 21:20:52.5820,2.43,-2.38,-2.65,4.31
2022-11-15 21:20:52.5840,3.23,-2.0,-2.71,4.66
2022-11-15 21:20:52.5850,3.87,-1.67,-1.92,4.63
2022-11-15 21:20:52.5860,4.26,-1.22,-0.39,4.44
2022-11-15 21:20:52.5870,4.03,-1.17,0.86,4.28
2022-11-15 21:20:52.6030,3.07,-1.77,0.77,3.62
2022-11-15 21:20:52.6040,1.92,-2.37,-0.26,3.06
2022-11-15 21:20:52.6070,1.18,-2.52,-1.28,3.06
2022-11-15 21:20:52.6170,0.78,-2.05,-1.63,2.73
2022-11-15 21:20:52.6270,0.71,-0.88,-1.3,1.72
2022-11-15 21:20:52.6850,0.97,0.74,-0.44,1.29
2022-11-15 21:20:52.6870,1.12,2.21,0.63,2.55
2022-11-15 21:20:52.6880,0.95,3.16,1.62,3.67
2022-11-15 21:20:52.6880,0.66,3.69,2.55,4.53
2022-11-15 21:20:52.6890,0.43,3.86,3.18,5.01
2022-11-15 21:20:52.7020,0.28,3.67,2.98,4.73
2022-11-15 21:20:52.7030,0.28,3.24,2.33,4.0
2022-11-15 21:20:52.7070,0.33,2.67,1.54,3.09
2022-11-15 21:20:52.7170,0.57,2.27,0.58,2.41
2022-11-15 21:20:52.7270,1.04,2.0,-0.23,2.26
2022-11-15 21:20:52.7830,1.67,1.96,-0.7,2.66
2022-11-15 21:20:52.7850,2.2,1.98,-1.0,3.12
2022-11-15 21:20:52.7860,2.63,2.21,-0.99,3.57
2022-11-15 21:20:52.7870,2.9,2.67,-0.78,4.01
2022-11-15 21:20:52.7880,2.78,3.05,-0.62,4.17
2022-11-15 21:20:52.8030,2.21,3.23,-0.72,3.97
2022-11-15 21:20:52.8030,1.61,3.49,-1.01,3.97
2022-11-15 21:20:52.8080,1.2,3.93,-1.26,4.29
2022-11-15 21:20:52.8180,0.96,4.6,-1.17,4.84
2022-11-15 21:20:52.8280,0.85,5.58,-0.36,5.65
2022-11-15 21:20:52.8830,0.66,6.86,1.07,6.97
2022-11-15 21:20:52.8850,0.14,7.48,2.0,7.74
2022-11-15 21:20:52.8860,-0.25,5.75,1.84,6.04
2022-11-15 21:20:52.8860,-0.53,1.9,1.83,2.69
2022-11-15 21:20:52.8870,-0.9,-3.01,0.4,3.16
2022-11-15 21:20:52.9030,-1.1,-8.0,-1.08,8.14
2022-11-15 21:20:52.9030,-1.14,-12.3,-2.95,12.7
2022-11-15 21:20:52.9080,0.28,-14.69,-3.8,15.17
2022-11-15 21:20:52.9180,3.54,-14.03,0.51,14.47
2022-11-15 21:20:52.9280,5.67,-10.23,5.98,13.13
2022-11-15 21:20:52.9780,2.68,-5.18,4.47,7.34
2022-11-15 21:20:52.9800,-1.53,-1.74,0.33,2.34
2022-11-15 21:20:52.9810,-3.04,0.44,-1.26,3.32
2022-11-15 21:20:52.9820,-3.01,2.6,-2.2,4.54
2022-11-15 21:20:52.9820,-2.65,4.26,-3.93,6.37
2022-11-15 21:20:53.0030,-2.29,5.61,-4.89,7.78
2022-11-15 21:20:53.0040,-2.29,7.02,-3.51,8.17
2022-11-15 21:20:53.0080,-2.74,6.46,-0.64,7.04
2022-11-15 21:20:53.0180,-2.69,1.4,1.88,3.56
2022-11-15 21:20:53.0280,-2.6,-2.52,3.14,4.79
2022-11-15 21:20:53.0790,-3.25,-3.82,2.83,5.75
2022-11-15 21:20:53.0810,-3.17,-2.21,1.11,4.02
2022-11-15 21:20:53.0820,-1.85,0.17,-0.73,1.99
2022-11-15 21:20:53.0820,-0.66,1.5,-1.07,1.95
2022-11-15 21:20:53.1030,0.2,1.97,-0.41,2.02
2022-11-15 21:20:53.1030,0.43,1.96,0.04,2.0
2022-11-15 21:20:53.1060,-0.29,1.7,-0.17,1.73
2022-11-15 21:20:53.1080,-1.23,1.65,-0.57,2.13
2022-11-15 21:20:53.1180,-2.08,2.17,-0.44,3.03
2022-11-15 21:20:53.1290,-3.07,2.75,-0.07,4.12
2022-11-15 21:20:53.1780,-4.22,2.96,0.27,5.16
2022-11-15 21:20:53.1800,-5.26,2.51,0.46,5.84
2022-11-15 21:20:53.1810,-5.79,1.06,0.37,5.89
2022-11-15 21:20:53.1820,-5.71,-1.29,0.03,5.85
2022-11-15 21:20:53.1820,-5.02,-3.45,-0.53,6.11
2022-11-15 21:20:53.2030,-3.36,-4.61,-0.76,5.75
2022-11-15 21:20:53.2030,-1.79,-4.69,0.11,5.02
2022-11-15 21:20:53.2090,-1.49,-4.0,1.52,4.53
2022-11-15 21:20:53.2190,-1.88,-2.84,2.3,4.1
2022-11-15 21:20:53.2290,-1.92,-1.4,2.43,3.39
2022-11-15 21:20:53.2800,-1.58,-0.2,2.21,2.72
2022-11-15 21:20:53.2810,-1.02,0.31,2.07,2.32
2022-11-15 21:20:53.2820,-0.53,0.16,1.77,1.85
2022-11-15 21:20:53.2830,-0.21,-0.58,1.12,1.27
2022-11-15 21:20:53.3020,-0.02,-1.68,0.27,1.7
2022-11-15 21:20:53.3030,0.03,-2.8,-0.5,2.84
2022-11-15 21:20:53.3040,0.18,-3.66,-0.99,3.79
2022-11-15 21:20:53.3090,0.43,-4.11,-0.99,4.24
2022-11-15 21:20:53.3190,0.8,-3.87,-0.77,4.02
2022-11-15 21:20:53.3290,1.25,-3.06,-0.53,3.34
2022-11-15 21:20:53.3800,1.57,-1.89,-0.38,2.48
2022-11-15 21:20:53.3820,1.76,-0.62,-0.33,1.89
2022-11-15 21:20:53.3830,1.7,0.26,-0.3,1.74
2022-11-15 21:20:53.3840,1.61,0.83,0.07,1.81
2022-11-15 21:20:53.3850,1.43,1.27,0.48,1.97
2022-11-15 21:20:53.4020,1.27,1.49,0.6,2.04
2022-11-15 21:20:53.4030,1.3,1.58,0.47,2.09
2022-11-15 21:20:53.4100,1.52,1.27,0.38,2.01
2022-11-15 21:20:53.4190,1.92,0.24,0.29,1.95
2022-11-15 21:20:53.4300,2.33,-1.34,-0.3,2.7
2022-11-15 21:20:53.4800,2.87,-2.59,-0.86,3.96
2022-11-15 21:20:53.4820,3.74,-3.03,-1.29,4.98
2022-11-15 21:20:53.4830,4.97,-2.48,-2.25,5.99
2022-11-15 21:20:53.4830,6.22,-0.75,-3.41,7.13
2022-11-15 21:20:53.5020,6.85,1.5,-3.68,7.91
2022-11-15 21:20:53.5030,6.83,3.07,-3.03,8.07
2022-11-15 21:20:53.5040,6.49,3.55,-1.92,7.64
2022-11-15 21:20:53.5100,6.33,3.06,-0.17,7.03
2022-11-15 21:20:53.5200,5.84,1.74,1.86,6.37
2022-11-15 21:20:53.5300,3.94,0.19,2.43,4.63
2022-11-15 21:20:53.5800,1.5,-0.84,1.64,2.37
2022-11-15 21:20:53.5810,-0.57,-1.7,0.79,1.95
2022-11-15 21:20:53.5830,-2.25,-1.81,-0.34,2.9
2022-11-15 21:20:53.5840,-3.2,-0.64,-1.34,3.52
2022-11-15 21:20:53.6020,-2.94,1.52,-2.02,3.87
2022-11-15 21:20:53.6030,-2.26,3.29,-2.27,4.59
2022-11-15 21:20:53.6050,-1.66,4.31,-2.12,5.08
2022-11-15 21:20:53.6100,-1.13,5.04,-1.86,5.48
2022-11-15 21:20:53.6200,-0.6,5.63,-1.8,5.94
2022-11-15 21:20:53.6300,-0.17,5.76,-1.73,6.01
2022-11-15 21:20:53.6820,-0.12,4.78,-0.94,4.87
2022-11-15 21:20:53.6830,-0.39,2.76,0.24,2.79
2022-11-15 21:20:53.6860,-1.0,0.17,1.36,1.69
2022-11-15 21:20:53.6880,-1.27,-3.2,2.9,4.5
2022-11-15 21:20:53.6900,-1.93,-7.1,3.62,8.19
2022-11-15 21:20:53.6930,-2.73,-9.59,2.61,10.3
2022-11-15 21:20:53.7000,-1.11,-7.45,0.75,7.56
2022-11-15 21:20:53.7100,1.24,-2.41,-0.69,2.79
2022-11-15 21:20:53.7200,2.47,-0.49,-1.56,2.96
2022-11-15 21:20:53.7300,3.28,-0.34,-2.3,4.02
2022-11-15 21:20:53.7820,3.55,-0.53,-2.47,4.35
2022-11-15 21:20:53.7840,3.67,-0.58,-2.17,4.3
2022-11-15 21:20:53.7850,3.81,-0.42,-1.44,4.09
2022-11-15 21:20:53.8030,3.53,-0.24,-0.72,3.61
2022-11-15 21:20:53.8040,2.55,0.45,-0.18,2.59
2022-11-15 21:20:53.8040,0.55,1.46,-0.08,1.56
2022-11-15 21:20:53.8050,-1.67,2.41,-0.14,2.93
2022-11-15 21:20:53.8190,-3.26,3.02,-0.05,4.44
2022-11-15 21:20:53.8210,-4.04,3.16,0.08,5.12
2022-11-15 21:20:53.8310,-3.77,2.96,0.41,4.81
2022-11-15 21:20:53.8820,-2.6,2.43,0.98,3.69
2022-11-15 21:20:53.8840,-1.91,1.54,1.01,2.65
2022-11-15 21:20:53.8850,-1.33,0.55,0.21,1.45
2022-11-15 21:20:53.8860,-0.55,-0.44,-0.63,0.94
2022-11-15 21:20:53.8870,0.02,-1.2,-1.16,1.66
2022-11-15 21:20:53.9020,0.0,-1.42,-1.45,2.02
2022-11-15 21:20:53.9020,-0.82,-1.22,-1.26,1.93
2022-11-15 21:20:53.9110,-2.21,-0.81,-0.84,2.49
2022-11-15 21:20:53.9210,-3.51,-0.26,-0.43,3.54
2022-11-15 21:20:53.9310,-4.61,0.33,0.26,4.62
2022-11-15 21:20:53.9830,-5.33,0.61,1.07,5.47
2022-11-15 21:20:53.9840,-5.48,0.41,1.73,5.76
2022-11-15 21:20:53.9860,-5.04,-0.49,1.82,5.38
2022-11-15 21:20:53.9880,-4.19,-2.0,1.2,4.79
2022-11-15 21:20:53.9900,-3.4,-3.78,0.14,5.08
2022-11-15 21:20:53.9930,-3.23,-5.3,-0.56,6.23
2022-11-15 21:20:54.0010,-3.4,-5.76,-0.7,6.72
2022-11-15 21:20:54.0110,-3.29,-5.25,-0.72,6.23
2022-11-15 21:20:54.0210,-2.85,-4.52,-0.09,5.34
2022-11-15 21:20:54.0310,-2.35,-3.93,0.69,4.63
2022-11-15 21:20:54.0830,-1.59,-3.44,1.03,3.92
2022-11-15 21:20:54.0840,-0.47,-2.73,0.98,2.93
2022-11-15 21:20:54.0870,0.59,-1.66,0.9,1.97
2022-11-15 21:20:54.0890,1.41,-0.44,1.09,1.83
2022-11-15 21:20:54.0910,2.14,0.77,1.82,2.91
2022-11-15 21:20:54.0930,2.79,1.65,2.67,4.19
2022-11-15 21:20:54.1010,2.9,1.81,2.19,4.05
2022-11-15 21:20:54.1120,2.33,1.02,0.31,2.56
2022-11-15 21:20:54.1220,1.7,-0.2,-1.35,2.18
2022-11-15 21:20:54.1320,1.22,-0.95,-2.52,2.95
2022-11-15 21:20:54.1830,1.52,-0.59,-3.21,3.6
2022-11-15 21:20:54.1840,2.23,0.5,-3.19,3.92
2022-11-15 21:20:54.1870,2.97,1.71,-2.17,4.05
2022-11-15 21:20:54.1890,3.47,2.7,-0.63,4.44
2022-11-15 21:20:54.1910,3.49,3.38,0.99,4.95
2022-11-15 21:20:54.1930,2.63,3.74,2.38,5.15
2022-11-15 21:20:54.2020,1.0,3.52,3.09,4.78
2022-11-15 21:20:54.2120,-0.32,2.94,3.31,4.43
2022-11-15 21:20:54.2220,-1.01,2.01,3.2,3.91
2022-11-15 21:20:54.2320,-1.23,0.79,2.61,2.99
2022-11-15 21:20:54.2840,-1.19,-0.36,1.61,2.03
2022-11-15 21:20:54.2850,-1.01,-1.25,0.41,1.65
2022-11-15 21:20:54.2870,-0.77,-1.79,-0.63,2.04
2022-11-15 21:20:54.2900,-0.4,-1.93,-1.14,2.27
2022-11-15 21:20:54.2920,0.32,-1.56,-1.19,1.98
2022-11-15 21:20:54.2940,1.07,-0.88,-1.57,2.09
2022-11-15 21:20:54.3020,1.6,-0.25,-2.16,2.69
2022-11-15 21:20:54.3120,1.99,0.18,-2.58,3.26
2022-11-15 21:20:54.3220,2.36,0.55,-2.85,3.74
2022-11-15 21:20:54.3320,2.8,0.8,-3.1,4.25
2022-11-15 21:20:54.3850,3.12,0.91,-2.73,4.24
2022-11-15 21:20:54.3860,2.78,0.82,-1.44,3.23
2022-11-15 21:20:54.3880,1.59,0.73,0.54,1.83
2022-11-15 21:20:54.3900,0.32,0.99,2.17,2.4
2022-11-15 21:20:54.3920,-0.61,1.81,2.68,3.29
2022-11-15 21:20:54.3950,-1.01,2.9,2.49,3.95
2022-11-15 21:20:54.4020,-0.87,3.81,1.85,4.32
2022-11-15 21:20:54.4130,-0.36,4.38,1.02,4.51
2022-11-15 21:20:54.4230,0.21,4.57,0.11,4.57
2022-11-15 21:20:54.4330,0.64,4.5,-0.4,4.56
2022-11-15 21:20:54.4850,0.89,4.31,-0.36,4.41
2022-11-15 21:20:54.4860,0.94,3.73,-0.22,3.85
2022-11-15 21:20:54.4880,0.77,2.35,-0.11,2.47
2022-11-15 21:20:54.4900,0.35,0.19,0.2,0.44
2022-11-15 21:20:54.4920,-0.21,-2.15,0.38,2.19
2022-11-15 21:20:54.4940,-0.54,-4.31,0.36,4.35
2022-11-15 21:20:54.5030,-0.61,-6.49,0.6,6.54
2022-11-15 21:20:54.5130,-0.53,-8.62,0.39,8.64
2022-11-15 21:20:54.5230,-0.02,-9.49,-0.54,9.5
2022-11-15 21:20:54.5330,1.9,-6.64,-0.98,6.97
2022-11-15 21:20:54.5840,2.95,-2.69,-1.39,4.22
2022-11-15 21:20:54.5850,2.55,-0.67,-2.33,3.51
2022-11-15 21:20:54.5870,2.03,0.23,-3.03,3.65
2022-11-15 21:20:54.5900,1.88,0.96,-3.0,3.66
2022-11-15 21:20:54.5920,1.97,1.87,-2.56,3.73
2022-11-15 21:20:54.5940,1.62,2.95,-1.7,3.77
2022-11-15 21:20:54.6030,0.29,3.68,-0.48,3.72
2022-11-15 21:20:54.6130,-1.96,3.19,0.04,3.74
2022-11-15 21:20:54.6230,-3.43,0.96,-0.03,3.56
2022-11-15 21:20:54.6330,-2.58,-1.03,0.67,2.85
2022-11-15 21:20:54.6860,-1.79,-1.22,1.31,2.53
2022-11-15 21:20:54.6870,-2.35,-0.27,0.81,2.5
2022-11-15 21:20:54.6890,-3.56,0.92,-0.03,3.67
2022-11-15 21:20:54.6910,-4.02,1.67,0.04,4.35
2022-11-15 21:20:54.6940,-3.41,1.75,0.86,3.92
2022-11-15 21:20:54.6960,-2.52,1.48,1.29,3.19
2022-11-15 21:20:54.7030,-1.78,1.26,1.18,2.47
2022-11-15 21:20:54.7130,-1.35,1.07,0.54,1.8
2022-11-15 21:20:54.7230,-1.46,0.74,-0.04,1.63
2022-11-15 21:20:54.7330,-1.84,0.15,-0.1,1.84
2022-11-15 21:20:54.7850,-2.1,-0.44,-0.09,2.14
2022-11-15 21:20:54.7860,-2.27,-0.91,-0.29,2.46
2022-11-15 21:20:54.7870,-2.46,-1.41,-0.55,2.88
2022-11-15 21:20:54.7890,-2.64,-1.92,-0.73,3.34
2022-11-15 21:20:54.7910,-2.36,-1.88,-0.42,3.04
2022-11-15 21:20:54.7940,-1.14,-1.84,0.32,2.18
2022-11-15 21:20:54.8040,0.05,-2.47,1.35,2.81
2022-11-15 21:20:54.8140,0.0,-3.29,2.12,3.91
2022-11-15 21:20:54.8240,-0.64,-3.55,1.15,3.78
2022-11-15 21:20:54.8340,-1.07,-3.21,-1.04,3.53
2022-11-15 21:20:54.8860,-0.77,-2.63,-2.18,3.5
2022-11-15 21:20:54.8870,0.17,-2.21,-1.81,2.86
2022-11-15 21:20:54.8870,1.04,-2.12,-1.14,2.62
2022-11-15 21:20:54.8900,1.73,-1.9,-0.35,2.59
2022-11-15 21:20:54.8920,2.49,-1.31,0.68,2.89
2022-11-15 21:20:54.8940,3.11,-0.57,1.39,3.45
2022-11-15 21:20:54.9040,3.32,-0.06,1.66,3.71
2022-11-15 21:20:54.9140,2.83,-0.01,0.34,2.85
2022-11-15 21:20:54.9240,2.46,-0.29,-1.37,2.83
2022-11-15 21:20:54.9340,2.44,-0.89,-1.98,3.26
2022-11-15 21:20:54.9870,2.58,-1.58,-1.79,3.51
2022-11-15 21:20:54.9870,2.93,-1.62,-0.96,3.48
2022-11-15 21:20:54.9880,3.21,-0.99,0.29,3.37
2022-11-15 21:20:54.9910,3.01,-0.09,1.43,3.33
2022-11-15 21:20:54.9930,2.08,0.7,2.04,2.99
2022-11-15 21:20:54.9950,0.95,1.19,2.28,2.74
2022-11-15 21:20:55.0040,0.16,1.48,2.46,2.87
2022-11-15 21:20:55.0140,-0.35,1.54,2.33,2.81
2022-11-15 21:20:55.0240,-0.69,1.31,1.89,2.4
2022-11-15 21:20:55.0340,-0.83,0.87,1.49,1.91
2022-11-15 21:20:55.0870,-0.76,0.45,1.1,1.41
2022-11-15 21:20:55.0880,-0.64,0.15,0.69,0.95
2022-11-15 21:20:55.0890,-0.45,-0.02,0.27,0.52
2022-11-15 21:20:55.0910,-0.12,0.01,-0.25,0.27
2022-11-15 21:20:55.0930,0.38,0.16,-0.58,0.71
2022-11-15 21:20:55.0950,0.93,0.44,-0.69,1.23
2022-11-15 21:20:55.1050,1.46,0.71,-0.86,1.83
2022-11-15 21:20:55.1150,1.96,1.07,-1.11,2.49
2022-11-15 21:20:55.1250,2.43,1.46,-1.23,3.09
2022-11-15 21:20:55.1350,2.75,1.75,-1.19,3.47
2022-11-15 21:20:55.1870,2.76,1.83,-0.94,3.44
2022-11-15 21:20:55.1880,2.28,1.67,-0.45,2.86
2022-11-15 21:20:55.1890,1.33,1.46,0.29,1.99
2022-11-15 21:20:55.1910,0.36,1.48,1.22,1.95
2022-11-15 21:20:55.1930,-0.51,1.68,2.0,2.66
2022-11-15 21:20:55.1960,-1.35,1.99,2.31,3.33
2022-11-15 21:20:55.2050,-1.96,2.23,1.99,3.57
2022-11-15 21:20:55.2150,-2.28,2.46,1.45,3.65
2022-11-15 21:20:55.2250,-2.36,2.65,0.85,3.64
2022-11-15 21:20:55.2350,-2.4,2.62,0.42,3.57
2022-11-15 21:20:55.2880,-2.18,2.47,0.29,3.3
2022-11-15 21:20:55.2890,-1.67,2.3,0.42,2.87
2022-11-15 21:20:55.2900,-1.12,2.06,0.66,2.43
2022-11-15 21:20:55.2920,-0.64,1.71,0.81,1.99
2022-11-15 21:20:55.2940,-0.2,1.44,0.87,1.69
2022-11-15 21:20:55.2960,0.2,1.36,1.13,1.77
2022-11-15 21:20:55.3050,0.37,1.27,1.35,1.89
2022-11-15 21:20:55.3150,0.31,1.08,1.19,1.63
2022-11-15 21:20:55.3250,0.34,0.91,0.87,1.3
2022-11-15 21:20:55.3350,0.31,0.42,0.56,0.76
2022-11-15 21:20:55.3880,0.1,-0.66,0.18,0.69
2022-11-15 21:20:55.3890,-0.18,-1.99,-0.64,2.09
2022-11-15 21:20:55.3900,-0.18,-3.17,-1.69,3.59
2022-11-15 21:20:55.3910,0.0,-4.58,-2.39,5.16
2022-11-15 21:20:55.3930,0.27,-6.1,-2.35,6.54
2022-11-15 21:20:55.3960,0.85,-7.15,-1.82,7.42
2022-11-15 21:20:55.4060,2.41,-6.36,-0.93,6.86
2022-11-15 21:20:55.4160,4.03,-4.04,-0.05,5.7
2022-11-15 21:20:55.4260,4.65,-2.65,0.01,5.35
2022-11-15 21:20:55.4360,4.6,-1.63,-0.09,4.88
2022-11-15 21:20:55.4890,4.26,-0.3,0.11,4.27
2022-11-15 21:20:55.4900,3.99,1.11,-0.22,4.14
2022-11-15 21:20:55.4910,3.88,2.2,-1.2,4.61
2022-11-15 21:20:55.4930,3.58,2.76,-2.08,4.97
2022-11-15 21:20:55.4950,3.05,2.64,-2.59,4.79
2022-11-15 21:20:55.4970,2.45,2.1,-2.86,4.31
2022-11-15 21:20:55.5060,1.95,1.3,-2.65,3.53
2022-11-15 21:20:55.5160,1.04,0.11,-1.25,1.62
2022-11-15 21:20:55.5260,0.08,-1.91,0.67,2.02
2022-11-15 21:20:55.5360,-0.16,-3.87,1.93,4.32
2022-11-15 21:20:55.5890,-0.22,-3.67,1.88,4.12
2022-11-15 21:20:55.5900,-0.99,-1.46,0.82,1.94
2022-11-15 21:20:55.5910,-1.78,0.75,0.02,1.93
2022-11-15 21:20:55.5940,-2.2,2.26,-0.22,3.16
2022-11-15 21:20:55.5960,-2.26,2.93,-0.06,3.7
2022-11-15 21:20:55.5980,-2.08,2.91,0.07,3.57
2022-11-15 21:20:55.6060,-1.71,2.54,-0.13,3.06
2022-11-15 21:20:55.6160,-1.05,2.03,-0.61,2.36
2022-11-15 21:20:55.6260,-0.25,1.62,-1.18,2.01
2022-11-15 21:20:55.6360,0.48,1.4,-1.38,2.02
2022-11-15 21:20:55.6900,0.98,1.18,-0.91,1.78
2022-11-15 21:20:55.6910,1.27,0.77,-0.08,1.48
2022-11-15 21:20:55.6910,1.63,-0.16,0.77,1.8
2022-11-15 21:20:55.6940,2.11,-1.42,1.2,2.81
2022-11-15 21:20:55.6960,1.99,-2.18,0.6,3.01
2022-11-15 21:20:55.6980,0.8,-1.89,-0.3,2.07
2022-11-15 21:20:55.7060,-0.69,-1.25,-0.88,1.67
2022-11-15 21:20:55.7170,-1.6,-0.53,-1.22,2.08
2022-11-15 21:20:55.7260,-2.03,0.46,-1.26,2.43
2022-11-15 21:20:55.7370,-2.44,1.23,-0.99,2.9
2022-11-15 21:20:55.7910,-2.98,1.59,-0.58,3.42
2022-11-15 21:20:55.7920,-3.56,1.69,-0.31,3.95
2022-11-15 21:20:55.7930,-4.03,1.79,-0.15,4.41
2022-11-15 21:20:55.7950,-4.39,1.92,-0.05,4.79
2022-11-15 21:20:55.7970,-4.68,2.0,-0.02,5.08
2022-11-15 21:20:55.7990,-4.7,1.94,0.11,5.08
2022-11-15 21:20:55.8070,-4.21,1.56,0.43,4.51
2022-11-15 21:20:55.8170,-2.79,0.41,0.38,2.84
2022-11-15 21:20:55.8270,-0.6,-1.79,-0.05,1.88
2022-11-15 21:20:55.8370,1.34,-4.87,-0.77,5.1
2022-11-15 21:20:55.8910,2.34,-7.71,-1.95,8.28
2022-11-15 21:20:55.8920,2.41,-9.28,-3.22,10.11
2022-11-15 21:20:55.8930,2.0,-9.1,-3.08,9.81
2022-11-15 21:20:55.8950,0.66,-6.62,-1.62,6.84
2022-11-15 21:20:55.8970,-0.82,-4.21,-0.75,4.35
2022-11-15 21:20:55.9000,-1.37,-2.83,0.02,3.14
2022-11-15 21:20:55.9070,-1.39,-1.88,0.79,2.46
2022-11-15 21:20:55.9190,-1.26,-1.27,1.23,2.17
2022-11-15 21:20:55.9270,-0.97,-0.93,1.5,2.01
2022-11-15 21:20:55.9370,-0.55,-0.72,1.51,1.76
2022-11-15 21:20:55.9920,-0.09,-0.45,0.99,1.09
2022-11-15 21:20:55.9930,0.56,-0.04,0.54,0.77
2022-11-15 21:20:55.9940,1.26,0.48,0.61,1.47
2022-11-15 21:20:55.9960,1.98,1.04,0.68,2.33
2022-11-15 21:20:55.9980,2.83,1.57,0.5,3.27
2022-11-15 21:20:56.0000,3.56,1.93,0.09,4.05
2022-11-15 21:20:56.0070,3.9,1.88,-0.03,4.32
2022-11-15 21:20:56.0190,3.7,1.09,0.51,3.89
2022-11-15 21:20:56.0280,3.15,-0.08,1.29,3.4
2022-11-15 21:20:56.0380,2.49,-0.71,1.53,3.0
2022-11-15 21:20:56.0910,2.0,-0.41,1.42,2.48
2022-11-15 21:20:56.0920,1.6,0.42,1.28,2.09
2022-11-15 21:20:56.0930,1.08,1.33,1.06,2.01
2022-11-15 21:20:56.0950,0.56,2.13,0.77,2.33
2022-11-15 21:20:56.0970,0.13,2.74,0.54,2.79
2022-11-15 21:20:56.1000,-0.02,3.0,0.44,3.03
2022-11-15 21:20:56.1080,0.01,2.99,0.39,3.01
2022-11-15 21:20:56.1180,0.07,2.67,0.26,2.68
2022-11-15 21:20:56.1280,0.1,2.03,0.02,2.03
2022-11-15 21:20:56.1380,0.13,1.23,-0.31,1.27
2022-11-15 21:20:56.1930,0.28,0.53,-0.41,0.72
2022-11-15 21:20:56.1940,0.53,0.04,-0.23,0.57
2022-11-15 21:20:56.1950,0.88,-0.08,0.3,0.93
2022-11-15 21:20:56.1970,1.21,0.13,1.2,1.7
2022-11-15 21:20:56.1990,1.21,0.54,2.23,2.59
2022-11-15 21:20:56.2000,1.27,1.08,2.85,3.3
2022-11-15 21:20:56.2080,1.61,1.77,2.71,3.61
2022-11-15 21:20:56.2180,1.81,2.39,1.9,3.54
2022-11-15 21:20:56.2280,1.8,2.87,1.02,3.53
2022-11-15 21:20:56.2380,1.65,3.31,0.49,3.73
2022-11-15 21:20:56.2930,1.34,3.69,0.23,3.93
2022-11-15 21:20:56.2940,0.87,3.92,0.26,4.02
2022-11-15 21:20:56.2950,0.34,3.86,0.48,3.9
2022-11-15 21:20:56.2970,-0.08,3.29,0.74,3.37
2022-11-15 21:20:56.3000,-0.35,2.09,1.15,2.41
2022-11-15 21:20:56.3010,-0.67,0.4,1.56,1.74
2022-11-15 21:20:56.3190,-1.16,-1.43,1.32,2.26
2022-11-15 21:20:56.3200,-1.68,-2.5,0.33,3.03
2022-11-15 21:20:56.3280,-1.88,-2.77,-0.21,3.35
2022-11-15 21:20:56.3380,-1.51,-2.95,0.12,3.31
2022-11-15 21:20:56.3940,-1.37,-3.33,0.62,3.65
2022-11-15 21:20:56.3950,-1.14,-3.44,0.85,3.72
2022-11-15 21:20:56.3960,-0.44,-3.0,1.05,3.2
2022-11-15 21:20:56.3980,0.31,-2.27,1.12,2.55
2022-11-15 21:20:56.4000,0.45,-1.63,1.11,2.02
2022-11-15 21:20:56.4010,-0.02,-1.42,1.48,2.05
2022-11-15 21:20:56.4190,-0.48,-1.13,1.99,2.33
2022-11-15 21:20:56.4200,-0.59,-0.4,1.97,2.09
2022-11-15 21:20:56.4290,-0.41,0.51,1.45,1.59
2022-11-15 21:20:56.4390,-0.16,1.28,0.68,1.45
2022-11-15 21:20:56.4940,-0.02,1.82,-0.22,1.83
2022-11-15 21:20:56.4950,-0.08,1.98,-0.97,2.2
2022-11-15 21:20:56.4980,-0.16,1.8,-1.56,2.38
2022-11-15 21:20:56.5000,-0.18,1.23,-2.21,2.53
2022-11-15 21:20:56.5010,-0.18,0.38,-2.64,2.67
2022-11-15 21:20:56.5180,-0.03,-0.47,-2.76,2.79
2022-11-15 21:20:56.5190,-0.03,-1.08,-2.44,2.66
2022-11-15 21:20:56.5200,0.2,-1.25,-1.95,2.32
2022-11-15 21:20:56.5290,0.2,-1.47,-0.88,1.72
2022-11-15 21:20:56.5390,0.3,-1.4,0.72,1.6
2022-11-15 21:20:56.5950,0.42,-1.07,2.45,2.7
2022-11-15 21:20:56.5960,-0.04,-0.82,2.85,2.96
2022-11-15 21:20:56.5970,-0.46,-0.13,0.49,0.68
2022-11-15 21:20:56.6000,-1.51,0.3,-0.17,1.54
2022-11-15 21:20:56.6010,-2.9,0.22,1.44,3.24
2022-11-15 21:20:56.6190,-2.86,0.81,0.8,3.07
2022-11-15 21:20:56.6200,-2.49,1.38,-0.37,2.87
2022-11-15 21:20:56.6210,-2.57,1.69,-0.7,3.15
2022-11-15 21:20:56.6290,-3.0,1.68,0.87,3.54
2022-11-15 21:20:56.6390,-2.88,1.9,1.8,3.89
2022-11-15 21:20:56.6960,-2.36,2.07,1.31,3.4
2022-11-15 21:20:56.6970,-2.1,1.85,0.83,2.91
2022-11-15 21:20:56.7000,-2.08,1.5,0.07,2.56
2022-11-15 21:20:56.7000,-2.21,1.16,-0.69,2.58
2022-11-15 21:20:56.7190,-2.33,0.85,-1.18,2.74
2022-11-15 21:20:56.7200,-2.33,0.57,-1.32,2.73
2022-11-15 21:20:56.7210,-2.08,0.37,-1.09,2.37
2022-11-15 21:20:56.7220,-1.7,0.09,-0.56,1.79
2022-11-15 21:20:56.7290,-1.37,-0.49,-0.07,1.45
2022-11-15 21:20:56.7400,-1.11,-1.4,0.21,1.79
2022-11-15 21:20:56.7970,-0.76,-3.05,-0.01,3.14
2022-11-15 21:20:56.7980,-0.6,-5.43,-1.06,5.56
2022-11-15 21:20:56.8000,-0.85,-7.38,-1.48,7.57
2022-11-15 21:20:56.8010,-1.28,-8.1,-1.19,8.28
2022-11-15 21:20:56.8190,-1.47,-6.95,-0.44,7.11
2022-11-15 21:20:56.8200,-1.49,-4.58,0.38,4.83
2022-11-15 21:20:56.8220,-1.47,-3.31,1.2,3.81
2022-11-15 21:20:56.8240,-1.08,-3.29,2.05,4.02
2022-11-15 21:20:56.8300,-0.57,-3.6,2.02,4.16
2022-11-15 21:20:56.8400,-0.14,-3.28,1.37,3.55
2022-11-15 21:20:56.8980,0.47,-2.24,1.08,2.53
2022-11-15 21:20:56.8990,1.21,-0.98,1.41,2.1
2022-11-15 21:20:56.9010,2.14,-0.02,1.84,2.82
2022-11-15 21:20:56.9030,2.73,0.53,1.77,3.29
2022-11-15 21:20:56.9050,2.93,0.66,0.68,3.07
2022-11-15 21:20:56.9080,3.05,0.37,-0.84,3.18
2022-11-15 21:20:56.9100,2.97,-0.24,-1.75,3.45
2022-11-15 21:20:56.9200,2.58,-0.67,-2.09,3.38
2022-11-15 21:20:56.9300,2.58,-0.84,-1.68,3.19
2022-11-15 21:20:56.9400,2.75,-0.62,-0.92,2.96
2022-11-15 21:20:56.9980,2.9,-0.05,0.14,2.9
2022-11-15 21:20:57.0000,2.97,0.64,1.12,3.23
2022-11-15 21:20:57.0000,2.56,1.42,1.41,3.24
2022-11-15 21:20:57.0010,1.83,2.13,1.26,3.07
2022-11-15 21:20:57.0020,1.05,2.62,0.96,2.98
2022-11-15 21:20:57.0180,0.51,2.88,0.57,2.97
2022-11-15 21:20:57.0190,0.2,3.0,0.3,3.02
2022-11-15 21:20:57.0210,0.05,2.9,0.21,2.9
2022-11-15 21:20:57.0300,0.09,2.58,0.25,2.59
2022-11-15 21:20:57.0410,0.22,2.23,0.49,2.29
2022-11-15 21:20:57.1000,0.31,1.93,1.03,2.2
2022-11-15 21:20:57.1010,0.29,1.73,1.68,2.42
2022-11-15 21:20:57.1020,0.29,1.59,2.27,2.78
2022-11-15 21:20:57.1030,0.35,1.62,2.49,2.99
2022-11-15 21:20:57.1050,0.56,1.9,2.26,3.0
2022-11-15 21:20:57.1070,1.1,2.29,1.87,3.15
2022-11-15 21:20:57.1100,1.84,2.47,1.53,3.43
2022-11-15 21:20:57.1210,2.45,2.45,1.39,3.73
2022-11-15 21:20:57.1310,2.69,2.14,1.34,3.68
2022-11-15 21:20:57.1410,2.34,1.76,1.06,3.11
2022-11-15 21:20:57.2000,1.55,1.66,0.65,2.36
2022-11-15 21:20:57.2020,0.68,1.96,0.37,2.1
2022-11-15 21:20:57.2030,-0.21,2.3,0.25,2.32
2022-11-15 21:20:57.2040,-1.13,2.4,0.31,2.67
2022-11-15 21:20:57.2040,-2.0,2.24,0.48,3.04
2022-11-15 21:20:57.2190,-2.64,2.08,0.76,3.44
2022-11-15 21:20:57.2190,-2.97,2.02,1.17,3.77
2022-11-15 21:20:57.2210,-3.15,2.07,1.8,4.17
2022-11-15 21:20:57.2310,-3.16,2.06,2.72,4.65
2022-11-15 21:20:57.2410,-2.93,1.99,3.44,4.93
2022-11-15 21:20:57.3010,-2.59,1.8,3.49,4.7
2022-11-15 21:20:57.3020,-2.12,1.5,2.98,3.95
2022-11-15 21:20:57.3030,-1.35,1.19,2.37,2.97
2022-11-15 21:20:57.3040,-0.72,0.81,1.94,2.22
2022-11-15 21:20:57.3040,-0.63,0.28,1.85,1.97
2022-11-15 21:20:57.3190,-0.77,-0.34,2.16,2.31
2022-11-15 21:20:57.3200,-1.11,-1.43,2.47,3.06
2022-11-15 21:20:57.3210,-1.63,-3.07,1.65,3.84
2022-11-15 21:20:57.3310,-1.76,-4.62,-0.48,4.96
2022-11-15 21:20:57.3420,-1.54,-6.16,-1.94,6.63
2022-11-15 21:20:57.4020,-1.64,-7.83,-1.71,8.18
2022-11-15 21:20:57.4040,-1.72,-9.28,-0.07,9.43
2022-11-15 21:20:57.4040,-0.44,-8.22,1.99,8.46
2022-11-15 21:20:57.4050,2.27,-3.79,2.75,5.2
2022-11-15 21:20:57.4060,3.78,-1.05,1.59,4.23
2022-11-15 21:20:57.4190,5.01,0.49,-0.72,5.08
2022-11-15 21:20:57.4200,4.24,0.47,-0.97,4.37
2022-11-15 21:20:57.4220,4.74,1.07,-1.51,5.08
2022-11-15 21:20:57.4320,5.23,1.68,-2.11,5.88
2022-11-15 21:20:57.4420,5.33,2.25,-2.39,6.25
2022-11-15 21:20:57.5000,5.05,2.56,-2.38,6.14
2022-11-15 21:20:57.5020,4.43,2.36,-2.14,5.45
2022-11-15 21:20:57.5030,3.31,1.49,-2.1,4.19
2022-11-15 21:20:57.5040,2.0,0.63,-2.16,3.01
2022-11-15 21:20:57.5050,0.96,-0.04,-2.05,2.26
2022-11-15 21:20:57.5190,0.05,-0.5,-1.71,1.78
2022-11-15 21:20:57.5200,-0.89,-0.88,-0.86,1.51
2022-11-15 21:20:57.5220,-2.41,-1.48,0.79,2.93
2022-11-15 21:20:57.5320,-3.13,-1.44,1.59,3.79
2022-11-15 21:20:57.5420,-2.59,-0.53,1.17,2.89
2022-11-15 21:20:57.6020,-2.47,0.11,0.78,2.59
2022-11-15 21:20:57.6040,-2.66,0.42,0.49,2.73
2022-11-15 21:20:57.6050,-2.71,0.52,0.23,2.76
2022-11-15 21:20:57.6050,-2.3,0.55,0.1,2.36
2022-11-15 21:20:57.6060,-1.43,0.63,0.28,1.58
2022-11-15 21:20:57.6190,-0.98,0.55,0.52,1.23
2022-11-15 21:20:57.6200,-1.1,0.48,0.65,1.36
2022-11-15 21:20:57.6220,-1.13,0.71,0.72,1.51
2022-11-15 21:20:57.6320,-1.1,1.05,0.7,1.67
2022-11-15 21:20:57.6430,-1.16,1.35,0.53,1.85
2022-11-15 21:20:57.7030,-1.11,1.55,0.29,1.92
2022-11-15 21:20:57.7050,-0.92,1.54,0.15,1.8
2022-11-15 21:20:57.7060,-0.59,1.3,0.11,1.43
2022-11-15 21:20:57.7060,-0.32,0.75,0.08,0.81
2022-11-15 21:20:57.7070,-0.2,-0.01,0.04,0.2
2022-11-15 21:20:57.7190,-0.2,-0.77,0.07,0.79
2022-11-15 21:20:57.7200,-0.23,-1.35,0.19,1.38
2022-11-15 21:20:57.7230,-0.16,-1.5,0.31,1.54
2022-11-15 21:20:57.7330,0.08,-1.11,0.41,1.18
2022-11-15 21:20:57.7430,0.03,-0.47,0.34,0.58
2022-11-15 21:20:57.8030,-0.56,0.04,-0.02,0.56
2022-11-15 21:20:57.8050,-1.31,0.3,-0.33,1.38
2022-11-15 21:20:57.8060,-1.91,0.4,-0.36,1.98
2022-11-15 21:20:57.8070,-2.36,0.52,-0.22,2.42
2022-11-15 21:20:57.8070,-2.78,0.61,-0.1,2.84
2022-11-15 21:20:57.8190,-3.19,0.57,-0.12,3.24
2022-11-15 21:20:57.8200,-3.57,0.36,0.03,3.58
2022-11-15 21:20:57.8230,-3.76,-0.04,0.37,3.77
2022-11-15 21:20:57.8330,-3.25,-0.32,0.61,3.32
2022-11-15 21:20:57.8430,-2.17,-0.8,0.45,2.35
2022-11-15 21:20:57.9040,-1.66,-2.04,0.05,2.63
2022-11-15 21:20:57.9060,-1.67,-3.66,-0.41,4.04
2022-11-15 21:20:57.9070,-1.82,-5.01,-1.03,5.42
2022-11-15 21:20:57.9070,-2.04,-5.57,-1.51,6.12
2022-11-15 21:20:57.9080,-2.04,-5.11,-1.37,5.67
2022-11-15 21:20:57.9180,-1.43,-3.91,-0.54,4.19
2022-11-15 21:20:57.9180,-0.61,-2.94,0.23,3.01
2022-11-15 21:20:57.9230,0.29,-2.39,0.28,2.42
2022-11-15 21:20:57.9330,1.21,-1.98,-0.06,2.32
2022-11-15 21:20:57.9440,2.04,-1.55,-0.24,2.57
2022-11-15 21:20:58.0050,2.75,-0.97,0.1,2.91
2022-11-15 21:20:58.0060,3.08,-0.25,0.74,3.17
2022-11-15 21:20:58.0070,3.09,0.65,1.12,3.35
2022-11-15 21:20:58.0080,2.87,1.56,1.2,3.48
2022-11-15 21:20:58.0090,2.26,2.2,1.13,3.35
2022-11-15 21:20:58.0190,2.2,2.8,1.15,3.74
2022-11-15 21:20:58.0190,2.39,3.02,1.56,4.15
2022-11-15 21:20:58.0230,2.22,2.27,1.57,3.54
2022-11-15 21:20:58.0330,1.66,0.82,1.0,2.1
2022-11-15 21:20:58.0440,1.53,-0.24,0.36,1.59
2022-11-15 21:20:58.1050,1.32,-0.98,-0.45,1.7
2022-11-15 21:20:58.1070,1.32,-0.89,-1.05,1.9
2022-11-15 21:20:58.1080,1.6,-0.13,-1.1,1.94
2022-11-15 21:20:58.1080,2.09,0.63,-0.71,2.29
2022-11-15 21:20:58.1090,2.34,1.28,-0.19,2.67
2022-11-15 21:20:58.1170,2.23,1.6,0.22,2.75
2022-11-15 21:20:58.1170,1.75,1.79,0.57,2.56
2022-11-15 21:20:58.1240,0.8,1.77,0.89,2.13
2022-11-15 21:20:58.1340,-0.25,1.48,1.15,1.89
2022-11-15 21:20:58.1440,-0.98,1.07,1.23,1.9
2022-11-15 21:20:58.2050,-1.38,0.76,1.12,1.93
2022-11-15 21:20:58.2070,-1.51,0.68,0.94,1.9
2022-11-15 21:20:58.2080,-1.44,0.8,0.78,1.82
2022-11-15 21:20:58.2090,-1.29,1.01,0.76,1.8
2022-11-15 21:20:58.2100,-1.12,1.2,0.93,1.88
2022-11-15 21:20:58.2190,-1.05,1.46,1.19,2.15
2022-11-15 21:20:58.2190,-1.0,1.95,1.37,2.58
2022-11-15 21:20:58.2240,-0.79,2.57,1.4,3.03
2022-11-15 21:20:58.2340,-0.41,3.09,1.21,3.34
2022-11-15 21:20:58.2440,0.02,3.42,0.87,3.52
2022-11-15 21:20:58.3060,0.29,3.57,0.57,3.62
2022-11-15 21:20:58.3080,0.28,3.53,0.44,3.56
2022-11-15 21:20:58.3090,-0.02,3.29,0.39,3.31
2022-11-15 21:20:58.3090,-0.41,2.93,0.29,2.97
2022-11-15 21:20:58.3100,-0.65,2.73,0.14,2.8
2022-11-15 21:20:58.3170,-0.76,2.7,-0.01,2.8
2022-11-15 21:20:58.3170,-0.7,2.7,-0.18,2.79
2022-11-15 21:20:58.3240,-0.45,2.69,-0.15,2.73
2022-11-15 21:20:58.3350,0.02,2.48,0.23,2.49
2022-11-15 21:20:58.3450,0.59,1.51,0.57,1.71
2022-11-15 21:20:58.4060,1.02,-0.56,0.65,1.33
2022-11-15 21:20:58.4080,1.38,-2.79,0.2,3.11
2022-11-15 21:20:58.4090,1.43,-4.91,-0.15,5.11
2022-11-15 21:20:58.4100,1.25,-7.71,-0.04,7.81
2022-11-15 21:20:58.4110,1.5,-10.38,0.87,10.52
2022-11-15 21:20:58.4180,2.61,-11.67,1.87,12.1
2022-11-15 21:20:58.4190,3.94,-11.19,2.15,12.05
2022-11-15 21:20:58.4250,4.49,-8.49,1.64,9.74
2022-11-15 21:20:58.4350,3.76,-5.11,0.61,6.37
2022-11-15 21:20:58.4450,2.7,-2.21,-0.85,3.59
2022-11-15 21:20:58.5060,2.0,0.18,-2.26,3.02
2022-11-15 21:20:58.5080,1.59,1.88,-3.18,4.02
2022-11-15 21:20:58.5090,1.18,2.99,-3.63,4.84
2022-11-15 21:20:58.5100,0.78,3.71,-3.95,5.47
2022-11-15 21:20:58.5100,0.35,4.22,-3.97,5.8
2022-11-15 21:20:58.5170,-0.52,4.5,-3.28,5.59
2022-11-15 21:20:58.5170,-2.18,3.88,-1.79,4.79
2022-11-15 21:20:58.5250,-4.18,2.12,-0.11,4.68
2022-11-15 21:20:58.5350,-4.82,0.18,1.75,5.13
2022-11-15 21:20:58.5450,-3.48,-0.68,3.55,5.01
2022-11-15 21:20:58.6080,-2.42,-0.65,4.28,4.95
2022-11-15 21:20:58.6100,-2.23,-0.01,3.48,4.13
2022-11-15 21:20:58.6100,-2.02,1.14,1.49,2.75
2022-11-15 21:20:58.6110,-1.51,2.27,-0.38,2.75
2022-11-15 21:20:58.6120,-1.19,2.63,-0.74,2.98
2022-11-15 21:20:58.6190,-1.23,2.07,-0.46,2.45
2022-11-15 21:20:58.6190,-1.31,1.19,-0.5,1.83
2022-11-15 21:20:58.6250,-1.44,0.39,-0.64,1.62
2022-11-15 21:20:58.6350,-1.49,0.07,-0.61,1.61
2022-11-15 21:20:58.6460,-1.64,0.21,-0.44,1.71
2022-11-15 21:20:58.7080,-1.99,0.38,-0.44,2.07
2022-11-15 21:20:58.7100,-2.31,0.41,-0.29,2.36
2022-11-15 21:20:58.7110,-2.37,0.47,0.17,2.42
2022-11-15 21:20:58.7120,-1.99,0.58,0.7,2.18
2022-11-15 21:20:58.7120,-1.56,0.58,1.01,1.94
2022-11-15 21:20:58.7180,-1.48,0.5,1.0,1.85
2022-11-15 21:20:58.7190,-1.75,0.28,0.78,1.93
2022-11-15 21:20:58.7260,-2.05,-0.06,0.47,2.1
2022-11-15 21:20:58.7360,-2.27,-0.39,0.14,2.3
2022-11-15 21:20:58.7460,-2.28,-0.68,-0.09,2.38
2022-11-15 21:20:58.8080,-2.03,-1.01,-0.13,2.27
2022-11-15 21:20:58.8100,-1.8,-1.38,-0.02,2.26
2022-11-15 21:20:58.8100,-1.87,-1.8,0.23,2.6
2022-11-15 21:20:58.8110,-2.25,-2.18,0.25,3.14
2022-11-15 21:20:58.8120,-2.72,-2.17,-0.27,3.49
2022-11-15 21:20:58.8170,-2.66,-1.88,-1.08,3.43
2022-11-15 21:20:58.8170,-2.4,-2.07,-1.24,3.4
2022-11-15 21:20:58.8260,-2.34,-2.71,-0.83,3.67
2022-11-15 21:20:58.8360,-2.26,-3.09,-0.8,3.91
2022-11-15 21:20:58.8460,-2.22,-3.16,-0.87,3.95
2022-11-15 21:20:58.9090,-2.16,-3.31,-0.68,4.01
2022-11-15 21:20:58.9100,-1.88,-3.63,-0.5,4.11
2022-11-15 21:20:58.9120,-1.22,-3.91,-0.49,4.12
2022-11-15 21:20:58.9140,-0.32,-3.98,-0.38,4.01
2022-11-15 21:20:58.9170,0.39,-3.68,-0.01,3.7
2022-11-15 21:20:58.9180,0.76,-2.85,0.52,2.99
2022-11-15 21:20:58.9350,0.84,-1.57,0.87,1.98
2022-11-15 21:20:58.9360,0.75,-0.19,0.95,1.22
2022-11-15 21:20:58.9390,0.67,1.01,0.86,1.48
2022-11-15 21:20:58.9460,0.65,1.92,0.71,2.14
2022-11-15 21:20:59.0100,0.67,2.56,0.65,2.72
2022-11-15 21:20:59.0110,0.88,2.94,1.07,3.25
2022-11-15 21:20:59.0120,1.16,2.97,1.87,3.69
2022-11-15 21:20:59.0130,1.27,2.42,2.11,3.45
2022-11-15 21:20:59.0140,1.03,1.17,1.3,2.02
2022-11-15 21:20:59.0160,0.39,-0.4,-0.16,0.58
2022-11-15 21:20:59.0170,-0.15,-1.68,-1.5,2.25
2022-11-15 21:20:59.0270,-0.13,-2.13,-2.4,3.21
2022-11-15 21:20:59.0370,0.57,-1.37,-2.72,3.09
2022-11-15 21:20:59.0470,1.52,-0.09,-2.33,2.78
2022-11-15 21:20:59.1100,2.18,1.24,-1.56,2.95
2022-11-15 21:20:59.1110,2.46,2.43,-0.64,3.51
2022-11-15 21:20:59.1130,2.39,3.19,0.16,3.98
2022-11-15 21:20:59.1150,1.98,3.48,0.68,4.06
2022-11-15 21:20:59.1160,1.31,3.35,1.05,3.74
2022-11-15 21:20:59.1180,0.64,2.81,1.45,3.22
2022-11-15 21:20:59.1200,0.17,2.1,1.79,2.76
2022-11-15 21:20:59.1270,-0.04,1.41,1.91,2.37
2022-11-15 21:20:59.1370,0.01,0.96,1.64,1.9
2022-11-15 21:20:59.1470,0.06,0.93,1.12,1.45
2022-11-15 21:20:59.2100,-0.16,1.19,0.68,1.37
2022-11-15 21:20:59.2110,-0.46,1.62,0.35,1.72
2022-11-15 21:20:59.2130,-0.73,1.91,0.17,2.05
2022-11-15 21:20:59.2150,-1.19,2.33,0.11,2.61
2022-11-15 21:20:59.2160,-1.83,3.04,0.1,3.54
2022-11-15 21:20:59.2180,-2.54,3.91,-0.02,4.66
2022-11-15 21:20:59.2200,-3.02,4.76,-0.2,5.64
2022-11-15 21:20:59.2270,-3.11,5.67,-0.3,6.47
2022-11-15 21:20:59.2370,-2.57,6.57,-0.42,7.06
2022-11-15 21:20:59.2470,-1.29,7.13,-0.69,7.27
2022-11-15 21:20:59.3110,0.58,7.09,-0.88,7.16
2022-11-15 21:20:59.3120,2.05,6.59,-0.35,6.91
2022-11-15 21:20:59.3140,2.43,5.5,0.14,6.01
2022-11-15 21:20:59.3160,1.62,3.57,0.4,3.94
2022-11-15 21:20:59.3170,0.49,0.47,0.4,0.78
2022-11-15 21:20:59.3350,0.04,-2.66,-0.76,2.76
2022-11-15 21:20:59.3360,-0.08,-5.39,-2.09,5.78
2022-11-15 21:20:59.3360,-0.75,-9.02,-1.61,9.19
2022-11-15 21:20:59.3370,-1.22,-12.87,0.61,12.94
2022-11-15 21:20:59.3480,-0.32,-14.9,1.82,15.01
2022-11-15 21:20:59.4060,2.17,-14.37,1.24,14.58
2022-11-15 21:20:59.4070,4.79,-11.65,0.6,12.61
2022-11-15 21:20:59.4090,6.47,-7.61,0.16,9.98
2022-11-15 21:20:59.4110,6.58,-3.93,-0.83,7.7
2022-11-15 21:20:59.4130,5.82,-1.01,-1.93,6.21
2022-11-15 21:20:59.4150,5.21,1.22,-3.05,6.15
2022-11-15 21:20:59.4180,5.14,2.84,-4.25,7.24
2022-11-15 21:20:59.4280,4.93,4.05,-5.09,8.16
2022-11-15 21:20:59.4380,4.39,4.95,-4.64,8.08
2022-11-15 21:20:59.4480,2.93,5.05,-2.5,6.35
2022-11-15 21:20:59.5070,0.47,2.18,0.58,2.3
2022-11-15 21:20:59.5080,-1.51,-1.86,3.06,3.88
2022-11-15 21:20:59.5110,-3.91,-3.89,3.69,6.63
2022-11-15 21:20:59.5130,-6.76,-3.76,2.39,8.09
2022-11-15 21:20:59.5150,-7.88,-1.01,0.71,7.97
2022-11-15 21:20:59.5160,-7.07,2.21,0.16,7.4
2022-11-15 21:20:59.5190,-5.33,3.91,0.11,6.61
2022-11-15 21:20:59.5280,-3.39,3.93,0.26,5.19
2022-11-15 21:20:59.5380,-2.3,2.86,-0.02,3.67
2022-11-15 21:20:59.5480,-1.69,1.66,-0.69,2.46
2022-11-15 21:20:59.6070,-1.15,0.98,-1.08,1.85
2022-11-15 21:20:59.6080,-0.8,0.86,-1.11,1.61
2022-11-15 21:20:59.6110,-0.86,1.26,-0.65,1.65
2022-11-15 21:20:59.6130,-1.35,1.73,-0.2,2.2
2022-11-15 21:20:59.6150,-1.94,2.04,-0.68,2.89
2022-11-15 21:20:59.6160,-2.22,2.37,-0.77,3.33
2022-11-15 21:20:59.6180,-1.64,2.65,1.91,3.65
2022-11-15 21:20:59.6280,-1.48,2.6,2.0,3.59
2022-11-15 21:20:59.6390,-1.8,2.28,0.8,3.01
2022-11-15 21:20:59.6490,-2.18,1.91,-0.68,2.97
2022-11-15 21:20:59.7080,-2.64,1.32,-1.27,3.21
2022-11-15 21:20:59.7090,-3.44,0.09,-0.88,3.55
2022-11-15 21:20:59.7110,-3.87,-1.63,-0.2,4.2
2022-11-15 21:20:59.7140,-2.53,-2.94,0.22,3.88
2022-11-15 21:20:59.7160,-0.45,-4.14,-0.08,4.16
2022-11-15 21:20:59.7170,0.65,-5.39,-0.43,5.44
2022-11-15 21:20:59.7350,0.23,-6.18,0.24,6.18
2022-11-15 21:20:59.7360,-1.06,-6.47,0.41,6.56
2022-11-15 21:20:59.7390,-1.87,-6.13,0.12,6.41
2022-11-15 21:20:59.7490,-1.95,-5.46,0.55,5.82
2022-11-15 21:20:59.8090,-1.28,-4.8,0.97,5.06
2022-11-15 21:20:59.8100,0.0,-4.22,0.33,4.23
2022-11-15 21:20:59.8100,1.7,-3.54,-1.1,4.07
2022-11-15 21:20:59.8130,3.09,-2.58,-2.05,4.51
2022-11-15 21:20:59.8150,3.82,-1.65,-1.65,4.47
2022-11-15 21:20:59.8170,4.25,-0.95,-0.86,4.43
2022-11-15 21:20:59.8190,4.39,-0.48,-0.01,4.41
2022-11-15 21:20:59.8350,4.2,-0.26,0.65,4.25
2022-11-15 21:20:59.8390,3.63,-0.31,0.86,3.74
2022-11-15 21:20:59.8490,2.74,-0.49,0.54,2.83
2022-11-15 21:20:59.9090,1.99,-0.41,-0.11,2.03
2022-11-15 21:20:59.9100,1.56,0.11,-0.55,1.65
2022-11-15 21:20:59.9110,1.62,0.94,-0.46,1.92
2022-11-15 21:20:59.9130,1.81,1.72,-0.05,2.49
2022-11-15 21:20:59.9150,1.82,2.16,0.32,2.84
2022-11-15 21:20:59.9160,1.69,2.28,0.48,2.87
2022-11-15 21:20:59.9190,1.52,2.14,0.45,2.66
2022-11-15 21:20:59.9290,1.37,1.88,0.27,2.34
2022-11-15 21:20:59.9400,1.19,1.66,-0.01,2.04
2022-11-15 21:20:59.9490,0.97,1.52,-0.34,1.83
2022-11-15 21:21:00.0090,0.69,1.45,-0.49,1.67
2022-11-15 21:21:00.0100,0.38,1.5,-0.5,1.62
2022-11-15 21:21:00.0130,-0.08,1.6,-0.26,1.62
2022-11-15 21:21:00.0150,-0.55,1.62,0.19,1.72
2022-11-15 21:21:00.0170,-0.77,1.68,0.64,1.95
2022-11-15 21:21:00.0190,-0.81,1.91,0.85,2.24
2022-11-15 21:21:00.0210,-0.93,2.19,0.8,2.51
2022-11-15 21:21:00.0300,-1.09,2.55,0.43,2.8
2022-11-15 21:21:00.0400,-1.32,2.81,0.05,3.1
2022-11-15 21:21:00.0500,-1.57,2.92,-0.17,3.31
2022-11-15 21:21:00.1090,-1.72,2.92,-0.26,3.39
2022-11-15 21:21:00.1100,-1.63,2.9,0.04,3.32
2022-11-15 21:21:00.1130,-1.18,2.77,0.7,3.09
2022-11-15 21:21:00.1150,-0.63,2.66,1.58,3.15
2022-11-15 21:21:00.1170,-0.14,2.51,2.56,3.58
2022-11-15 21:21:00.1170,0.19,2.14,3.34,3.97
2022-11-15 21:21:00.1350,0.29,1.65,3.33,3.72
2022-11-15 21:21:00.1360,0.22,1.22,2.41,2.71
2022-11-15 21:21:00.1400,0.13,0.78,1.36,1.57
2022-11-15 21:21:00.1500,0.06,0.2,0.73,0.75
2022-11-15 21:21:00.2110,0.0,-0.41,0.4,0.57
2022-11-15 21:21:00.2110,0.12,-0.56,0.2,0.6
2022-11-15 21:21:00.2120,0.49,0.15,0.2,0.55
2022-11-15 21:21:00.2140,0.95,1.2,0.49,1.6
2022-11-15 21:21:00.2170,1.33,1.67,0.62,2.22
2022-11-15 21:21:00.2180,1.65,1.33,0.53,2.18
2022-11-15 21:21:00.2350,1.55,0.31,0.58,1.68
2022-11-15 21:21:00.2360,1.01,-1.21,0.79,1.76
2022-11-15 21:21:00.2400,0.45,-3.04,0.47,3.1
2022-11-15 21:21:00.2510,0.17,-4.54,-0.46,4.56
2022-11-15 21:21:00.3110,0.36,-5.7,-0.68,5.75
2022-11-15 21:21:00.3120,0.64,-6.81,0.19,6.84
2022-11-15 21:21:00.3120,0.85,-8.0,1.41,8.16
2022-11-15 21:21:00.3150,1.74,-7.96,1.83,8.35
2022-11-15 21:21:00.3170,3.05,-5.51,1.02,6.37
2022-11-15 21:21:00.3170,3.93,-2.64,-0.48,4.75
2022-11-15 21:21:00.3350,4.3,-0.89,-1.63,4.68
2022-11-15 21:21:00.3360,4.35,0.1,-2.0,4.78
2022-11-15 21:21:00.3400,4.12,0.87,-1.9,4.61
2022-11-15 21:21:00.3510,3.93,1.33,-1.92,4.57
2022-11-15 21:21:00.4120,3.83,1.54,-2.26,4.7
2022-11-15 21:21:00.4130,3.8,1.4,-2.91,4.98
2022-11-15 21:21:00.4140,3.73,1.04,-3.98,5.55
2022-11-15 21:21:00.4160,3.48,0.68,-5.06,6.17
2022-11-15 21:21:00.4180,2.78,0.21,-5.13,5.83
2022-11-15 21:21:00.4210,1.68,-0.45,-3.9,4.27
2022-11-15 21:21:00.4230,-0.25,-1.23,-1.42,1.89
2022-11-15 21:21:00.4310,-2.38,-2.0,2.23,3.82
2022-11-15 21:21:00.4410,-2.32,-1.5,5.48,6.13
2022-11-15 21:21:00.4510,-1.26,-0.29,5.56,5.7
2022-11-15 21:21:00.5120,-1.68,0.44,2.96,3.43
2022-11-15 21:21:00.5130,-2.06,1.39,-0.45,2.52
2022-11-15 21:21:00.5140,-1.63,2.66,-2.44,3.96
2022-11-15 21:21:00.5160,-1.15,3.2,-2.12,4.0
2022-11-15 21:21:00.5350,-1.3,2.62,-0.66,2.99
2022-11-15 21:21:00.5360,-1.67,1.7,0.56,2.44
2022-11-15 21:21:00.5390,-2.1,0.93,0.72,2.4
2022-11-15 21:21:00.5410,-1.72,0.65,0.55,1.91
2022-11-15 21:21:00.5430,-1.07,0.55,0.33,1.24
2022-11-15 21:21:00.5510,-1.02,0.18,-0.08,1.03
2022-11-15 21:21:00.6130,-0.95,-0.23,-0.18,0.99
2022-11-15 21:21:00.6140,-0.78,-0.21,-0.08,0.81
2022-11-15 21:21:00.6150,-1.02,0.29,-0.06,1.06
2022-11-15 21:21:00.6160,-2.14,0.86,-0.32,2.32
2022-11-15 21:21:00.6350,-3.06,1.42,-0.43,3.4
2022-11-15 21:21:00.6360,-3.78,1.87,-0.2,4.22
2022-11-15 21:21:00.6390,-4.53,2.0,-0.18,4.95
2022-11-15 21:21:00.6410,-5.18,1.79,-0.52,5.5
2022-11-15 21:21:00.6430,-5.55,1.18,-0.81,5.73
2022-11-15 21:21:00.6520,-5.2,0.11,-0.83,5.26
2022-11-15 21:21:00.7130,-3.51,-1.01,-0.42,3.67
2022-11-15 21:21:00.7140,-1.36,-2.78,0.11,3.09
2022-11-15 21:21:00.7150,-0.23,-5.67,0.12,5.67
2022-11-15 21:21:00.7170,-0.19,-8.02,-0.06,8.02
2022-11-15 21:21:00.7360,-0.81,-8.64,-0.54,8.69
2022-11-15 21:21:00.7360,-0.79,-7.29,-0.49,7.34
2022-11-15 21:21:00.7370,-0.28,-5.83,0.39,5.84
2022-11-15 21:21:00.7380,0.26,-5.48,1.03,5.58
2022-11-15 21:21:00.7510,1.24,-5.43,0.93,5.64
2022-11-15 21:21:00.7520,2.19,-5.15,0.72,5.64
2022-11-15 21:21:00.8140,2.75,-4.28,0.64,5.12
2022-11-15 21:21:00.8160,2.73,-2.83,1.2,4.11
2022-11-15 21:21:00.8160,2.24,-1.26,1.9,3.19
2022-11-15 21:21:00.8170,1.95,0.02,2.11,2.87
2022-11-15 21:21:00.8180,1.83,1.03,1.87,2.81
2022-11-15 21:21:00.8350,1.79,1.74,0.92,2.66
2022-11-15 21:21:00.8360,1.85,1.92,-0.58,2.72
2022-11-15 21:21:00.8380,2.14,1.47,-1.98,3.26
2022-11-15 21:21:00.8420,2.63,0.79,-2.51,3.72
2022-11-15 21:21:00.8520,3.11,0.23,-2.3,3.87
2022-11-15 21:21:00.9150,3.78,0.05,-1.16,3.95
2022-11-15 21:21:00.9150,4.43,0.27,0.48,4.46
2022-11-15 21:21:00.9160,4.77,0.77,2.12,5.27
2022-11-15 21:21:00.9190,4.46,1.63,2.51,5.37
2022-11-15 21:21:00.9210,3.47,2.41,1.89,4.62
2022-11-15 21:21:00.9230,1.98,2.9,1.19,3.7
2022-11-15 21:21:00.9250,0.61,2.97,1.06,3.21
2022-11-15 21:21:00.9330,-0.29,2.87,1.28,3.15
2022-11-15 21:21:00.9430,-0.88,2.53,1.35,2.99
2022-11-15 21:21:00.9530,-1.15,2.02,1.21,2.62
2022-11-15 21:21:01.0150,-1.23,1.61,1.06,2.28
2022-11-15 21:21:01.0160,-1.23,1.32,1.06,2.09
2022-11-15 21:21:01.0160,-1.08,1.2,1.22,2.02
2022-11-15 21:21:01.0190,-0.68,1.33,1.36,2.02
2022-11-15 21:21:01.0210,-0.41,1.62,1.17,2.03
2022-11-15 21:21:01.0230,-0.29,2.14,0.85,2.32
2022-11-15 21:21:01.0250,-0.14,2.8,0.6,2.86
2022-11-15 21:21:01.0330,0.3,3.56,0.67,3.63
2022-11-15 21:21:01.0430,1.12,4.07,1.06,4.35
2022-11-15 21:21:01.0530,1.99,3.77,1.42,4.49
2022-11-15 21:21:01.1150,2.27,2.96,1.47,4.0
2022-11-15 21:21:01.1160,1.88,2.37,1.35,3.31
2022-11-15 21:21:01.1170,0.94,2.17,1.26,2.67
2022-11-15 21:21:01.1190,-0.22,2.18,1.13,2.46
2022-11-15 21:21:01.1210,-0.96,2.37,1.18,2.81
2022-11-15 21:21:01.1240,-1.47,2.35,1.36,3.08
2022-11-15 21:21:01.1260,-1.97,2.03,1.52,3.21
2022-11-15 21:21:01.1330,-2.38,1.62,1.58,3.28
2022-11-15 21:21:01.1430,-2.53,1.37,1.69,3.33
2022-11-15 21:21:01.1530,-2.48,1.35,1.81,3.35
2022-11-15 21:21:01.2160,-2.25,1.62,2.19,3.53
2022-11-15 21:21:01.2170,-1.8,1.95,2.55,3.68
2022-11-15 21:21:01.2180,-1.22,2.1,2.67,3.6
2022-11-15 21:21:01.2200,-0.73,1.9,2.59,3.29
2022-11-15 21:21:01.2220,-0.5,1.16,2.46,2.76
2022-11-15 21:21:01.2240,-0.64,-0.17,2.62,2.7
2022-11-15 21:21:01.2260,-0.98,-2.18,2.62,3.54
2022-11-15 21:21:01.2330,-1.15,-4.12,0.84,4.35
2022-11-15 21:21:01.2430,-0.98,-5.61,-1.51,5.89
2022-11-15 21:21:01.2540,-0.97,-7.7,-2.05,8.02
2022-11-15 21:21:01.3160,-0.98,-10.51,-0.77,10.58
2022-11-15 21:21:01.3170,-0.23,-12.45,1.47,12.53
2022-11-15 21:21:01.3180,1.8,-10.98,2.35,11.37
2022-11-15 21:21:01.3200,3.11,-6.21,0.88,7.0
2022-11-15 21:21:01.3230,3.83,-2.93,-0.55,4.85
2022-11-15 21:21:01.3250,4.52,-0.95,-1.0,4.72
2022-11-15 21:21:01.3270,5.07,0.72,-0.87,5.19
2022-11-15 21:21:01.3340,5.31,2.24,-0.49,5.78
2022-11-15 21:21:01.3440,5.26,3.62,-0.3,6.39
2022-11-15 21:21:01.3540,4.96,4.71,-0.39,6.85
2022-11-15 21:21:01.4170,4.63,5.14,-0.71,6.95
2022-11-15 21:21:01.4180,4.35,4.47,-1.76,6.48
2022-11-15 21:21:01.4190,3.9,3.11,-3.1,5.87
2022-11-15 21:21:01.4210,3.03,1.1,-4.48,5.51
2022-11-15 21:21:01.4230,1.86,-1.31,-5.2,5.67
2022-11-15 21:21:01.4250,0.64,-3.57,-4.82,6.03
2022-11-15 21:21:01.4280,-0.52,-5.24,-2.13,5.68
2022-11-15 21:21:01.4340,-0.71,-5.03,1.91,5.42
2022-11-15 21:21:01.4440,-0.57,-2.69,3.58,4.51
2022-11-15 21:21:01.4540,-1.14,-1.13,3.87,4.18
2022-11-15 21:21:01.5180,-1.88,0.01,3.52,3.99
2022-11-15 21:21:01.5190,-2.33,1.23,2.3,3.49
2022-11-15 21:21:01.5190,-2.08,2.32,0.81,3.21
2022-11-15 21:21:01.5210,-1.66,2.59,-0.29,3.08
2022-11-15 21:21:01.5240,-1.41,2.17,-0.99,2.77
2022-11-15 21:21:01.5260,-1.01,1.65,-1.31,2.33
2022-11-15 21:21:01.5280,-0.57,1.23,-1.19,1.8
2022-11-15 21:21:01.5340,-0.26,0.87,-0.95,1.31
2022-11-15 21:21:01.5440,-0.1,0.71,-0.69,0.99
2022-11-15 21:21:01.5550,-0.17,0.66,-0.16,0.7
2022-11-15 21:21:01.6180,-0.46,0.27,0.73,0.9
2022-11-15 21:21:01.6190,-0.44,-0.41,1.97,2.05
2022-11-15 21:21:01.6200,0.03,-0.85,2.66,2.79
2022-11-15 21:21:01.6220,0.22,-1.03,2.15,2.39
2022-11-15 21:21:01.6240,0.01,-0.98,1.04,1.42
2022-11-15 21:21:01.6260,-0.37,-0.51,0.11,0.63
2022-11-15 21:21:01.6290,-0.75,0.21,-0.32,0.84
2022-11-15 21:21:01.6350,-1.15,0.62,-0.25,1.33
2022-11-15 21:21:01.6450,-1.6,0.65,-0.03,1.72
2022-11-15 21:21:01.6550,-2.16,0.69,0.15,2.27
2022-11-15 21:21:01.7180,-2.72,0.92,0.2,2.87
2022-11-15 21:21:01.7190,-3.2,1.32,0.1,3.46
2022-11-15 21:21:01.7200,-3.5,1.68,-0.15,3.88
2022-11-15 21:21:01.7220,-3.73,1.82,-0.45,4.17
2022-11-15 21:21:01.7240,-3.95,1.69,-0.76,4.36
2022-11-15 21:21:01.7260,-4.19,1.41,-1.05,4.54
2022-11-15 21:21:01.7280,-4.28,1.15,-1.07,4.55
2022-11-15 21:21:01.7350,-3.94,0.88,-0.8,4.11
2022-11-15 21:21:01.7450,-2.81,0.48,-0.28,2.86
2022-11-15 21:21:01.7550,-1.03,-0.52,0.12,1.16
2022-11-15 21:21:01.8180,0.76,-2.56,-0.09,2.67
2022-11-15 21:21:01.8190,1.45,-5.5,-0.83,5.74
2022-11-15 21:21:01.8200,1.29,-8.09,-1.59,8.34
2022-11-15 21:21:01.8220,0.7,-9.17,-2.0,9.41
2022-11-15 21:21:01.8240,0.23,-7.91,-1.45,8.04
2022-11-15 21:21:01.8270,-0.14,-5.2,-0.64,5.24
2022-11-15 21:21:01.8290,-0.43,-3.35,0.0,3.37
2022-11-15 21:21:01.8350,-0.33,-2.4,0.7,2.52
2022-11-15 21:21:01.8450,-0.12,-1.88,1.33,2.3
2022-11-15 21:21:01.8560,0.08,-1.6,2.11,2.64
2022-11-15 21:21:01.9190,0.29,-1.16,2.49,2.76
2022-11-15 21:21:01.9190,0.71,-0.43,2.0,2.16
2022-11-15 21:21:01.9200,1.43,0.45,1.15,1.88
2022-11-15 21:21:01.9220,1.41,1.1,1.38,2.25
2022-11-15 21:21:01.9250,1.2,1.6,2.25,3.01
2022-11-15 21:21:01.9270,1.5,2.06,2.6,3.64
2022-11-15 21:21:01.9290,1.81,2.49,2.18,3.77
2022-11-15 21:21:01.9360,1.89,2.78,0.96,3.49
2022-11-15 21:21:01.9460,1.92,2.84,-0.46,3.45
2022-11-15 21:21:01.9560,1.97,2.61,-1.52,3.6
2022-11-15 21:21:02.0200,2.16,2.14,-1.86,3.56
2022-11-15 21:21:02.0210,2.45,1.56,-1.61,3.32
2022-11-15 21:21:02.0210,2.59,0.87,-1.03,2.91
2022-11-15 21:21:02.0230,2.65,0.04,-0.2,2.65
2022-11-15 21:21:02.0250,2.6,-0.95,0.76,2.87
2022-11-15 21:21:02.0280,2.33,-1.82,1.48,3.3
2022-11-15 21:21:02.0300,1.83,-2.33,1.58,3.35
2022-11-15 21:21:02.0360,1.35,-2.36,1.23,2.98
2022-11-15 21:21:02.0460,1.03,-1.83,0.87,2.27
2022-11-15 21:21:02.0560,0.86,-1.01,0.68,1.49
2022-11-15 21:21:02.1200,0.94,-0.11,0.86,1.27
2022-11-15 21:21:02.1220,1.06,0.58,1.3,1.77
2022-11-15 21:21:02.1230,1.04,0.98,1.73,2.24
2022-11-15 21:21:02.1240,1.07,1.28,1.89,2.52
2022-11-15 21:21:02.1240,1.27,1.41,1.46,2.39
2022-11-15 21:21:02.1350,1.4,1.43,0.74,2.13
2022-11-15 21:21:02.1360,1.45,1.55,0.24,2.13
2022-11-15 21:21:02.1360,1.42,1.87,0.06,2.34
2022-11-15 21:21:02.1460,1.29,2.41,0.0,2.73
2022-11-15 21:21:02.1560,1.38,3.16,-0.07,3.44
2022-11-15 21:21:02.2210,1.55,3.75,-0.17,4.06
2022-11-15 21:21:02.2210,1.54,4.25,-0.31,4.53
2022-11-15 21:21:02.2240,1.23,4.64,-0.37,4.81
2022-11-15 21:21:02.2260,0.7,5.02,-0.14,5.07
2022-11-15 21:21:02.2280,0.13,5.42,0.42,5.43
2022-11-15 21:21:02.2300,-0.4,5.52,1.13,5.64
2022-11-15 21:21:02.2330,-0.59,5.04,1.8,5.38
2022-11-15 21:21:02.2360,-0.19,4.29,2.41,4.92
2022-11-15 21:21:02.2520,0.22,3.76,2.73,4.65
2022-11-15 21:21:02.2570,0.31,3.27,2.66,4.22
2022-11-15 21:21:02.3220,0.22,2.31,2.41,3.34
2022-11-15 21:21:02.3240,0.0,0.62,1.66,1.77
2022-11-15 21:21:02.3250,-0.15,-0.73,0.4,0.84
2022-11-15 21:21:02.3250,-0.55,-2.22,-0.02,2.28
2022-11-15 21:21:02.3260,-1.41,-4.94,0.54,5.16
2022-11-15 21:21:02.3330,-2.87,-9.07,1.93,9.7
2022-11-15 21:21:02.3340,-4.25,-12.74,2.43,13.64
2022-11-15 21:21:02.3370,-4.82,-14.19,1.79,15.09
2022-11-15 21:21:02.3470,-3.89,-12.59,1.26,13.23
2022-11-15 21:21:02.3570,-2.08,-7.76,0.81,8.07
2022-11-15 21:21:02.4210,-2.11,-3.91,0.06,4.44
2022-11-15 21:21:02.4230,-1.67,-1.22,-0.77,2.2
2022-11-15 21:21:02.4240,-0.79,1.05,-1.49,1.98
2022-11-15 21:21:02.4250,-0.02,2.67,-2.52,3.67
2022-11-15 21:21:02.4250,0.64,3.54,-4.12,5.46
2022-11-15 21:21:02.4360,1.17,3.84,-6.46,7.6
2022-11-15 21:21:02.4370,1.69,3.77,-7.48,8.54
2022-11-15 21:21:02.4380,2.07,3.16,-6.21,7.26
2022-11-15 21:21:02.4470,2.03,2.34,-3.5,4.67
2022-11-15 21:21:02.4570,2.02,1.55,-0.8,2.66
2022-11-15 21:21:02.5240,3.09,0.46,3.6,4.76
2022-11-15 21:21:02.5250,4.2,-1.1,9.21,10.18
2022-11-15 21:21:02.5260,3.59,-2.42,11.32,12.11
2022-11-15 21:21:02.5270,1.58,-2.36,8.0,8.48
2022-11-15 21:21:02.5280,1.24,-0.73,3.0,3.32
2022-11-15 21:21:02.5330,2.1,0.82,-0.35,2.28
2022-11-15 21:21:02.5340,2.6,1.38,-2.01,3.56
2022-11-15 21:21:02.5370,2.65,1.46,-2.85,4.15
2022-11-15 21:21:02.5470,2.49,1.36,-2.78,3.97
2022-11-15 21:21:02.5580,1.94,1.13,-2.03,3.02
2022-11-15 21:21:02.6220,1.07,0.81,-1.24,1.82
2022-11-15 21:21:02.6240,0.11,0.5,-0.78,0.93
2022-11-15 21:21:02.6240,-0.76,0.38,-0.79,1.16
2022-11-15 21:21:02.6250,-1.56,0.32,-0.95,1.85
2022-11-15 21:21:02.6260,-2.25,0.25,-1.23,2.57
2022-11-15 21:21:02.6360,-2.82,0.02,-1.53,3.2
2022-11-15 21:21:02.6360,-3.55,-0.36,-1.66,3.93
2022-11-15 21:21:02.6380,-4.58,-0.7,-1.1,4.76
2022-11-15 21:21:02.6480,-6.01,-0.9,0.86,6.13
2022-11-15 21:21:02.6580,-6.62,-0.53,2.9,7.24
2022-11-15 21:21:02.7230,-6.67,-0.11,4.66,8.13
2022-11-15 21:21:02.7250,-6.64,0.17,6.22,9.09
2022-11-15 21:21:02.7260,-6.12,0.59,6.45,8.91
2022-11-15 21:21:02.7260,-5.06,0.9,4.15,6.6
2022-11-15 21:21:02.7270,-3.94,1.1,0.49,4.11
2022-11-15 21:21:02.7330,-3.57,0.98,-2.36,4.39
2022-11-15 21:21:02.7340,-4.05,0.01,-3.49,5.34
2022-11-15 21:21:02.7380,-4.06,-1.44,-3.6,5.61
2022-11-15 21:21:02.7480,-2.33,-2.61,-4.1,5.38
2022-11-15 21:21:02.7580,-0.38,-3.51,-4.14,5.44
2022-11-15 21:21:02.8230,0.04,-4.23,-2.26,4.79
2022-11-15 21:21:02.8240,-0.15,-4.6,0.52,4.63
2022-11-15 21:21:02.8250,-0.36,-4.51,2.33,5.08
2022-11-15 21:21:02.8260,-1.13,-4.26,2.57,5.1
2022-11-15 21:21:02.8270,-2.19,-4.31,1.94,5.2
2022-11-15 21:21:02.8330,-1.92,-4.33,1.6,4.99
2022-11-15 21:21:02.8340,-0.36,-3.82,1.86,4.26
2022-11-15 21:21:02.8380,0.65,-2.94,2.63,3.99
2022-11-15 21:21:02.8480,0.8,-1.9,3.31,3.89
2022-11-15 21:21:02.8590,1.0,-0.57,3.59,3.77
2022-11-15 21:21:02.9230,1.24,0.79,3.48,3.77
2022-11-15 21:21:02.9250,1.34,1.8,2.7,3.51
2022-11-15 21:21:02.9260,1.46,2.38,1.57,3.2
2022-11-15 21:21:02.9270,1.49,2.43,0.45,2.88
2022-11-15 21:21:02.9270,1.33,1.99,-0.32,2.41
2022-11-15 21:21:02.9350,1.24,1.6,-0.63,2.12
2022-11-15 21:21:02.9360,1.22,1.37,-0.59,1.92
2022-11-15 21:21:02.9390,1.16,1.39,-0.31,1.83
2022-11-15 21:21:02.9490,1.18,1.46,0.02,1.87
2022-11-15 21:21:02.9590,1.34,1.38,0.31,1.94
2022-11-15 21:21:03.0240,1.42,0.96,0.38,1.75
2022-11-15 21:21:03.0260,1.1,0.17,0.19,1.12
2022-11-15 21:21:03.0270,0.39,-0.36,-0.05,0.53
2022-11-15 21:21:03.0280,0.01,-0.39,-0.05,0.39
2022-11-15 21:21:03.0280,0.07,-0.13,0.24,0.28
2022-11-15 21:21:03.0340,0.21,0.16,0.58,0.63
2022-11-15 21:21:03.0350,0.24,0.42,0.89,1.01
2022-11-15 21:21:03.0390,0.32,0.65,1.12,1.33
2022-11-15 21:21:03.0490,0.58,0.85,1.29,1.65
2022-11-15 21:21:03.0590,0.62,0.89,1.28,1.67
2022-11-15 21:21:03.1240,0.13,0.67,1.18,1.36
2022-11-15 21:21:03.1260,-0.5,0.29,0.98,1.13
2022-11-15 21:21:03.1270,-1.07,0.06,0.63,1.24
2022-11-15 21:21:03.1280,-1.41,0.13,0.32,1.45
2022-11-15 21:21:03.1280,-1.66,0.46,0.16,1.72
2022-11-15 21:21:03.1330,-1.91,0.92,0.32,2.14
2022-11-15 21:21:03.1340,-1.96,1.46,0.39,2.47
2022-11-15 21:21:03.1390,-1.78,1.93,0.24,2.63
2022-11-15 21:21:03.1490,-1.64,2.07,0.13,2.64
2022-11-15 21:21:03.1600,-1.6,1.87,0.25,2.47
2022-11-15 21:21:03.2250,-1.67,1.5,0.69,2.34
2022-11-15 21:21:03.2260,-1.54,1.17,1.25,2.3
2022-11-15 21:21:03.2270,-1.07,1.24,1.46,2.19
2022-11-15 21:21:03.2280,-0.92,1.75,1.06,2.24
2022-11-15 21:21:03.2290,-1.07,2.46,0.58,2.74
2022-11-15 21:21:03.2350,-0.99,3.33,0.56,3.51
2022-11-15 21:21:03.2350,-0.4,4.31,1.07,4.45
2022-11-15 21:21:03.2390,0.45,4.98,1.73,5.29
2022-11-15 21:21:03.2500,1.26,5.08,1.89,5.56
2022-11-15 21:21:03.2600,1.61,4.57,1.39,5.04
2022-11-15 21:21:03.3260,1.48,3.57,0.8,3.94
2022-11-15 21:21:03.3270,1.21,2.47,0.42,2.78
2022-11-15 21:21:03.3280,0.74,1.44,0.09,1.62
2022-11-15 21:21:03.3290,0.29,0.67,-0.33,0.8
2022-11-15 21:21:03.3300,0.08,0.24,-0.8,0.83
2022-11-15 21:21:03.3340,0.08,-0.07,-0.99,0.99
2022-11-15 21:21:03.3350,0.18,-1.01,-1.29,1.64
2022-11-15 21:21:03.3400,0.08,-2.53,-2.18,3.34
2022-11-15 21:21:03.3500,0.01,-3.89,-3.1,4.97
2022-11-15 21:21:03.3600,0.16,-5.31,-3.34,6.27
2022-11-15 21:21:03.4270,0.4,-7.05,-2.47,7.48
2022-11-15 21:21:03.4280,0.85,-8.35,-0.91,8.44
2022-11-15 21:21:03.4290,1.82,-8.46,0.03,8.65
2022-11-15 21:21:03.4300,2.57,-6.78,-0.18,7.25
2022-11-15 21:21:03.4310,2.55,-4.44,-1.0,5.21
2022-11-15 21:21:03.4330,2.65,-2.31,-1.68,3.89
2022-11-15 21:21:03.4360,2.88,-0.61,-1.7,3.39
2022-11-15 21:21:03.4400,3.13,0.64,-1.73,3.63
2022-11-15 21:21:03.4500,3.29,1.51,-2.14,4.2
2022-11-15 21:21:03.4600,3.31,1.9,-2.51,4.56
2022-11-15 21:21:03.5280,3.22,1.78,-2.89,4.67
2022-11-15 21:21:03.5290,2.87,1.18,-3.28,4.51
2022-11-15 21:21:03.5300,2.04,0.14,-3.61,4.14
2022-11-15 21:21:03.5310,0.96,-0.9,-3.74,3.96
2022-11-15 21:21:03.5320,-0.07,-1.37,-3.29,3.56
2022-11-15 21:21:03.5520,-0.52,-0.9,-1.9,2.16
2022-11-15 21:21:03.5530,-0.03,0.01,0.29,0.29
2022-11-15 21:21:03.5540,0.83,0.65,2.74,2.93
2022-11-15 21:21:03.5550,1.27,0.86,4.28,4.54
2022-11-15 21:21:03.5680,1.19,0.72,3.89,4.13
2022-11-15 21:21:03.6270,1.12,0.6,1.91,2.29
2022-11-15 21:21:03.6290,1.42,0.65,-0.25,1.58
2022-11-15 21:21:03.6300,1.52,0.58,-1.77,2.4
2022-11-15 21:21:03.6300,0.92,0.04,-2.44,2.6
2022-11-15 21:21:03.6310,0.2,-0.41,-2.18,2.22
2022-11-15 21:21:03.6330,-0.35,-0.42,-1.29,1.4
2022-11-15 21:21:03.6350,-0.89,-0.14,-0.29,0.94
2022-11-15 21:21:03.6410,-1.47,0.32,0.31,1.53
2022-11-15 21:21:03.6510,-1.91,0.85,0.54,2.15
2022-11-15 21:21:03.6610,-2.21,1.26,0.66,2.62
2022-11-15 21:21:03.7270,-2.41,1.37,0.75,2.87
2022-11-15 21:21:03.7290,-2.38,1.18,0.87,2.79
2022-11-15 21:21:03.7300,-1.94,0.83,0.94,2.31
2022-11-15 21:21:03.7310,-1.34,0.45,0.65,1.55
2022-11-15 21:21:03.7310,-0.99,0.12,-0.01,0.99
2022-11-15 21:21:03.7340,-0.82,-0.09,-0.72,1.09
2022-11-15 21:21:03.7360,-0.84,-0.3,-1.09,1.4
2022-11-15 21:21:03.7410,-0.97,-0.58,-0.99,1.5
2022-11-15 21:21:03.7510,-1.04,-0.78,-0.75,1.5
2022-11-15 21:21:03.7610,-0.87,-0.61,-0.75,1.3
2022-11-15 21:21:03.8280,-0.48,-0.14,-0.94,1.06
2022-11-15 21:21:03.8300,-0.06,0.31,-1.18,1.22
2022-11-15 21:21:03.8300,0.24,0.52,-1.32,1.43
2022-11-15 21:21:03.8310,0.29,0.52,-1.32,1.44
2022-11-15 21:21:03.8320,0.08,0.5,-1.13,1.23
2022-11-15 21:21:03.8520,-0.46,0.33,-0.74,0.93
2022-11-15 21:21:03.8530,-1.19,0.02,-0.27,1.22
2022-11-15 21:21:03.8560,-1.66,-0.21,-0.06,1.67
2022-11-15 21:21:03.8580,-1.72,-0.17,-0.14,1.73
2022-11-15 21:21:03.8610,-1.62,0.11,-0.42,1.67
2022-11-15 21:21:03.9280,-1.58,0.45,-0.8,1.82
2022-11-15 21:21:03.9300,-1.7,0.69,-1.09,2.13
2022-11-15 21:21:03.9300,-1.91,0.78,-0.97,2.27
2022-11-15 21:21:03.9310,-2.08,0.68,-0.61,2.27
2022-11-15 21:21:03.9340,-2.18,0.47,-0.55,2.29
2022-11-15 21:21:03.9360,-2.39,0.27,-0.81,2.53
2022-11-15 21:21:03.9380,-2.67,0.25,-1.0,2.86
2022-11-15 21:21:03.9420,-2.84,0.44,-0.94,3.02
2022-11-15 21:21:03.9520,-2.96,0.61,-0.88,3.14
2022-11-15 21:21:03.9620,-3.06,0.62,-0.86,3.23
2022-11-15 21:21:04.0280,-3.21,0.61,-0.84,3.37
2022-11-15 21:21:04.0300,-3.22,0.7,-0.89,3.41
2022-11-15 21:21:04.0310,-3.2,0.78,-0.88,3.4
2022-11-15 21:21:04.0310,-3.19,0.78,-0.78,3.37
2022-11-15 21:21:04.0520,-3.17,0.57,-0.7,3.29
2022-11-15 21:21:04.0530,-3.05,-0.01,-0.4,3.07
2022-11-15 21:21:04.0540,-2.91,-0.96,-0.19,3.07
2022-11-15 21:21:04.0540,-2.09,-1.86,-0.31,2.81
2022-11-15 21:21:04.0680,-0.22,-2.43,-0.39,2.47
2022-11-15 21:21:04.0690,1.6,-3.05,-0.44,3.47
2022-11-15 21:21:04.1290,1.75,-3.66,-0.57,4.09
2022-11-15 21:21:04.1300,0.87,-3.6,-0.71,3.77
2022-11-15 21:21:04.1310,0.68,-3.46,-0.85,3.62
2022-11-15 21:21:04.1320,0.85,-3.57,-0.4,3.69
2022-11-15 21:21:04.1520,1.14,-3.51,0.54,3.72
2022-11-15 21:21:04.1530,1.37,-2.7,0.78,3.12
2022-11-15 21:21:04.1540,1.36,-1.16,-0.06,1.78
2022-11-15 21:21:04.1540,1.38,0.59,-0.73,1.66
2022-11-15 21:21:04.1680,1.47,2.04,-0.79,2.63
2022-11-15 21:21:04.1690,1.56,3.07,-0.69,3.51
2022-11-15 21:21:04.2280,1.68,3.64,-0.18,4.01
2022-11-15 21:21:04.2300,1.62,3.47,0.76,3.9
2022-11-15 21:21:04.2310,1.43,2.59,1.15,3.17
2022-11-15 21:21:04.2320,1.16,1.4,0.8,1.98
2022-11-15 21:21:04.2520,0.83,0.04,0.23,0.86
2022-11-15 21:21:04.2520,0.52,-1.16,-0.46,1.35
2022-11-15 21:21:04.2550,0.14,-1.61,-1.28,2.06
2022-11-15 21:21:04.2570,0.16,-1.26,-1.44,1.92
2022-11-15 21:21:04.2590,0.62,-0.6,-0.85,1.21
2022-11-15 21:21:04.2630,1.09,0.14,-0.02,1.09
2022-11-15 21:21:04.3290,1.12,0.73,0.69,1.5
2022-11-15 21:21:04.3310,0.8,1.05,1.21,1.79
2022-11-15 21:21:04.3320,0.51,0.96,1.36,1.74
2022-11-15 21:21:04.3340,0.39,0.39,1.2,1.32
2022-11-15 21:21:04.3360,0.53,-0.3,0.9,1.08
2022-11-15 21:21:04.3380,0.77,-1.05,0.64,1.45
2022-11-15 21:21:04.3400,1.05,-1.47,0.5,1.87
2022-11-15 21:21:04.3430,1.41,-1.55,0.32,2.11
2022-11-15 21:21:04.3530,1.75,-1.26,0.21,2.16
2022-11-15 21:21:04.3630,2.15,-0.55,0.42,2.25
2022-11-15 21:21:04.4300,2.53,0.42,0.73,2.66
2022-11-15 21:21:04.4310,2.92,1.47,0.94,3.4
2022-11-15 21:21:04.4330,3.52,2.38,1.07,4.38
2022-11-15 21:21:04.4360,4.19,2.9,1.09,5.21
2022-11-15 21:21:04.4380,4.28,3.12,0.99,5.38
2022-11-15 21:21:04.4400,3.75,3.28,1.05,5.09
2022-11-15 21:21:04.4430,3.15,3.58,1.24,4.92
2022-11-15 21:21:04.4450,2.56,3.97,1.3,4.89
2022-11-15 21:21:04.4530,1.75,4.14,0.92,4.58
2022-11-15 21:21:04.4630,0.86,4.03,0.21,4.12
2022-11-15 21:21:04.5300,0.14,3.75,-0.57,3.79
2022-11-15 21:21:04.5310,-0.4,3.53,-1.49,3.85
2022-11-15 21:21:04.5330,-0.97,3.55,-2.27,4.32
2022-11-15 21:21:04.5360,-1.3,4.04,-2.22,4.78
2022-11-15 21:21:04.5380,-1.29,4.88,-1.34,5.22
2022-11-15 21:21:04.5400,-1.33,5.57,-0.35,5.73
2022-11-15 21:21:04.5420,-1.41,5.76,0.55,5.95
2022-11-15 21:21:04.5450,-1.72,4.59,1.55,5.14
2022-11-15 21:21:04.5540,-1.4,2.43,1.91,3.39
2022-11-15 21:21:04.5640,-1.98,-0.16,1.67,2.59
2022-11-15 21:21:04.6310,-3.08,-4.51,1.59,5.68
2022-11-15 21:21:04.6330,-4.83,-9.87,1.78,11.13
2022-11-15 21:21:04.6340,-6.61,-14.68,1.8,16.19
2022-11-15 21:21:04.6350,-6.63,-16.01,1.54,17.39
2022-11-15 21:21:04.6350,-3.13,-10.03,0.66,10.52
2022-11-15 21:21:04.6510,-0.02,-5.3,-1.47,5.5
2022-11-15 21:21:04.6520,1.61,-3.8,-2.91,5.04
2022-11-15 21:21:04.6530,2.9,-2.25,-3.52,5.08
2022-11-15 21:21:04.6560,3.97,-0.92,-4.06,5.75
2022-11-15 21:21:04.6640,4.87,-0.47,-4.37,6.56
2022-11-15 21:21:04.7320,5.89,-0.61,-4.08,7.19
2022-11-15 21:21:04.7340,6.93,-0.99,-2.41,7.4
2022-11-15 21:21:04.7340,7.48,-1.27,1.47,7.72
2022-11-15 21:21:04.7350,5.44,-2.46,5.4,8.05
2022-11-15 21:21:04.7360,-0.42,-4.35,4.13,6.01
2022-11-15 21:21:04.7520,-4.49,-3.5,1.08,5.79
2022-11-15 21:21:04.7530,-6.11,-1.07,-1.17,6.31
2022-11-15 21:21:04.7530,-5.99,1.87,-1.53,6.45
2022-11-15 21:21:04.7540,-4.71,4.32,-0.07,6.39
2022-11-15 21:21:04.7690,-4.13,5.5,1.11,6.96
2022-11-15 21:21:04.8330,-4.11,5.93,1.08,7.29
2022-11-15 21:21:04.8350,-3.72,5.86,0.41,6.95
2022-11-15 21:21:04.8350,-2.92,5.27,-0.41,6.03
2022-11-15 21:21:04.8360,-2.18,4.36,-0.87,4.95
2022-11-15 21:21:04.8370,-1.89,3.36,-1.0,3.98
2022-11-15 21:21:04.8520,-1.65,2.72,-1.18,3.39
2022-11-15 21:21:04.8530,-1.65,2.51,-1.39,3.3
2022-11-15 21:21:04.8540,-2.33,2.41,-1.44,3.64
2022-11-15 21:21:04.8550,-3.18,2.13,-1.5,4.11
2022-11-15 21:21:04.8650,-3.76,1.66,-1.44,4.35
2022-11-15 21:21:04.9340,-4.01,1.12,-0.71,4.22
2022-11-15 21:21:04.9350,-3.51,0.04,0.67,3.57
2022-11-15 21:21:04.9370,-2.13,-2.3,1.64,3.53
2022-11-15 21:21:04.9390,-0.51,-5.74,1.75,6.02
2022-11-15 21:21:04.9420,1.24,-8.45,1.26,8.63
2022-11-15 21:21:04.9440,2.43,-9.01,-0.23,9.33
2022-11-15 21:21:04.9460,2.46,-7.24,-1.21,7.74
2022-11-15 21:21:04.9480,1.48,-5.95,-0.65,6.16
2022-11-15 21:21:04.9550,0.78,-6.59,0.33,6.64
2022-11-15 21:21:04.9650,1.2,-6.63,0.65,6.76
2022-11-15 21:21:05.0350,1.46,-5.48,0.97,5.75
2022-11-15 21:21:05.0360,1.18,-3.83,1.21,4.18
2022-11-15 21:21:05.0380,0.5,-2.08,0.93,2.33
2022-11-15 21:21:05.0400,-0.42,-0.36,0.49,0.73
2022-11-15 21:21:05.0420,-0.74,1.2,0.47,1.48
2022-11-15 21:21:05.0440,-0.34,2.55,0.87,2.71
2022-11-15 21:21:05.0470,0.34,3.56,1.23,3.78
2022-11-15 21:21:05.0490,0.86,4.1,1.16,4.34
2022-11-15 21:21:05.0550,1.4,4.33,0.63,4.59
2022-11-15 21:21:05.0690,2.11,4.16,-0.03,4.66
2022-11-15 21:21:05.1350,2.56,3.58,-0.61,4.44
2022-11-15 21:21:05.1370,3.07,2.93,-1.04,4.36
2022-11-15 21:21:05.1370,3.63,2.34,-1.08,4.45
2022-11-15 21:21:05.1380,4.05,1.87,-0.83,4.53
2022-11-15 21:21:05.1390,4.24,1.55,-0.55,4.54
2022-11-15 21:21:05.1520,4.19,1.33,-0.49,4.42
2022-11-15 21:21:05.1530,3.99,1.05,-0.54,4.16
2022-11-15 21:21:05.1540,3.66,0.69,-0.43,3.74
2022-11-15 21:21:05.1560,2.99,0.34,-0.13,3.01
2022-11-15 21:21:05.1660,2.23,0.11,0.21,2.24
2022-11-15 21:21:05.2350,1.78,-0.08,0.42,1.83
2022-11-15 21:21:05.2360,1.59,-0.23,0.45,1.66
2022-11-15 21:21:05.2380,1.49,-0.26,0.41,1.56
2022-11-15 21:21:05.2410,1.4,-0.27,0.44,1.49
2022-11-15 21:21:05.2430,1.29,-0.2,0.57,1.42
2022-11-15 21:21:05.2450,1.23,-0.11,0.73,1.43
2022-11-15 21:21:05.2470,1.27,-0.14,0.79,1.5
2022-11-15 21:21:05.2500,1.34,-0.19,0.68,1.51
2022-11-15 21:21:05.2560,1.36,-0.24,0.51,1.47
2022-11-15 21:21:05.2690,1.36,-0.3,0.37,1.44
2022-11-15 21:21:05.3340,1.32,-0.44,0.29,1.42
2022-11-15 21:21:05.3360,1.26,-0.61,0.26,1.42
2022-11-15 21:21:05.3370,1.13,-0.75,0.28,1.38
2022-11-15 21:21:05.3380,0.94,-0.78,0.32,1.26
2022-11-15 21:21:05.3380,0.7,-0.71,0.35,1.05
2022-11-15 21:21:05.3520,0.41,-0.58,0.43,0.83
2022-11-15 21:21:05.3520,0.18,-0.44,0.58,0.74
2022-11-15 21:21:05.3530,-0.04,-0.27,0.76,0.8
2022-11-15 21:21:05.3560,-0.26,-0.12,0.99,1.03
2022-11-15 21:21:05.3660,-0.44,-0.01,1.12,1.2
2022-11-15 21:21:05.4350,-0.63,0.06,1.08,1.25
2022-11-15 21:21:05.4360,-0.81,0.17,1.07,1.35
2022-11-15 21:21:05.4380,-0.92,0.31,1.14,1.49
2022-11-15 21:21:05.4400,-0.77,0.58,1.13,1.48
2022-11-15 21:21:05.4420,-0.48,0.94,0.95,1.42
2022-11-15 21:21:05.4440,-0.14,1.3,0.81,1.53
2022-11-15 21:21:05.4470,0.22,1.59,0.84,1.81
2022-11-15 21:21:05.4490,0.52,1.85,0.99,2.16
2022-11-15 21:21:05.4560,0.78,2.16,1.19,2.58
2022-11-15 21:21:05.4690,1.14,2.4,1.11,2.87
2022-11-15 21:21:05.5350,1.51,2.53,0.67,3.02
2022-11-15 21:21:05.5370,1.81,2.53,0.29,3.12
2022-11-15 21:21:05.5380,1.87,2.34,0.21,3.0
2022-11-15 21:21:05.5390,1.63,2.1,0.32,2.67
2022-11-15 21:21:05.5390,1.27,2.25,0.39,2.61
2022-11-15 21:21:05.5510,0.97,2.85,0.4,3.03
2022-11-15 21:21:05.5520,0.58,3.51,0.41,3.58
2022-11-15 21:21:05.5530,0.09,3.89,0.33,3.9
2022-11-15 21:21:05.5570,-0.25,4.24,0.31,4.25
2022-11-15 21:21:05.5670,-0.49,4.56,0.54,4.61
2022-11-15 21:21:05.6350,-0.68,4.63,0.9,4.76
2022-11-15 21:21:05.6360,-0.81,4.34,1.2,4.57
2022-11-15 21:21:05.6370,-0.92,3.71,1.3,4.03
2022-11-15 21:21:05.6390,-1.06,2.88,1.36,3.35
2022-11-15 21:21:05.6410,-1.3,1.66,1.54,2.61
2022-11-15 21:21:05.6430,-1.51,-0.57,1.83,2.44
2022-11-15 21:21:05.6450,-1.45,-3.64,1.36,4.14
2022-11-15 21:21:05.6480,-1.48,-6.76,0.91,6.97
2022-11-15 21:21:05.6570,-2.31,-10.17,1.96,10.61
2022-11-15 21:21:05.6670,-3.9,-13.95,3.53,14.9
2022-11-15 21:21:05.7360,-5.15,-15.72,3.74,16.95
2022-11-15 21:21:05.7370,-2.77,-10.41,3.84,11.43
2022-11-15 21:21:05.7370,1.17,-3.79,3.23,5.11
2022-11-15 21:21:05.7390,2.24,-1.73,1.15,3.05
2022-11-15 21:21:05.7420,2.48,-0.73,-0.93,2.74
2022-11-15 21:21:05.7440,2.76,0.34,-1.97,3.4
2022-11-15 21:21:05.7460,3.23,1.49,-2.39,4.28
2022-11-15 21:21:05.7490,3.69,2.4,-2.54,5.08
2022-11-15 21:21:05.7570,3.95,2.97,-2.6,5.58
2022-11-15 21:21:05.7680,4.02,2.96,-3.07,5.86
2022-11-15 21:21:05.8370,3.86,2.41,-3.93,6.01
2022-11-15 21:21:05.8380,3.35,1.29,-4.9,6.07
2022-11-15 21:21:05.8390,2.63,-0.66,-5.25,5.9
2022-11-15 21:21:05.8400,2.29,-2.4,-4.29,5.42
2022-11-15 21:21:05.8410,2.49,-3.05,-2.15,4.48
2022-11-15 21:21:05.8510,2.97,-2.99,1.34,4.42
2022-11-15 21:21:05.8520,3.33,-2.63,5.28,6.77
2022-11-15 21:21:05.8530,1.99,-2.19,5.92,6.61
2022-11-15 21:21:05.8570,0.31,-1.49,4.55,4.79
2022-11-15 21:21:05.8680,-0.51,-0.25,2.74,2.79
2022-11-15 21:21:05.9370,-0.35,1.22,1.01,1.62
2022-11-15 21:21:05.9380,0.04,2.16,-0.37,2.19
2022-11-15 21:21:05.9390,-0.01,2.26,-1.34,2.62
2022-11-15 21:21:05.9410,-0.35,1.97,-1.82,2.7
2022-11-15 21:21:05.9430,-0.75,1.68,-2.09,2.78
2022-11-15 21:21:05.9450,-1.16,1.43,-2.14,2.82
2022-11-15 21:21:05.9480,-1.59,1.12,-1.98,2.77
2022-11-15 21:21:05.9500,-2.06,0.76,-1.82,2.85
2022-11-15 21:21:05.9580,-2.54,0.45,-1.67,3.07
2022-11-15 21:21:05.9680,-3.01,0.33,-1.3,3.29
2022-11-15 21:21:06.0380,-3.43,0.39,-0.7,3.52
2022-11-15 21:21:06.0390,-3.4,0.54,0.38,3.46
2022-11-15 21:21:06.0400,-2.7,0.65,1.85,3.33
2022-11-15 21:21:06.0410,-2.47,0.42,3.17,4.04
2022-11-15 21:21:06.0420,-2.66,0.02,4.03,4.82
2022-11-15 21:21:06.0510,-2.75,-0.21,4.08,4.92
2022-11-15 21:21:06.0520,-2.64,-0.35,2.89,3.92
2022-11-15 21:21:06.0530,-2.34,-0.31,0.86,2.51
2022-11-15 21:21:06.0580,-1.92,0.01,-0.56,2.0
2022-11-15 21:21:06.0680,-1.85,0.25,-0.86,2.05
2022-11-15 21:21:06.1370,-2.16,0.15,-0.55,2.23
2022-11-15 21:21:06.1380,-2.31,0.09,-0.41,2.34
2022-11-15 21:21:06.1390,-2.4,0.04,-0.67,2.49
2022-11-15 21:21:06.1410,-2.47,-0.24,-1.1,2.71
2022-11-15 21:21:06.1440,-2.27,-0.31,-1.17,2.57
2022-11-15 21:21:06.1460,-1.74,-0.17,-0.73,1.89
2022-11-15 21:21:06.1480,-1.26,-0.62,-0.12,1.4
2022-11-15 21:21:06.1490,-1.03,-1.75,0.22,2.04
2022-11-15 21:21:06.1590,-1.09,-3.23,0.21,3.41
2022-11-15 21:21:06.1690,-1.17,-4.79,-0.08,4.93
2022-11-15 21:21:06.2380,-1.28,-5.97,-0.58,6.13
2022-11-15 21:21:06.2390,-1.33,-6.21,-0.78,6.39
2022-11-15 21:21:06.2400,-0.94,-5.36,-0.56,5.47
2022-11-15 21:21:06.2420,-0.44,-4.09,-0.19,4.11
2022-11-15 21:21:06.2440,-0.22,-2.84,0.39,2.87
2022-11-15 21:21:06.2460,-0.35,-1.81,1.07,2.13
2022-11-15 21:21:06.2480,-0.46,-0.97,1.64,1.96
2022-11-15 21:21:06.2490,-0.42,-0.13,1.98,2.02
2022-11-15 21:21:06.2590,-0.37,0.71,2.11,2.25
2022-11-15 21:21:06.2690,-0.06,1.52,2.31,2.76
2022-11-15 21:21:06.3380,0.22,2.02,2.26,3.03
2022-11-15 21:21:06.3390,0.49,2.24,1.65,2.82
2022-11-15 21:21:06.3400,0.96,2.28,0.91,2.63
2022-11-15 21:21:06.3420,1.4,1.98,0.58,2.49
2022-11-15 21:21:06.3440,1.69,1.45,0.27,2.24
2022-11-15 21:21:06.3470,1.85,0.65,-0.07,1.96
2022-11-15 21:21:06.3490,1.98,-0.28,-0.59,2.08
2022-11-15 21:21:06.3500,2.27,-1.0,-0.77,2.59
2022-11-15 21:21:06.3680,2.9,-1.36,-0.34,3.22
2022-11-15 21:21:06.3690,3.7,-1.29,0.49,3.94
2022-11-15 21:21:06.4380,4.36,-0.79,1.35,4.63
2022-11-15 21:21:06.4400,4.71,-0.11,1.78,5.03
2022-11-15 21:21:06.4410,4.5,0.66,1.67,4.84
2022-11-15 21:21:06.4410,3.77,1.42,1.2,4.2
2022-11-15 21:21:06.4420,2.99,1.92,0.8,3.64
2022-11-15 21:21:06.4510,2.13,1.94,0.6,2.94
2022-11-15 21:21:06.4520,1.31,1.73,0.63,2.25
2022-11-15 21:21:06.4530,0.78,1.59,0.52,1.84
2022-11-15 21:21:06.4590,0.46,1.63,0.29,1.71
2022-11-15 21:21:06.4700,0.22,1.8,0.09,1.81
2022-11-15 21:21:06.5390,0.0,1.99,-0.02,1.99
2022-11-15 21:21:06.5400,-0.22,2.21,0.0,2.22
2022-11-15 21:21:06.5400,-0.4,2.44,0.08,2.47
2022-11-15 21:21:06.5420,-0.58,2.6,0.18,2.66
2022-11-15 21:21:06.5440,-0.75,2.71,0.23,2.82
2022-11-15 21:21:06.5470,-0.93,2.83,0.08,2.97
2022-11-15 21:21:06.5490,-1.11,2.96,-0.11,3.16
2022-11-15 21:21:06.5500,-1.29,3.04,-0.27,3.31
2022-11-15 21:21:06.5680,-1.3,3.1,-0.36,3.38
2022-11-15 21:21:06.5700,-1.06,3.24,-0.28,3.42
2022-11-15 21:21:06.6380,-0.72,3.29,0.06,3.36
2022-11-15 21:21:06.6400,-0.48,3.16,0.53,3.23
2022-11-15 21:21:06.6410,-0.46,2.93,1.04,3.14
2022-11-15 21:21:06.6420,-0.53,2.68,1.64,3.18
2022-11-15 21:21:06.6420,-0.54,2.48,2.29,3.41
2022-11-15 21:21:06.6510,-0.48,2.28,2.7,3.56
2022-11-15 21:21:06.6520,-0.56,1.72,2.73,3.27
2022-11-15 21:21:06.6530,-0.91,0.08,2.46,2.62
2022-11-15 21:21:06.6600,-1.18,-2.52,1.68,3.25
2022-11-15 21:21:06.6700,-1.43,-4.65,0.25,4.87
2022-11-15 21:21:06.7410,-2.03,-6.98,0.2,7.27
2022-11-15 21:21:06.7420,-2.99,-10.08,1.71,10.65
2022-11-15 21:21:06.7430,-3.42,-12.42,3.59,13.37
2022-11-15 21:21:06.7450,-1.58,-10.52,4.5,11.55
2022-11-15 21:21:06.7470,0.78,-4.51,3.2,5.58
2022-11-15 21:21:06.7490,1.42,-1.19,0.87,2.04
2022-11-15 21:21:06.7500,1.78,0.41,-0.9,2.03
2022-11-15 21:21:06.7680,2.35,1.52,-1.94,3.4
2022-11-15 21:21:06.7690,2.87,2.43,-2.04,4.27
2022-11-15 21:21:06.7720,2.88,3.3,-1.88,4.76
2022-11-15 21:21:06.8400,2.56,3.94,-1.81,5.03
2022-11-15 21:21:06.8410,1.87,4.19,-1.88,4.95
2022-11-15 21:21:06.8420,0.96,3.68,-2.04,4.31
2022-11-15 21:21:06.8430,-0.05,2.75,-2.27,3.56
2022-11-15 21:21:06.8440,-1.14,1.56,-2.41,3.08
2022-11-15 21:21:06.8500,-2.11,-0.03,-2.28,3.1
2022-11-15 21:21:06.8510,-2.06,-1.48,-1.94,3.19
2022-11-15 21:21:06.8520,-0.96,-2.26,-1.61,2.93
2022-11-15 21:21:06.8600,-0.1,-2.31,-0.88,2.47
2022-11-15 21:21:06.8710,0.84,-1.93,0.95,2.3
2022-11-15 21:21:06.9400,1.8,-1.52,3.0,3.81
2022-11-15 21:21:06.9410,1.95,-1.34,3.83,4.5
2022-11-15 21:21:06.9420,1.14,-1.05,3.06,3.43
2022-11-15 21:21:06.9440,0.16,-0.33,1.56,1.6
2022-11-15 21:21:06.9460,-0.22,0.56,0.39,0.71
2022-11-15 21:21:06.9480,-0.55,1.05,-0.27,1.21
2022-11-15 21:21:06.9490,-0.96,1.2,-0.64,1.66
2022-11-15 21:21:06.9510,-1.21,1.29,-0.76,1.92
2022-11-15 21:21:06.9610,-1.3,1.38,-0.74,2.03
2022-11-15 21:21:06.9710,-1.37,1.43,-0.74,2.11
2022-11-15 21:21:07.0410,-1.41,1.45,-0.71,2.14
2022-11-15 21:21:07.0420,-1.47,1.34,-0.61,2.08
2022-11-15 21:21:07.0430,-1.51,0.87,-0.01,1.74
2022-11-15 21:21:07.0450,-1.14,0.15,0.96,1.49
2022-11-15 21:21:07.0470,-0.63,-0.39,1.81,1.95
2022-11-15 21:21:07.0490,-0.52,-0.72,2.2,2.37
2022-11-15 21:21:07.0500,-0.83,-0.97,2.05,2.41
2022-11-15 21:21:07.0680,-1.24,-0.94,1.38,2.07
2022-11-15 21:21:07.0690,-1.64,-0.63,0.51,1.82
2022-11-15 21:21:07.0710,-2.17,-0.36,-0.21,2.2
2022-11-15 21:21:07.1410,-2.78,-0.14,-0.56,2.83
2022-11-15 21:21:07.1430,-3.35,0.12,-0.5,3.38
2022-11-15 21:21:07.1440,-3.81,0.5,-0.2,3.84
2022-11-15 21:21:07.1450,-4.05,1.12,0.46,4.22
2022-11-15 21:21:07.1450,-3.81,1.61,0.85,4.22
2022-11-15 21:21:07.1510,-3.43,0.48,-0.1,3.46
2022-11-15 21:21:07.1520,-3.09,-1.61,-0.7,3.55
2022-11-15 21:21:07.1530,-2.47,-3.34,-0.45,4.17
2022-11-15 21:21:07.1620,-1.86,-4.81,-0.51,5.18
2022-11-15 21:21:07.1720,-1.46,-5.71,-0.84,5.95
2022-11-15 21:21:07.2420,-1.12,-5.59,-0.94,5.77
2022-11-15 21:21:07.2430,-0.69,-4.47,-0.34,4.53
2022-11-15 21:21:07.2450,-0.39,-3.15,0.71,3.25
2022-11-15 21:21:07.2470,-0.12,-2.28,1.47,2.71
2022-11-15 21:21:07.2490,0.59,-1.83,2.02,2.78
2022-11-15 21:21:07.2500,1.23,-1.7,1.97,2.87
2022-11-15 21:21:07.2680,1.42,-1.65,1.14,2.45
2022-11-15 21:21:07.2690,1.68,-1.58,0.09,2.3
2022-11-15 21:21:07.2700,2.01,-1.58,-0.91,2.71
2022-11-15 21:21:07.2720,2.3,-1.62,-1.53,3.2
2022-11-15 21:21:07.3420,2.8,-1.7,-1.52,3.61
2022-11-15 21:21:07.3430,3.43,-1.82,-0.84,3.97
2022-11-15 21:21:07.3440,3.74,-1.72,0.17,4.12
2022-11-15 21:21:07.3450,3.71,-1.24,1.04,4.04
2022-11-15 21:21:07.3460,3.43,-0.45,1.45,3.75
2022-11-15 21:21:07.3510,2.83,0.4,1.5,3.22
2022-11-15 21:21:07.3520,2.14,1.21,1.34,2.79
2022-11-15 21:21:07.3560,1.65,1.92,1.2,2.8
2022-11-15 21:21:07.3620,1.41,2.41,1.21,3.04
2022-11-15 21:21:07.3720,1.29,2.61,1.25,3.16
2022-11-15 21:21:07.4430,1.25,2.63,1.1,3.11
2022-11-15 21:21:07.4440,1.17,2.48,0.67,2.82
2022-11-15 21:21:07.4440,0.88,2.22,0.1,2.39
2022-11-15 21:21:07.4470,0.37,2.1,-0.37,2.16
2022-11-15 21:21:07.4490,-0.11,2.3,-0.54,2.36
2022-11-15 21:21:07.4500,-0.36,2.89,-0.29,2.92
2022-11-15 21:21:07.4680,-0.42,3.65,0.05,3.67
2022-11-15 21:21:07.4690,-0.65,4.23,0.42,4.3
2022-11-15 21:21:07.4700,-1.16,4.45,0.5,4.62
2022-11-15 21:21:07.4720,-1.74,4.41,0.02,4.74
2022-11-15 21:21:07.5430,-2.21,4.17,-0.62,4.75
2022-11-15 21:21:07.5450,-2.48,3.87,-0.95,4.69
2022-11-15 21:21:07.5450,-2.58,3.67,-0.72,4.54
2022-11-15 21:21:07.5460,-2.36,3.54,0.01,4.25
2022-11-15 21:21:07.5470,-1.65,3.51,0.89,3.97
2022-11-15 21:21:07.5500,-1.01,3.46,1.54,3.91
2022-11-15 21:21:07.5520,-0.68,3.25,1.74,3.74
2022-11-15 21:21:07.5540,-0.5,2.98,1.64,3.43
2022-11-15 21:21:07.5630,-0.39,2.8,1.63,3.26
2022-11-15 21:21:07.5730,-0.24,2.64,1.83,3.22
2022-11-15 21:21:07.6430,-0.06,2.35,2.01,3.09
2022-11-15 21:21:07.6450,0.05,1.55,1.9,2.45
2022-11-15 21:21:07.6460,0.08,0.12,1.36,1.36
2022-11-15 21:21:07.6470,-0.03,-1.36,0.04,1.36
2022-11-15 21:21:07.6470,-0.33,-3.26,-1.21,3.49
2022-11-15 21:21:07.6680,-0.73,-6.2,-1.42,6.4
2022-11-15 21:21:07.6690,-1.45,-9.98,-0.48,10.09
2022-11-15 21:21:07.6700,-1.8,-12.85,0.65,12.99
2022-11-15 21:21:07.6710,-0.66,-13.25,0.93,13.29
2022-11-15 21:21:07.6840,1.37,-9.28,1.0,9.43
2022-11-15 21:21:07.7450,2.53,-4.87,1.25,5.62
2022-11-15 21:21:07.7470,3.52,-1.79,1.31,4.16
2022-11-15 21:21:07.7480,4.39,0.58,1.03,4.54
2022-11-15 21:21:07.7500,4.68,2.39,0.29,5.26
2022-11-15 21:21:07.7680,4.36,3.62,-0.75,5.71
2022-11-15 21:21:07.7690,3.46,4.12,-1.63,5.62
2022-11-15 21:21:07.7700,2.5,4.01,-2.39,5.29
2022-11-15 21:21:07.7700,1.6,3.48,-3.06,4.9
2022-11-15 21:21:07.7840,0.62,2.64,-3.31,4.27
2022-11-15 21:21:07.7850,-0.37,1.18,-2.91,3.16
2022-11-15 21:21:07.8480,-0.56,-0.97,-1.29,1.7
2022-11-15 21:21:07.8500,0.69,-2.26,1.26,2.67
2022-11-15 21:21:07.8510,1.46,-2.01,3.38,4.19
2022-11-15 21:21:07.8680,0.78,-0.9,3.83,4.01
2022-11-15 21:21:07.8690,-1.01,0.42,2.3,2.54
2022-11-15 21:21:07.8700,-2.18,1.23,0.58,2.56
2022-11-15 21:21:07.8710,-2.61,1.53,-0.46,3.06
2022-11-15 21:21:07.8850,-2.74,1.55,-0.76,3.23
2022-11-15 21:21:07.8860,-2.45,1.55,-0.75,2.99
2022-11-15 21:21:07.8880,-1.94,1.48,-0.86,2.58
2022-11-15 21:21:07.9510,-1.58,1.41,-1.04,2.35
2022-11-15 21:21:07.9520,-1.35,1.41,-1.01,2.19
2022-11-15 21:21:07.9530,-1.2,1.3,-0.83,1.95
2022-11-15 21:21:07.9680,-1.25,0.93,-0.82,1.76
2022-11-15 21:21:07.9690,-1.36,0.36,-0.75,1.59
2022-11-15 21:21:07.9700,-1.27,-0.12,-0.36,1.32
2022-11-15 21:21:07.9700,-0.93,-0.34,0.11,0.99
2022-11-15 21:21:07.9850,-0.67,-0.45,0.28,0.85
2022-11-15 21:21:07.9860,-0.78,-0.49,0.14,0.93
2022-11-15 21:21:07.9860,-1.2,-0.41,-0.12,1.27
2022-11-15 21:21:08.0470,-1.76,-0.31,-0.26,1.8
2022-11-15 21:21:08.0490,-2.4,-0.26,-0.16,2.41
2022-11-15 21:21:08.0500,-2.98,-0.2,0.01,2.98
2022-11-15 21:21:08.0510,-3.44,-0.2,0.16,3.44
2022-11-15 21:21:08.0530,-3.76,-0.29,0.22,3.77
2022-11-15 21:21:08.0560,-3.89,-0.36,0.01,3.9
2022-11-15 21:21:08.0580,-3.86,-0.47,-0.22,3.89
2022-11-15 21:21:08.0600,-3.39,-0.36,-0.18,3.41
2022-11-15 21:21:08.0640,-2.32,-0.23,0.05,2.33
2022-11-15 21:21:08.0740,-1.31,-0.84,-0.09,1.55
2022-11-15 21:21:08.1440,-1.05,-1.95,-0.11,2.21
2022-11-15 21:21:08.1460,-0.95,-2.9,0.03,3.05
2022-11-15 21:21:08.1470,-0.73,-3.56,-0.44,3.66
2022-11-15 21:21:08.1470,-0.45,-3.84,-1.07,4.01
2022-11-15 21:21:08.1480,-0.17,-3.74,-1.41,4.0
2022-11-15 21:21:08.1680,0.03,-3.48,-1.37,3.74
2022-11-15 21:21:08.1690,0.28,-3.19,-1.07,3.37
2022-11-15 21:21:08.1700,0.5,-2.85,-0.49,2.93
2022-11-15 21:21:08.1710,0.57,-2.39,0.23,2.46
2022-11-15 21:21:08.1750,0.49,-1.83,0.7,2.01
2022-11-15 21:21:08.2450,0.47,-1.09,0.98,1.53
2022-11-15 21:21:08.2460,0.55,-0.19,1.08,1.22
2022-11-15 21:21:08.2470,0.57,0.7,0.9,1.27
2022-11-15 21:21:08.2480,0.71,1.47,0.62,1.74
2022-11-15 21:21:08.2680,0.97,2.09,0.48,2.35
2022-11-15 21:21:08.2690,1.25,2.5,0.54,2.84
2022-11-15 21:21:08.2700,1.55,2.61,0.62,3.09
2022-11-15 21:21:08.2710,1.8,2.3,0.12,2.92
2022-11-15 21:21:08.2720,1.85,1.48,-0.85,2.51
2022-11-15 21:21:08.2750,1.79,0.32,-1.74,2.51
2022-11-15 21:21:08.3440,1.89,-0.75,-2.12,2.93
2022-11-15 21:21:08.3460,2.21,-1.26,-1.79,3.11
2022-11-15 21:21:08.3460,2.57,-0.95,-1.01,2.92
2022-11-15 21:21:08.3490,2.75,-0.13,-0.05,2.75
2022-11-15 21:21:08.3500,2.56,0.73,0.87,2.8
2022-11-15 21:21:08.3680,1.98,1.39,1.61,2.9
2022-11-15 21:21:08.3690,1.27,1.72,2.32,3.15
2022-11-15 21:21:08.3700,0.67,1.7,2.6,3.17
2022-11-15 21:21:08.3700,0.18,1.28,2.27,2.61
2022-11-15 21:21:08.3840,0.01,0.73,1.54,1.7
2022-11-15 21:21:08.4450,0.03,0.23,0.73,0.76
2022-11-15 21:21:08.4470,0.06,-0.14,0.24,0.28
2022-11-15 21:21:08.4480,0.04,-0.23,0.11,0.25
2022-11-15 21:21:08.4490,0.16,-0.03,0.03,0.16
2022-11-15 21:21:08.4680,0.32,0.33,0.15,0.48
2022-11-15 21:21:08.4690,0.29,0.69,0.38,0.83
2022-11-15 21:21:08.4700,0.16,1.1,0.72,1.32
2022-11-15 21:21:08.4700,-0.06,1.63,0.94,1.88
2022-11-15 21:21:08.4840,-0.27,2.13,0.64,2.24
2022-11-15 21:21:08.4850,-0.41,2.59,-0.14,2.62
2022-11-15 21:21:08.5450,-0.51,2.82,-1.06,3.05
2022-11-15 21:21:08.5470,-0.56,2.68,-1.71,3.22
2022-11-15 21:21:08.5480,-0.83,2.42,-1.7,3.07
2022-11-15 21:21:08.5500,-1.37,2.27,-0.92,2.8
2022-11-15 21:21:08.5680,-1.98,2.27,0.35,3.03
2022-11-15 21:21:08.5690,-2.53,2.28,1.39,3.67
2022-11-15 21:21:08.5700,-2.93,2.32,2.03,4.25
2022-11-15 21:21:08.5700,-3.03,2.45,2.39,4.57
2022-11-15 21:21:08.5710,-2.66,2.73,2.46,4.53
2022-11-15 21:21:08.5760,-1.79,2.93,2.32,4.14
2022-11-15 21:21:08.6460,-0.98,2.85,1.97,3.6
2022-11-15 21:21:08.6480,-0.64,2.36,1.65,2.94
2022-11-15 21:21:08.6490,-0.52,1.5,1.39,2.11
2022-11-15 21:21:08.6490,-0.47,0.35,0.84,1.02
2022-11-15 21:21:08.6500,-0.34,-0.94,-0.04,1.0
2022-11-15 21:21:08.6680,-0.24,-2.22,-0.83,2.38
2022-11-15 21:21:08.6690,-0.27,-3.73,-1.05,3.88
2022-11-15 21:21:08.6710,0.04,-5.17,-0.98,5.26
2022-11-15 21:21:08.6730,0.83,-6.18,-1.01,6.31
2022-11-15 21:21:08.6760,1.88,-6.63,-1.59,7.07
2022-11-15 21:21:08.7460,3.15,-6.05,-2.42,7.23
2022-11-15 21:21:08.7480,4.13,-4.3,-2.22,6.36
2022-11-15 21:21:08.7480,4.74,-2.31,-0.95,5.35
2022-11-15 21:21:08.7490,5.13,-0.51,0.63,5.19
2022-11-15 21:21:08.7500,5.08,0.96,1.54,5.39
2022-11-15 21:21:08.7680,4.43,1.91,1.3,4.99
2022-11-15 21:21:08.7680,3.14,2.15,0.32,3.81
2022-11-15 21:21:08.7690,1.73,1.83,-0.64,2.59
2022-11-15 21:21:08.7700,0.67,1.4,-1.59,2.22
2022-11-15 21:21:08.7840,-0.27,1.07,-2.42,2.65
2022-11-15 21:21:08.8470,-0.88,0.66,-3.06,3.25
2022-11-15 21:21:08.8490,-1.21,0.17,-3.31,3.52
2022-11-15 21:21:08.8500,-1.67,-0.24,-2.7,3.18
2022-11-15 21:21:08.8510,-2.09,-0.37,-1.21,2.44
2022-11-15 21:21:08.8510,-1.39,-0.07,0.68,1.54
2022-11-15 21:21:08.8680,-0.38,0.12,1.91,1.95
2022-11-15 21:21:08.8680,-0.01,-0.18,1.88,1.88
2022-11-15 21:21:08.8690,0.19,-0.69,0.84,1.1
2022-11-15 21:21:08.8700,0.39,-1.12,-0.33,1.23
2022-11-15 21:21:08.8840,0.42,-1.31,-1.03,1.71
2022-11-15 21:21:08.9470,0.29,-1.29,-1.09,1.71
2022-11-15 21:21:08.9480,0.12,-0.94,-0.74,1.2
2022-11-15 21:21:08.9490,-0.1,-0.27,-0.5,0.57
2022-11-15 21:21:08.9500,-0.43,0.46,-0.65,0.9
2022-11-15 21:21:08.9510,-0.71,1.03,-0.87,1.52
2022-11-15 21:21:08.9680,-0.85,1.52,-0.88,1.95
2022-11-15 21:21:08.9680,-0.95,1.92,-0.6,2.22
2022-11-15 21:21:08.9690,-1.08,2.15,-0.1,2.4
2022-11-15 21:21:08.9700,-1.31,2.19,0.45,2.59
2022-11-15 21:21:08.9840,-1.63,2.13,0.84,2.81
2022-11-15 21:21:09.0470,-1.94,2.0,1.01,2.96
2022-11-15 21:21:09.0490,-2.21,1.8,0.87,2.98
2022-11-15 21:21:09.0500,-2.32,1.54,0.28,2.79
2022-11-15 21:21:09.0510,-2.27,1.25,-0.5,2.63
2022-11-15 21:21:09.0510,-2.13,0.98,-1.19,2.62
2022-11-15 21:21:09.0680,-2.02,0.75,-1.67,2.72
2022-11-15 21:21:09.0680,-2.05,0.31,-1.73,2.7
2022-11-15 21:21:09.0710,-2.28,-0.6,-1.31,2.69
2022-11-15 21:21:09.0730,-2.3,-1.75,-0.96,3.04
2022-11-15 21:21:09.0770,-1.36,-2.97,-0.76,3.35
2022-11-15 21:21:09.1480,-0.32,-4.39,-0.62,4.44
2022-11-15 21:21:09.1500,0.3,-5.49,-0.56,5.52
2022-11-15 21:21:09.1500,0.71,-5.82,-0.47,5.88
2022-11-15 21:21:09.1510,0.91,-5.47,-0.73,5.59
2022-11-15 21:21:09.1520,0.84,-4.69,-1.1,4.88
2022-11-15 21:21:09.1680,1.12,-3.96,-0.68,4.17
2022-11-15 21:21:09.1690,1.76,-3.38,0.22,3.81
2022-11-15 21:21:09.1710,2.16,-2.93,0.79,3.72
2022-11-15 21:21:09.1730,2.07,-2.49,1.16,3.43
2022-11-15 21:21:09.1780,1.81,-2.1,1.34,3.07
2022-11-15 21:21:09.2480,1.85,-1.72,0.99,2.71
2022-11-15 21:21:09.2500,2.33,-1.19,0.63,2.69
2022-11-15 21:21:09.2510,2.69,-0.55,0.73,2.84
2022-11-15 21:21:09.2510,2.76,0.09,0.78,2.86
2022-11-15 21:21:09.2520,2.3,0.46,0.81,2.48
2022-11-15 21:21:09.2680,1.98,0.51,0.77,2.18
2022-11-15 21:21:09.2690,2.04,0.43,0.37,2.11
2022-11-15 21:21:09.2700,1.86,0.32,-0.3,1.91
2022-11-15 21:21:09.2700,1.68,0.26,-0.82,1.88
2022-11-15 21:21:09.2850,1.74,0.36,-0.83,1.96
2022-11-15 21:21:09.3480,2.03,0.75,-0.31,2.18
2022-11-15 21:21:09.3490,2.16,1.39,0.52,2.62
2022-11-15 21:21:09.3500,2.1,2.1,1.11,3.17
2022-11-15 21:21:09.3510,1.8,2.58,1.42,3.45
