time,ax,ay,az,atotal
2022-11-15 21:18:36.9630,-0.11,0.14,0.03,0.18
2022-11-15 21:18:36.9640,-0.09,0.18,0.05,0.2
2022-11-15 21:18:36.9820,-0.08,0.18,0.07,0.2
2022-11-15 21:18:37.0080,-0.09,0.17,0.05,0.19
2022-11-15 21:18:37.0090,-0.11,0.16,0.04,0.19
2022-11-15 21:18:37.0280,-0.11,0.12,0.02,0.16
2022-11-15 21:18:37.0290,-0.09,0.07,0.02,0.11
2022-11-15 21:18:37.0450,-0.09,0.05,0.05,0.11
2022-11-15 21:18:37.0460,-0.12,0.02,0.05,0.13
2022-11-15 21:18:37.0610,-0.1,-0.01,0.06,0.11
2022-11-15 21:18:37.0620,-0.13,-0.04,0.05,0.14
2022-11-15 21:18:37.0780,-0.14,-0.07,0.02,0.15
2022-11-15 21:18:37.0790,-0.13,-0.1,0.0,0.16
2022-11-15 21:18:37.1060,-0.11,-0.11,-0.03,0.15
2022-11-15 21:18:37.1070,-0.05,-0.1,-0.06,0.12
2022-11-15 21:18:37.1100,0.01,-0.09,-0.04,0.09
2022-11-15 21:18:37.1290,0.03,-0.07,-0.02,0.07
2022-11-15 21:18:37.1300,0.03,-0.03,-0.02,0.04
2022-11-15 21:18:37.1450,0.02,0.0,0.01,0.02
2022-11-15 21:18:37.1450,0.04,-0.01,0.02,0.04
2022-11-15 21:18:37.1610,0.03,-0.01,0.04,0.05
2022-11-15 21:18:37.1620,-0.01,0.0,0.04,0.04
2022-11-15 21:18:37.1780,0.0,0.01,0.03,0.03
2022-11-15 21:18:37.2060,-0.01,0.03,0.02,0.03
2022-11-15 21:18:37.2070,-0.01,0.03,0.02,0.03
2022-11-15 21:18:37.2070,-0.01,0.02,0.02,0.03
2022-11-15 21:18:37.2110,0.01,0.02,0.03,0.03
2022-11-15 21:18:37.2110,0.05,0.01,0.05,0.07
2022-11-15 21:18:37.2120,0.09,0.0,0.04,0.09
2022-11-15 21:18:37.2290,0.12,-0.01,0.04,0.12
2022-11-15 21:18:37.2290,0.16,-0.02,0.03,0.16
2022-11-15 21:18:37.2440,0.18,-0.05,0.01,0.18
2022-11-15 21:18:37.2450,0.18,-0.08,-0.02,0.19
2022-11-15 21:18:37.2700,0.16,-0.12,-0.03,0.2
2022-11-15 21:18:37.2710,0.14,-0.15,-0.04,0.2
2022-11-15 21:18:37.2770,0.14,-0.17,-0.06,0.22
2022-11-15 21:18:37.2780,0.13,-0.18,-0.08,0.23
2022-11-15 21:18:37.2950,0.13,-0.16,-0.08,0.22
2022-11-15 21:18:37.2960,0.14,-0.16,-0.08,0.22
2022-11-15 21:18:37.2960,0.14,-0.15,-0.08,0.22
2022-11-15 21:18:37.3100,0.14,-0.16,-0.09,0.23
2022-11-15 21:18:37.3110,0.14,-0.15,-0.1,0.22
2022-11-15 21:18:37.3110,0.15,-0.15,-0.11,0.23
2022-11-15 21:18:37.3350,0.15,-0.14,-0.11,0.23
2022-11-15 21:18:37.3350,0.16,-0.13,-0.12,0.23
2022-11-15 21:18:37.3360,0.16,-0.14,-0.15,0.26
2022-11-15 21:18:37.3430,0.17,-0.13,-0.14,0.25
2022-11-15 21:18:37.3430,0.16,-0.13,-0.14,0.24
2022-11-15 21:18:37.3440,0.12,-0.14,-0.12,0.22
2022-11-15 21:18:37.3600,0.08,-0.14,-0.1,0.18
2022-11-15 21:18:37.3600,0.04,-0.16,-0.08,0.18
2022-11-15 21:18:37.3760,0.02,-0.16,-0.07,0.17
2022-11-15 21:18:37.3770,0.0,-0.13,-0.06,0.14
2022-11-15 21:18:37.4000,-0.04,-0.1,-0.05,0.11
2022-11-15 21:18:37.4010,-0.05,-0.08,-0.05,0.1
2022-11-15 21:18:37.4110,-0.03,-0.08,-0.08,0.11
2022-11-15 21:18:37.4120,-0.03,-0.07,-0.08,0.11
2022-11-15 21:18:37.4120,-0.03,-0.07,-0.09,0.11
2022-11-15 21:18:37.4130,-0.02,-0.07,-0.1,0.12
2022-11-15 21:18:37.4290,0.0,-0.08,-0.1,0.12
2022-11-15 21:18:37.4290,0.02,-0.08,-0.1,0.12
2022-11-15 21:18:37.4300,0.06,-0.1,-0.11,0.16
2022-11-15 21:18:37.4300,0.08,-0.11,-0.12,0.18
2022-11-15 21:18:37.4520,0.09,-0.09,-0.13,0.18
2022-11-15 21:18:37.4530,0.07,-0.05,-0.13,0.15
2022-11-15 21:18:37.4610,0.11,-0.05,-0.15,0.19
2022-11-15 21:18:37.4620,0.15,-0.07,-0.18,0.24
2022-11-15 21:18:37.4790,0.18,-0.1,-0.21,0.29
2022-11-15 21:18:37.4790,0.17,-0.12,-0.21,0.29
2022-11-15 21:18:37.4950,0.13,-0.15,-0.19,0.27
2022-11-15 21:18:37.4950,0.12,-0.17,-0.18,0.27
2022-11-15 21:18:37.5110,0.12,-0.21,-0.15,0.28
2022-11-15 21:18:37.5120,0.06,-0.19,-0.11,0.22
2022-11-15 21:18:37.5370,-0.01,-0.12,-0.11,0.16
2022-11-15 21:18:37.5380,-0.07,-0.08,-0.1,0.14
2022-11-15 21:18:37.5460,-0.06,-0.15,-0.16,0.22
2022-11-15 21:18:37.5460,-0.11,-0.01,0.0,0.11
2022-11-15 21:18:37.5620,-0.42,0.2,0.15,0.48
2022-11-15 21:18:37.5630,-0.46,0.16,0.14,0.5
2022-11-15 21:18:37.5780,-0.42,0.12,0.13,0.45
2022-11-15 21:18:37.5790,-0.48,0.17,0.16,0.53
2022-11-15 21:18:37.5950,-0.63,0.29,0.24,0.73
2022-11-15 21:18:37.5960,-0.71,0.34,0.23,0.82
2022-11-15 21:18:37.6210,-0.53,0.25,0.15,0.6
2022-11-15 21:18:37.6220,-0.46,0.21,0.13,0.52
2022-11-15 21:18:37.6290,-0.46,0.21,0.1,0.51
2022-11-15 21:18:37.6300,-0.4,0.17,0.04,0.43
2022-11-15 21:18:37.6450,-0.38,0.11,-0.01,0.39
2022-11-15 21:18:37.6460,-0.5,0.09,-0.01,0.5
2022-11-15 21:18:37.6610,-0.67,0.04,-0.05,0.67
2022-11-15 21:18:37.6620,-0.51,-0.01,-0.13,0.52
2022-11-15 21:18:37.6780,-0.38,-0.02,-0.14,0.4
2022-11-15 21:18:37.6790,-0.29,-0.04,-0.13,0.32
2022-11-15 21:18:37.7050,-0.17,-0.05,-0.14,0.22
2022-11-15 21:18:37.7050,-0.06,-0.05,-0.16,0.17
2022-11-15 21:18:37.7120,0.08,-0.07,-0.14,0.17
2022-11-15 21:18:37.7120,0.01,-0.03,-0.07,0.07
2022-11-15 21:18:37.7290,0.08,0.0,-0.04,0.08
2022-11-15 21:18:37.7290,-0.03,0.07,0.09,0.11
2022-11-15 21:18:37.7440,-0.01,0.12,0.11,0.16
2022-11-15 21:18:37.7450,-0.07,0.17,0.22,0.28
2022-11-15 21:18:37.7610,-0.27,0.24,0.29,0.46
2022-11-15 21:18:37.7620,-0.09,0.14,0.16,0.23
2022-11-15 21:18:37.7880,0.14,-0.01,0.03,0.14
2022-11-15 21:18:37.7890,-0.05,-0.07,0.01,0.08
2022-11-15 21:18:37.7930,-0.04,-0.09,0.01,0.09
2022-11-15 21:18:37.7930,-0.01,-0.13,-0.04,0.13
2022-11-15 21:18:37.8120,-0.24,-0.12,0.14,0.3
2022-11-15 21:18:37.8130,-0.19,-0.17,0.02,0.25
2022-11-15 21:18:37.8270,0.38,-0.3,-0.28,0.55
2022-11-15 21:18:37.8280,0.21,-0.3,-0.15,0.39
2022-11-15 21:18:37.8440,0.11,-0.16,-0.11,0.22
2022-11-15 21:18:37.8450,0.22,-0.08,-0.08,0.24
2022-11-15 21:18:37.8710,0.22,-0.12,-0.04,0.25
2022-11-15 21:18:37.8720,0.23,-0.15,-0.03,0.27
2022-11-15 21:18:37.8780,0.28,-0.16,-0.04,0.32
2022-11-15 21:18:37.8790,0.29,-0.17,-0.07,0.34
2022-11-15 21:18:37.8950,0.28,-0.19,-0.08,0.34
2022-11-15 21:18:37.8960,0.29,-0.2,-0.08,0.36
2022-11-15 21:18:37.9110,0.31,-0.19,-0.05,0.36
2022-11-15 21:18:37.9120,0.31,-0.16,-0.03,0.35
2022-11-15 21:18:37.9270,0.3,-0.13,-0.04,0.32
2022-11-15 21:18:37.9280,0.3,-0.08,-0.05,0.31
2022-11-15 21:18:37.9540,0.29,-0.07,-0.1,0.31
2022-11-15 21:18:37.9550,0.29,-0.07,-0.13,0.32
2022-11-15 21:18:37.9620,0.28,-0.08,-0.15,0.32
2022-11-15 21:18:37.9620,0.27,-0.08,-0.14,0.31
2022-11-15 21:18:37.9780,0.27,-0.08,-0.11,0.3
2022-11-15 21:18:37.9790,0.25,-0.06,-0.06,0.26
2022-11-15 21:18:37.9940,0.23,-0.05,-0.03,0.23
2022-11-15 21:18:37.9950,0.21,-0.05,0.0,0.21
2022-11-15 21:18:38.0110,0.17,-0.06,0.0,0.18
2022-11-15 21:18:38.0120,0.12,-0.1,0.01,0.15
2022-11-15 21:18:38.0390,0.06,-0.15,0.0,0.16
2022-11-15 21:18:38.0400,0.0,-0.19,0.0,0.19
2022-11-15 21:18:38.0450,-0.04,-0.2,-0.04,0.2
2022-11-15 21:18:38.0460,-0.09,-0.2,-0.07,0.23
2022-11-15 21:18:38.0620,-0.13,-0.19,-0.08,0.24
2022-11-15 21:18:38.0620,-0.15,-0.14,-0.07,0.21
2022-11-15 21:18:38.0770,-0.14,-0.07,-0.05,0.16
2022-11-15 21:18:38.0780,-0.12,-0.01,0.0,0.12
2022-11-15 21:18:38.0940,-0.11,0.04,0.04,0.12
2022-11-15 21:18:38.0950,-0.09,0.08,0.05,0.13
2022-11-15 21:18:38.1200,-0.1,0.09,0.07,0.15
2022-11-15 21:18:38.1210,-0.1,0.1,0.1,0.17
2022-11-15 21:18:38.1290,-0.09,0.11,0.1,0.17
2022-11-15 21:18:38.1290,-0.1,0.09,0.09,0.16
2022-11-15 21:18:38.1450,-0.12,0.05,0.07,0.14
2022-11-15 21:18:38.1460,-0.13,0.0,0.04,0.13
2022-11-15 21:18:38.1610,-0.12,-0.04,0.01,0.12
2022-11-15 21:18:38.1620,-0.12,-0.07,-0.01,0.13
2022-11-15 21:18:38.1770,-0.11,-0.09,-0.04,0.14
2022-11-15 21:18:38.1780,-0.11,-0.1,-0.05,0.15
2022-11-15 21:18:38.2050,-0.12,-0.11,-0.05,0.17
2022-11-15 21:18:38.2060,-0.13,-0.13,-0.06,0.19
2022-11-15 21:18:38.2090,-0.13,-0.16,-0.06,0.21
2022-11-15 21:18:38.2100,-0.13,-0.18,-0.06,0.23
2022-11-15 21:18:38.2280,-0.1,-0.18,-0.06,0.21
2022-11-15 21:18:38.2290,-0.08,-0.17,-0.05,0.19
2022-11-15 21:18:38.2440,-0.07,-0.14,-0.05,0.16
2022-11-15 21:18:38.2450,-0.05,-0.11,-0.05,0.13
2022-11-15 21:18:38.2610,-0.06,-0.06,-0.05,0.09
2022-11-15 21:18:38.2610,-0.05,-0.03,-0.05,0.07
2022-11-15 21:18:38.2870,-0.06,0.02,-0.03,0.06
2022-11-15 21:18:38.2880,-0.06,0.04,0.01,0.07
2022-11-15 21:18:38.2950,-0.06,0.04,0.04,0.08
2022-11-15 21:18:38.2960,-0.05,0.05,0.05,0.08
2022-11-15 21:18:38.3110,-0.06,0.02,0.05,0.08
2022-11-15 21:18:38.3120,-0.07,-0.02,0.02,0.07
2022-11-15 21:18:38.3130,-0.07,-0.05,0.0,0.08
2022-11-15 21:18:38.3270,-0.07,-0.05,0.0,0.08
2022-11-15 21:18:38.3280,-0.05,-0.05,-0.01,0.07
2022-11-15 21:18:38.3280,-0.05,-0.05,-0.02,0.07
2022-11-15 21:18:38.3520,-0.04,-0.06,-0.03,0.07
2022-11-15 21:18:38.3530,-0.03,-0.05,-0.03,0.06
2022-11-15 21:18:38.3530,-0.01,-0.03,-0.03,0.04
2022-11-15 21:18:38.3610,0.02,-0.01,-0.04,0.04
2022-11-15 21:18:38.3620,0.05,0.01,-0.05,0.07
2022-11-15 21:18:38.3780,0.07,0.03,-0.06,0.09
2022-11-15 21:18:38.3790,0.1,0.03,-0.06,0.12
2022-11-15 21:18:38.3940,0.12,0.02,-0.07,0.14
2022-11-15 21:18:38.3950,0.11,0.01,-0.05,0.12
2022-11-15 21:18:38.4110,0.12,-0.02,-0.07,0.14
2022-11-15 21:18:38.4380,0.12,-0.04,-0.07,0.14
2022-11-15 21:18:38.4380,0.12,-0.07,-0.06,0.15
2022-11-15 21:18:38.4440,0.12,-0.08,-0.06,0.15
2022-11-15 21:18:38.4450,0.1,-0.08,-0.05,0.13
2022-11-15 21:18:38.4450,0.08,-0.1,-0.05,0.13
2022-11-15 21:18:38.4620,0.07,-0.11,-0.05,0.13
2022-11-15 21:18:38.4620,0.06,-0.12,-0.07,0.15
2022-11-15 21:18:38.4770,0.03,-0.1,-0.06,0.12
2022-11-15 21:18:38.4770,0.03,-0.1,-0.05,0.11
2022-11-15 21:18:38.4780,0.01,-0.08,-0.06,0.1
2022-11-15 21:18:38.5020,-0.01,-0.05,-0.05,0.07
2022-11-15 21:18:38.5030,-0.02,-0.05,-0.05,0.07
2022-11-15 21:18:38.5030,-0.04,-0.04,-0.04,0.06
2022-11-15 21:18:38.5110,-0.05,-0.04,-0.04,0.07
2022-11-15 21:18:38.5120,-0.06,-0.04,-0.03,0.07
2022-11-15 21:18:38.5280,-0.06,-0.05,-0.06,0.09
2022-11-15 21:18:38.5290,-0.07,-0.08,-0.09,0.13
2022-11-15 21:18:38.5300,-0.08,-0.09,-0.12,0.17
2022-11-15 21:18:38.5450,-0.1,-0.13,-0.15,0.22
2022-11-15 21:18:38.5450,-0.12,-0.16,-0.17,0.26
2022-11-15 21:18:38.5700,-0.13,-0.17,-0.2,0.29
2022-11-15 21:18:38.5710,-0.13,-0.18,-0.2,0.29
2022-11-15 21:18:38.5780,-0.14,-0.21,-0.21,0.32
2022-11-15 21:18:38.5780,-0.18,-0.25,-0.23,0.38
2022-11-15 21:18:38.5950,-0.22,-0.28,-0.27,0.44
2022-11-15 21:18:38.5960,-0.28,-0.3,-0.32,0.52
2022-11-15 21:18:38.6110,-0.4,-0.34,-0.35,0.63
2022-11-15 21:18:38.6120,-0.54,-0.39,-0.36,0.75
2022-11-15 21:18:38.6280,-0.67,-0.43,-0.37,0.87
2022-11-15 21:18:38.6290,-0.83,-0.39,-0.31,0.96
2022-11-15 21:18:38.6550,-0.93,-0.28,-0.25,1.0
2022-11-15 21:18:38.6560,-0.98,-0.1,-0.16,0.99
2022-11-15 21:18:38.6620,-1.03,0.09,-0.01,1.03
2022-11-15 21:18:38.6630,-1.13,0.25,0.12,1.16
2022-11-15 21:18:38.6780,-1.21,0.4,0.25,1.29
2022-11-15 21:18:38.6790,-1.18,0.49,0.35,1.32
2022-11-15 21:18:38.6940,-1.1,0.6,0.4,1.31
2022-11-15 21:18:38.6950,-0.97,0.67,0.41,1.24
2022-11-15 21:18:38.7110,-0.78,0.74,0.36,1.13
2022-11-15 21:18:38.7120,-0.58,0.73,0.32,0.98
2022-11-15 21:18:38.7380,-0.35,0.53,0.21,0.66
2022-11-15 21:18:38.7380,-0.21,0.34,0.16,0.43
2022-11-15 21:18:38.7420,-0.13,0.23,0.19,0.32
2022-11-15 21:18:38.7430,0.05,0.1,0.16,0.19
2022-11-15 21:18:38.7620,0.3,-0.07,0.08,0.31
2022-11-15 21:18:38.7630,0.67,-0.24,-0.07,0.71
2022-11-15 21:18:38.7780,0.95,-0.34,-0.2,1.02
2022-11-15 21:18:38.7780,1.11,-0.39,-0.28,1.2
2022-11-15 21:18:38.7940,1.44,-0.49,-0.4,1.57
2022-11-15 21:18:38.7950,1.66,-0.59,-0.4,1.8
2022-11-15 21:18:38.8210,1.64,-0.52,-0.24,1.73
2022-11-15 21:18:38.8220,1.51,-0.37,-0.09,1.55
2022-11-15 21:18:38.8290,1.58,-0.32,0.0,1.61
2022-11-15 21:18:38.8300,1.66,-0.19,0.15,1.67
2022-11-15 21:18:38.8450,1.68,-0.17,0.2,1.7
2022-11-15 21:18:38.8460,1.56,-0.08,0.25,1.58
2022-11-15 21:18:38.8610,1.3,0.04,0.3,1.33
2022-11-15 21:18:38.8620,1.26,0.03,0.26,1.28
2022-11-15 21:18:38.8780,1.32,-0.03,0.22,1.33
2022-11-15 21:18:38.8780,1.22,-0.04,0.22,1.24
2022-11-15 21:18:38.9040,1.03,-0.07,0.22,1.05
2022-11-15 21:18:38.9050,0.81,-0.06,0.22,0.84
2022-11-15 21:18:38.9120,0.56,-0.07,0.2,0.59
2022-11-15 21:18:38.9130,0.34,-0.1,0.18,0.39
2022-11-15 21:18:38.9290,0.12,-0.13,0.17,0.24
2022-11-15 21:18:38.9290,-0.31,-0.08,0.23,0.39
2022-11-15 21:18:38.9440,-0.6,-0.1,0.24,0.65
2022-11-15 21:18:38.9450,-0.71,-0.16,0.19,0.75
2022-11-15 21:18:38.9610,-0.78,-0.22,0.12,0.81
2022-11-15 21:18:38.9620,-0.84,-0.25,0.02,0.87
2022-11-15 21:18:38.9880,-0.9,-0.21,-0.1,0.92
2022-11-15 21:18:38.9890,-0.94,-0.14,-0.18,0.96
2022-11-15 21:18:38.9960,-0.96,-0.12,-0.2,0.98
2022-11-15 21:18:38.9960,-0.92,-0.16,-0.19,0.95
2022-11-15 21:18:39.0120,-0.84,-0.17,-0.21,0.88
2022-11-15 21:18:39.0130,-0.67,-0.24,-0.28,0.76
2022-11-15 21:18:39.0280,-0.35,-0.36,-0.43,0.66
2022-11-15 21:18:39.0290,-0.09,-0.49,-0.65,0.81
2022-11-15 21:18:39.0440,0.1,-0.67,-0.85,1.08
2022-11-15 21:18:39.0450,0.36,-0.96,-1.07,1.48
2022-11-15 21:18:39.0720,0.69,-1.27,-1.22,1.89
2022-11-15 21:18:39.0730,0.93,-1.37,-1.17,2.02
2022-11-15 21:18:39.0780,1.12,-1.26,-1.17,2.05
2022-11-15 21:18:39.0790,1.2,-0.98,-1.05,1.87
2022-11-15 21:18:39.0950,1.04,-0.53,-0.71,1.36
2022-11-15 21:18:39.0950,0.83,0.01,-0.41,0.92
2022-11-15 21:18:39.1110,0.64,0.53,-0.13,0.84
2022-11-15 21:18:39.1120,0.5,0.8,0.24,0.97
2022-11-15 21:18:39.1280,0.33,0.88,0.56,1.09
2022-11-15 21:18:39.1290,0.03,0.89,0.86,1.23
2022-11-15 21:18:39.1550,-0.46,0.89,1.15,1.52
2022-11-15 21:18:39.1560,-0.75,0.7,1.15,1.54
2022-11-15 21:18:39.1590,-0.8,0.47,1.0,1.36
2022-11-15 21:18:39.1600,-0.81,0.35,0.76,1.16
2022-11-15 21:18:39.1780,-0.77,0.34,0.45,0.95
2022-11-15 21:18:39.1790,-0.69,0.41,0.21,0.82
2022-11-15 21:18:39.1940,-0.61,0.48,0.09,0.78
2022-11-15 21:18:39.1950,-0.56,0.58,0.06,0.8
2022-11-15 21:18:39.2110,-0.46,0.7,0.12,0.84
2022-11-15 21:18:39.2120,-0.29,0.69,0.23,0.78
2022-11-15 21:18:39.2390,-0.21,0.64,0.33,0.75
2022-11-15 21:18:39.2390,-0.22,0.53,0.33,0.66
2022-11-15 21:18:39.2450,-0.19,0.34,0.24,0.45
2022-11-15 21:18:39.2450,-0.23,0.23,0.12,0.34
2022-11-15 21:18:39.2620,-0.27,0.13,0.03,0.3
2022-11-15 21:18:39.2630,-0.26,0.03,-0.06,0.26
2022-11-15 21:18:39.2780,-0.17,-0.02,-0.15,0.22
2022-11-15 21:18:39.2790,-0.27,0.01,-0.13,0.29
2022-11-15 21:18:39.2940,-0.27,0.01,-0.09,0.28
2022-11-15 21:18:39.2950,-0.18,0.0,-0.06,0.18
2022-11-15 21:18:39.3220,-0.18,0.01,-0.01,0.18
2022-11-15 21:18:39.3220,-0.27,0.07,0.08,0.29
2022-11-15 21:18:39.3260,-0.34,0.15,0.18,0.41
2022-11-15 21:18:39.3270,-0.32,0.21,0.22,0.44
2022-11-15 21:18:39.3450,-0.21,0.19,0.22,0.35
2022-11-15 21:18:39.3460,-0.13,0.13,0.17,0.25
2022-11-15 21:18:39.3610,-0.08,0.05,0.13,0.16
2022-11-15 21:18:39.3620,-0.02,-0.03,0.07,0.07
2022-11-15 21:18:39.3770,0.03,-0.06,0.03,0.07
2022-11-15 21:18:39.3780,0.05,-0.06,0.02,0.08
2022-11-15 21:18:39.4050,0.07,-0.1,0.0,0.12
2022-11-15 21:18:39.4060,0.15,-0.2,-0.03,0.25
2022-11-15 21:18:39.4090,0.33,-0.33,-0.12,0.48
2022-11-15 21:18:39.4100,0.45,-0.4,-0.19,0.63
2022-11-15 21:18:39.4280,0.46,-0.38,-0.19,0.62
2022-11-15 21:18:39.4290,0.4,-0.29,-0.14,0.51
2022-11-15 21:18:39.4440,0.34,-0.22,-0.09,0.41
2022-11-15 21:18:39.4450,0.3,-0.2,-0.11,0.37
2022-11-15 21:18:39.4610,0.27,-0.18,-0.13,0.34
2022-11-15 21:18:39.4620,0.24,-0.11,-0.14,0.29
2022-11-15 21:18:39.4890,0.22,-0.05,-0.18,0.28
2022-11-15 21:18:39.4900,0.2,0.0,-0.22,0.29
2022-11-15 21:18:39.4950,0.15,0.01,-0.23,0.27
2022-11-15 21:18:39.4950,0.1,-0.02,-0.26,0.27
2022-11-15 21:18:39.5120,0.03,-0.06,-0.25,0.25
2022-11-15 21:18:39.5120,-0.04,-0.12,-0.22,0.25
2022-11-15 21:18:39.5280,-0.1,-0.19,-0.17,0.27
2022-11-15 21:18:39.5280,-0.13,-0.21,-0.13,0.27
2022-11-15 21:18:39.5440,-0.12,-0.19,-0.1,0.24
2022-11-15 21:18:39.5450,-0.09,-0.15,-0.08,0.19
2022-11-15 21:18:39.5720,-0.05,-0.11,-0.08,0.14
2022-11-15 21:18:39.5730,0.0,-0.08,-0.09,0.12
2022-11-15 21:18:39.5760,0.04,-0.04,-0.07,0.09
2022-11-15 21:18:39.5770,0.07,0.0,-0.06,0.09
2022-11-15 21:18:39.5950,0.09,0.02,-0.04,0.1
2022-11-15 21:18:39.5960,0.06,0.0,-0.02,0.06
2022-11-15 21:18:39.6110,0.03,-0.03,0.0,0.04
2022-11-15 21:18:39.6120,0.02,-0.05,-0.02,0.05
2022-11-15 21:18:39.6280,0.04,-0.07,-0.05,0.09
2022-11-15 21:18:39.6280,0.05,-0.07,-0.08,0.11
2022-11-15 21:18:39.6550,0.06,-0.06,-0.09,0.12
2022-11-15 21:18:39.6560,0.08,-0.06,-0.09,0.13
2022-11-15 21:18:39.6610,0.07,-0.06,-0.06,0.11
2022-11-15 21:18:39.6620,0.04,-0.04,-0.03,0.06
2022-11-15 21:18:39.6790,0.05,-0.04,0.02,0.06
2022-11-15 21:18:39.6790,0.05,-0.01,0.05,0.07
2022-11-15 21:18:39.6940,0.05,0.02,0.08,0.09
2022-11-15 21:18:39.6950,0.07,0.05,0.1,0.13
2022-11-15 21:18:39.7110,0.09,0.07,0.11,0.15
2022-11-15 21:18:39.7110,0.09,0.04,0.1,0.14
2022-11-15 21:18:39.7380,0.12,-0.04,0.07,0.14
2022-11-15 21:18:39.7390,0.14,-0.11,0.05,0.18
2022-11-15 21:18:39.7420,0.16,-0.15,0.03,0.22
2022-11-15 21:18:39.7430,0.18,-0.17,0.01,0.24
2022-11-15 21:18:39.7620,0.18,-0.16,0.02,0.24
2022-11-15 21:18:39.7620,0.23,-0.16,0.03,0.28
2022-11-15 21:18:39.7770,0.26,-0.17,0.02,0.31
2022-11-15 21:18:39.7780,0.29,-0.2,0.0,0.35
2022-11-15 21:18:39.7940,0.33,-0.25,-0.03,0.41
2022-11-15 21:18:39.7950,0.35,-0.28,-0.07,0.45
2022-11-15 21:18:39.8220,0.33,-0.29,-0.09,0.44
2022-11-15 21:18:39.8230,0.3,-0.28,-0.13,0.43
2022-11-15 21:18:39.8270,0.26,-0.23,-0.14,0.37
2022-11-15 21:18:39.8280,0.21,-0.18,-0.13,0.3
2022-11-15 21:18:39.8450,0.19,-0.11,-0.1,0.24
2022-11-15 21:18:39.8460,0.16,-0.07,-0.06,0.18
2022-11-15 21:18:39.8610,0.12,-0.02,-0.03,0.12
2022-11-15 21:18:39.8620,0.09,-0.01,-0.02,0.09
2022-11-15 21:18:39.8770,0.06,0.0,-0.03,0.06
2022-11-15 21:18:39.8780,0.05,0.0,-0.04,0.06
2022-11-15 21:18:39.9060,0.0,-0.02,-0.04,0.04
2022-11-15 21:18:39.9060,-0.04,-0.05,-0.05,0.08
2022-11-15 21:18:39.9110,-0.08,-0.05,-0.02,0.09
2022-11-15 21:18:39.9120,-0.1,-0.06,-0.04,0.12
2022-11-15 21:18:39.9280,-0.12,-0.08,-0.05,0.15
2022-11-15 21:18:39.9290,-0.13,-0.1,-0.04,0.16
2022-11-15 21:18:39.9440,-0.12,-0.1,-0.02,0.15
2022-11-15 21:18:39.9450,-0.1,-0.08,-0.01,0.12
2022-11-15 21:18:39.9600,-0.08,-0.05,0.03,0.09
2022-11-15 21:18:39.9610,-0.09,-0.04,0.04,0.1
2022-11-15 21:18:39.9880,-0.08,-0.04,0.05,0.1
2022-11-15 21:18:39.9890,-0.06,-0.05,0.02,0.08
2022-11-15 21:18:39.9940,-0.06,-0.04,-0.01,0.07
2022-11-15 21:18:39.9950,-0.03,-0.03,-0.02,0.04
2022-11-15 21:18:40.0120,0.0,-0.02,-0.04,0.04
2022-11-15 21:18:40.0120,0.05,-0.01,-0.06,0.07
2022-11-15 21:18:40.0280,0.07,-0.02,-0.07,0.1
2022-11-15 21:18:40.0280,0.06,-0.04,-0.08,0.1
2022-11-15 21:18:40.0440,0.06,-0.05,-0.11,0.13
2022-11-15 21:18:40.0450,0.02,-0.06,-0.14,0.15
2022-11-15 21:18:40.0720,-0.04,-0.05,-0.16,0.17
2022-11-15 21:18:40.0730,-0.12,-0.05,-0.15,0.19
2022-11-15 21:18:40.0760,-0.17,-0.03,-0.16,0.23
2022-11-15 21:18:40.0770,-0.21,-0.05,-0.15,0.26
2022-11-15 21:18:40.0950,-0.23,-0.06,-0.13,0.27
2022-11-15 21:18:40.0960,-0.25,-0.07,-0.11,0.28
2022-11-15 21:18:40.1110,-0.29,-0.07,-0.08,0.3
2022-11-15 21:18:40.1110,-0.31,-0.05,-0.06,0.31
2022-11-15 21:18:40.1270,-0.29,-0.06,-0.05,0.3
2022-11-15 21:18:40.1280,-0.28,-0.03,-0.05,0.28
2022-11-15 21:18:40.1550,-0.27,-0.01,-0.07,0.27
2022-11-15 21:18:40.1560,-0.26,0.03,-0.07,0.27
2022-11-15 21:18:40.1590,-0.24,0.06,-0.07,0.25
2022-11-15 21:18:40.1600,-0.24,0.09,-0.06,0.26
2022-11-15 21:18:40.1780,-0.24,0.1,-0.04,0.26
2022-11-15 21:18:40.1780,-0.23,0.09,-0.02,0.24
2022-11-15 21:18:40.1940,-0.2,0.09,-0.01,0.21
2022-11-15 21:18:40.1950,-0.16,0.09,0.0,0.18
2022-11-15 21:18:40.2110,-0.14,0.08,0.02,0.16
2022-11-15 21:18:40.2110,-0.13,0.06,0.04,0.14
2022-11-15 21:18:40.2390,-0.12,0.04,0.04,0.13
2022-11-15 21:18:40.2390,-0.1,0.02,0.02,0.1
2022-11-15 21:18:40.2420,-0.08,0.0,-0.01,0.08
2022-11-15 21:18:40.2430,-0.06,-0.01,-0.04,0.07
2022-11-15 21:18:40.2620,-0.05,-0.03,-0.07,0.09
2022-11-15 21:18:40.2630,-0.04,-0.03,-0.06,0.07
2022-11-15 21:18:40.2780,-0.03,-0.03,-0.05,0.06
2022-11-15 21:18:40.2790,-0.04,-0.01,-0.03,0.05
2022-11-15 21:18:40.2940,-0.04,-0.01,-0.01,0.04
2022-11-15 21:18:40.2950,-0.06,-0.04,0.0,0.07
2022-11-15 21:18:40.3230,-0.07,-0.06,0.02,0.09
2022-11-15 21:18:40.3240,-0.08,-0.08,0.02,0.11
2022-11-15 21:18:40.3260,-0.07,-0.09,0.01,0.11
2022-11-15 21:18:40.3450,-0.04,-0.1,0.0,0.1
2022-11-15 21:18:40.3460,-0.01,-0.12,0.01,0.12
2022-11-15 21:18:40.3610,0.04,-0.16,0.01,0.16
2022-11-15 21:18:40.3620,0.07,-0.18,-0.01,0.19
2022-11-15 21:18:40.3780,0.06,-0.18,-0.01,0.19
2022-11-15 21:18:40.3780,0.05,-0.16,-0.01,0.16
2022-11-15 21:18:40.3940,0.06,-0.14,0.01,0.15
2022-11-15 21:18:40.4240,0.05,-0.13,0.01,0.13
2022-11-15 21:18:40.4250,0.06,-0.12,0.0,0.13
2022-11-15 21:18:40.4490,0.06,-0.1,-0.01,0.11
2022-11-15 21:18:40.4500,0.02,-0.08,-0.03,0.08
2022-11-15 21:18:40.4610,0.01,-0.06,-0.04,0.07
2022-11-15 21:18:40.4620,-0.02,-0.04,-0.03,0.05
2022-11-15 21:18:40.4770,-0.06,-0.01,-0.03,0.06
2022-11-15 21:18:40.4780,-0.08,0.01,-0.02,0.08
2022-11-15 21:18:40.4940,-0.09,-0.01,-0.04,0.09
2022-11-15 21:18:40.4950,-0.07,-0.03,-0.07,0.1
2022-11-15 21:18:40.5240,-0.07,-0.05,-0.11,0.13
2022-11-15 21:18:40.5250,-0.09,-0.08,-0.14,0.18
2022-11-15 21:18:40.5460,-0.1,-0.1,-0.17,0.22
2022-11-15 21:18:40.5470,-0.08,-0.12,-0.18,0.23
2022-11-15 21:18:40.5620,-0.08,-0.11,-0.16,0.21
2022-11-15 21:18:40.5630,-0.08,-0.07,-0.09,0.13
2022-11-15 21:18:40.5770,-0.07,-0.03,-0.05,0.09
2022-11-15 21:18:40.5780,-0.08,-0.02,-0.03,0.08
2022-11-15 21:18:40.5940,-0.06,-0.03,-0.05,0.08
2022-11-15 21:18:40.5950,-0.06,-0.03,-0.09,0.11
2022-11-15 21:18:40.6240,-0.05,-0.03,-0.12,0.13
2022-11-15 21:18:40.6250,-0.02,-0.05,-0.16,0.16
2022-11-15 21:18:40.6460,-0.01,-0.05,-0.15,0.15
2022-11-15 21:18:40.6460,-0.06,-0.06,-0.15,0.17
2022-11-15 21:18:40.6610,-0.09,-0.09,-0.15,0.19
2022-11-15 21:18:40.6620,-0.07,-0.1,-0.15,0.19
2022-11-15 21:18:40.6770,-0.05,-0.06,-0.13,0.15
2022-11-15 21:18:40.6780,-0.07,-0.04,-0.13,0.15
2022-11-15 21:18:40.6940,-0.07,-0.03,-0.12,0.14
2022-11-15 21:18:40.6950,-0.06,-0.01,-0.08,0.1
2022-11-15 21:18:40.7250,-0.05,0.03,-0.04,0.07
2022-11-15 21:18:40.7260,-0.03,0.05,0.01,0.05
2022-11-15 21:18:40.7460,-0.05,0.08,0.06,0.11
2022-11-15 21:18:40.7470,-0.08,0.12,0.1,0.17
2022-11-15 21:18:40.7620,-0.11,0.14,0.12,0.21
2022-11-15 21:18:40.7620,-0.07,0.1,0.11,0.16
2022-11-15 21:18:40.7770,0.01,0.07,0.07,0.09
2022-11-15 21:18:40.7780,0.0,0.09,0.05,0.1
2022-11-15 21:18:40.7940,0.01,0.09,0.04,0.09
2022-11-15 21:18:40.7950,0.01,0.08,0.07,0.1
2022-11-15 21:18:40.8250,-0.02,0.07,0.08,0.1
2022-11-15 21:18:40.8260,-0.04,0.06,0.09,0.11
2022-11-15 21:18:40.8460,-0.02,-0.02,0.09,0.09
2022-11-15 21:18:40.8470,0.01,-0.05,0.08,0.09
2022-11-15 21:18:40.8620,0.04,-0.07,0.07,0.1
2022-11-15 21:18:40.8620,0.1,-0.08,0.04,0.13
2022-11-15 21:18:40.8780,0.14,-0.09,0.02,0.16
2022-11-15 21:18:40.8780,0.14,-0.09,0.01,0.16
2022-11-15 21:18:40.8940,0.11,-0.07,0.02,0.13
2022-11-15 21:18:40.8950,0.1,-0.06,0.03,0.12
2022-11-15 21:18:40.9250,0.14,-0.09,0.01,0.16
2022-11-15 21:18:40.9260,0.2,-0.15,-0.03,0.25
2022-11-15 21:18:40.9460,0.22,-0.2,-0.03,0.29
2022-11-15 21:18:40.9470,0.11,-0.19,0.02,0.22
2022-11-15 21:18:40.9620,0.03,-0.19,0.02,0.19
2022-11-15 21:18:40.9620,0.02,-0.27,0.02,0.27
2022-11-15 21:18:40.9770,0.01,-0.31,0.03,0.31
2022-11-15 21:18:40.9780,0.03,-0.29,0.0,0.29
2022-11-15 21:18:40.9940,0.0,-0.22,0.0,0.22
2022-11-15 21:18:40.9950,0.01,-0.17,-0.06,0.18
2022-11-15 21:18:41.0250,0.05,-0.18,-0.11,0.21
2022-11-15 21:18:41.0260,0.08,-0.2,-0.12,0.24
2022-11-15 21:18:41.0460,0.05,-0.22,-0.07,0.23
2022-11-15 21:18:41.0470,-0.04,-0.24,-0.03,0.24
2022-11-15 21:18:41.0620,-0.03,-0.27,-0.04,0.27
2022-11-15 21:18:41.0620,-0.06,-0.25,-0.04,0.26
2022-11-15 21:18:41.0780,-0.08,-0.22,-0.04,0.23
2022-11-15 21:18:41.0780,0.01,-0.22,-0.1,0.24
2022-11-15 21:18:41.0940,0.05,-0.2,-0.14,0.24
2022-11-15 21:18:41.0950,-0.03,-0.14,-0.13,0.19
2022-11-15 21:18:41.1240,-0.06,-0.07,-0.11,0.14
2022-11-15 21:18:41.1250,0.01,-0.01,-0.06,0.06
2022-11-15 21:18:41.1470,0.0,0.03,0.01,0.03
2022-11-15 21:18:41.1470,0.04,0.07,0.05,0.09
2022-11-15 21:18:41.1620,0.14,0.09,0.07,0.18
2022-11-15 21:18:41.1620,0.18,0.12,0.11,0.24
2022-11-15 21:18:41.1770,0.13,0.18,0.14,0.26
2022-11-15 21:18:41.1780,0.1,0.22,0.13,0.27
2022-11-15 21:18:41.1940,0.11,0.17,0.11,0.23
2022-11-15 21:18:41.1950,-0.01,0.15,0.14,0.2
2022-11-15 21:18:41.2240,-0.05,0.16,0.13,0.21
2022-11-15 21:18:41.2250,-0.05,0.08,0.1,0.13
2022-11-15 21:18:41.2460,-0.04,0.07,0.03,0.08
2022-11-15 21:18:41.2470,0.03,0.09,-0.01,0.09
2022-11-15 21:18:41.2610,0.03,0.12,-0.01,0.12
2022-11-15 21:18:41.2620,-0.01,0.13,0.02,0.13
2022-11-15 21:18:41.2780,-0.01,0.14,0.04,0.14
2022-11-15 21:18:41.2780,0.0,0.09,0.07,0.11
2022-11-15 21:18:41.2940,-0.01,0.05,0.11,0.12
2022-11-15 21:18:41.2950,-0.04,0.0,0.11,0.11
2022-11-15 21:18:41.3250,-0.06,-0.04,0.12,0.13
2022-11-15 21:18:41.3260,-0.09,-0.06,0.11,0.15
2022-11-15 21:18:41.3460,-0.08,-0.07,0.08,0.13
2022-11-15 21:18:41.3470,-0.05,-0.06,0.04,0.08
2022-11-15 21:18:41.3620,0.02,-0.05,-0.02,0.05
2022-11-15 21:18:41.3630,0.11,-0.03,-0.07,0.13
2022-11-15 21:18:41.3770,0.18,0.0,-0.09,0.2
2022-11-15 21:18:41.3780,0.22,0.01,-0.08,0.23
2022-11-15 21:18:41.3940,0.35,-0.03,-0.1,0.36
2022-11-15 21:18:41.3950,0.4,-0.05,-0.06,0.4
2022-11-15 21:18:41.4260,0.32,-0.03,0.03,0.32
2022-11-15 21:18:41.4270,0.33,-0.04,0.04,0.33
2022-11-15 21:18:41.4460,0.35,-0.08,0.03,0.36
2022-11-15 21:18:41.4470,0.29,-0.13,0.05,0.32
2022-11-15 21:18:41.4620,0.25,-0.14,0.06,0.29
2022-11-15 21:18:41.4630,0.37,-0.27,-0.01,0.45
2022-11-15 21:18:41.4780,0.31,-0.37,-0.05,0.48
2022-11-15 21:18:41.4780,0.2,-0.34,-0.05,0.39
2022-11-15 21:18:41.4940,0.19,-0.3,-0.04,0.35
2022-11-15 21:18:41.4950,0.18,-0.27,-0.03,0.32
2022-11-15 21:18:41.5250,0.14,-0.23,-0.02,0.27
2022-11-15 21:18:41.5260,0.13,-0.19,0.0,0.23
2022-11-15 21:18:41.5460,0.12,-0.16,0.02,0.2
2022-11-15 21:18:41.5470,0.07,-0.12,0.04,0.14
2022-11-15 21:18:41.5620,0.04,-0.09,0.03,0.1
2022-11-15 21:18:41.5620,-0.01,-0.08,0.06,0.1
2022-11-15 21:18:41.5770,-0.04,-0.09,0.07,0.12
2022-11-15 21:18:41.5780,-0.03,-0.09,0.09,0.13
2022-11-15 21:18:41.5940,-0.03,-0.07,0.12,0.14
2022-11-15 21:18:41.5950,-0.05,-0.04,0.12,0.13
2022-11-15 21:18:41.6250,-0.05,-0.02,0.08,0.09
2022-11-15 21:18:41.6260,-0.03,-0.05,0.02,0.06
2022-11-15 21:18:41.6460,-0.05,-0.07,0.0,0.08
2022-11-15 21:18:41.6460,-0.05,-0.07,-0.03,0.09
2022-11-15 21:18:41.6620,-0.02,-0.08,-0.05,0.09
2022-11-15 21:18:41.6620,-0.05,0.02,0.02,0.05
2022-11-15 21:18:41.6770,0.02,-0.04,-0.03,0.05
2022-11-15 21:18:41.6780,0.18,-0.14,-0.09,0.24
2022-11-15 21:18:41.6940,0.1,-0.01,-0.03,0.1
2022-11-15 21:18:41.6950,0.01,0.07,-0.02,0.07
2022-11-15 21:18:41.7250,0.06,-0.02,-0.09,0.11
2022-11-15 21:18:41.7260,0.09,-0.08,-0.14,0.18
2022-11-15 21:18:41.7460,0.11,-0.1,-0.14,0.2
2022-11-15 21:18:41.7470,0.12,-0.11,-0.12,0.2
2022-11-15 21:18:41.7620,0.09,-0.07,-0.08,0.13
2022-11-15 21:18:41.7620,0.07,0.0,-0.02,0.07
2022-11-15 21:18:41.7770,0.07,0.01,-0.02,0.07
2022-11-15 21:18:41.7780,0.04,0.04,-0.01,0.05
2022-11-15 21:18:41.7940,-0.03,0.11,0.01,0.11
2022-11-15 21:18:41.7950,-0.08,0.11,0.01,0.13
2022-11-15 21:18:41.8260,-0.17,0.08,-0.01,0.18
2022-11-15 21:18:41.8260,-0.25,0.03,-0.06,0.25
2022-11-15 21:18:41.8460,-0.3,-0.04,-0.1,0.31
2022-11-15 21:18:41.8470,-0.32,-0.11,-0.13,0.36
2022-11-15 21:18:41.8620,-0.35,-0.17,-0.13,0.41
2022-11-15 21:18:41.8620,-0.37,-0.23,-0.11,0.44
2022-11-15 21:18:41.8770,-0.37,-0.25,-0.08,0.45
2022-11-15 21:18:41.8780,-0.37,-0.21,-0.03,0.42
2022-11-15 21:18:41.8940,-0.35,-0.17,0.01,0.38
2022-11-15 21:18:41.8950,-0.29,-0.09,0.05,0.3
2022-11-15 21:18:41.9260,-0.24,-0.02,0.06,0.24
2022-11-15 21:18:41.9270,-0.17,0.04,0.05,0.18
2022-11-15 21:18:41.9460,-0.12,0.08,0.04,0.14
2022-11-15 21:18:41.9470,-0.07,0.11,0.06,0.14
2022-11-15 21:18:41.9620,-0.02,0.12,0.07,0.14
2022-11-15 21:18:41.9620,0.03,0.11,0.09,0.14
2022-11-15 21:18:41.9770,0.04,0.07,0.1,0.12
2022-11-15 21:18:41.9780,0.08,0.02,0.09,0.12
2022-11-15 21:18:41.9940,0.09,0.0,0.09,0.12
2022-11-15 21:18:41.9950,0.07,-0.03,0.06,0.09
2022-11-15 21:18:42.0260,0.1,-0.07,0.02,0.12
2022-11-15 21:18:42.0260,0.12,-0.11,-0.01,0.16
2022-11-15 21:18:42.0460,0.14,-0.12,-0.05,0.19
2022-11-15 21:18:42.0470,0.14,-0.13,-0.07,0.2
2022-11-15 21:18:42.0610,0.14,-0.13,-0.05,0.19
2022-11-15 21:18:42.0620,0.13,-0.12,-0.03,0.17
2022-11-15 21:18:42.0770,0.11,-0.12,0.0,0.16
2022-11-15 21:18:42.0780,0.1,-0.11,0.01,0.14
2022-11-15 21:18:42.0940,0.09,-0.1,0.03,0.13
2022-11-15 21:18:42.0950,0.07,-0.12,0.03,0.14
2022-11-15 21:18:42.1250,0.07,-0.14,0.04,0.16
2022-11-15 21:18:42.1260,0.09,-0.14,0.04,0.17
2022-11-15 21:18:42.1460,0.09,-0.12,0.06,0.16
2022-11-15 21:18:42.1460,0.08,-0.1,0.06,0.14
2022-11-15 21:18:42.1610,0.09,-0.07,0.05,0.12
2022-11-15 21:18:42.1620,0.09,-0.05,0.05,0.11
2022-11-15 21:18:42.1770,0.1,-0.04,0.05,0.11
2022-11-15 21:18:42.1780,0.08,-0.02,0.03,0.08
2022-11-15 21:18:42.1940,0.08,-0.02,0.03,0.08
2022-11-15 21:18:42.1940,0.07,-0.03,0.01,0.07
2022-11-15 21:18:42.2250,0.06,-0.04,-0.02,0.07
2022-11-15 21:18:42.2260,0.03,-0.06,-0.04,0.07
2022-11-15 21:18:42.2460,0.01,-0.07,-0.03,0.07
2022-11-15 21:18:42.2470,-0.03,-0.08,-0.03,0.09
2022-11-15 21:18:42.2610,-0.02,-0.09,-0.04,0.1
2022-11-15 21:18:42.2620,-0.04,-0.08,-0.03,0.09
2022-11-15 21:18:42.2770,-0.03,-0.08,-0.03,0.09
2022-11-15 21:18:42.2780,-0.02,-0.07,-0.03,0.07
2022-11-15 21:18:42.2940,-0.01,-0.06,-0.04,0.07
2022-11-15 21:18:42.2950,-0.01,-0.05,-0.03,0.05
2022-11-15 21:18:42.3240,-0.01,-0.03,-0.02,0.03
2022-11-15 21:18:42.3250,-0.02,-0.03,-0.02,0.04
2022-11-15 21:18:42.3250,-0.03,-0.03,-0.03,0.05
2022-11-15 21:18:42.3460,-0.05,-0.04,-0.02,0.06
2022-11-15 21:18:42.3460,-0.1,-0.05,-0.03,0.11
2022-11-15 21:18:42.3590,-0.11,-0.07,-0.03,0.13
2022-11-15 21:18:42.3600,-0.12,-0.09,-0.05,0.15
2022-11-15 21:18:42.3770,-0.12,-0.09,-0.05,0.15
2022-11-15 21:18:42.3770,-0.12,-0.09,-0.05,0.15
2022-11-15 21:18:42.3780,-0.11,-0.07,-0.06,0.14
2022-11-15 21:18:42.4060,-0.11,-0.04,-0.06,0.13
2022-11-15 21:18:42.4070,-0.11,-0.02,-0.05,0.12
2022-11-15 21:18:42.4090,-0.1,0.0,-0.06,0.11
2022-11-15 21:18:42.4280,-0.11,0.01,-0.04,0.11
2022-11-15 21:18:42.4290,-0.12,0.02,-0.03,0.12
2022-11-15 21:18:42.4440,-0.12,0.02,-0.02,0.12
2022-11-15 21:18:42.4440,-0.13,0.02,0.0,0.13
2022-11-15 21:18:42.4600,-0.12,0.02,0.0,0.12
2022-11-15 21:18:42.4610,-0.1,0.02,0.0,0.1
2022-11-15 21:18:42.4620,-0.09,0.01,-0.01,0.09
2022-11-15 21:18:42.4890,-0.07,0.0,-0.02,0.07
2022-11-15 21:18:42.4900,-0.08,-0.02,-0.01,0.08
2022-11-15 21:18:42.4920,-0.09,-0.02,-0.01,0.09
2022-11-15 21:18:42.5110,-0.07,-0.04,0.0,0.08
2022-11-15 21:18:42.5120,-0.05,-0.05,0.0,0.07
2022-11-15 21:18:42.5270,-0.03,-0.03,0.0,0.04
2022-11-15 21:18:42.5280,-0.02,-0.02,0.02,0.03
2022-11-15 21:18:42.5440,0.0,-0.01,0.01,0.01
2022-11-15 21:18:42.5450,0.0,-0.01,-0.01,0.01
2022-11-15 21:18:42.5450,-0.02,-0.04,-0.02,0.04
2022-11-15 21:18:42.5730,-0.04,-0.07,-0.03,0.08
2022-11-15 21:18:42.5740,-0.05,-0.11,-0.03,0.12
2022-11-15 21:18:42.5740,-0.04,-0.12,-0.03,0.13
2022-11-15 21:18:42.5950,-0.03,-0.09,-0.02,0.09
2022-11-15 21:18:42.5950,-0.03,-0.06,-0.04,0.07
2022-11-15 21:18:42.6110,-0.01,-0.05,-0.06,0.07
2022-11-15 21:18:42.6110,0.0,-0.03,-0.06,0.06
2022-11-15 21:18:42.6270,0.02,-0.04,-0.06,0.07
2022-11-15 21:18:42.6280,0.0,-0.05,-0.05,0.07
2022-11-15 21:18:42.6440,-0.04,-0.06,-0.05,0.08
2022-11-15 21:18:42.6740,-0.04,-0.09,-0.06,0.11
2022-11-15 21:18:42.6740,-0.03,-0.1,-0.06,0.12
2022-11-15 21:18:42.6960,-0.03,-0.08,-0.05,0.09
2022-11-15 21:18:42.6960,-0.01,-0.07,-0.05,0.08
2022-11-15 21:18:42.7110,-0.02,-0.06,-0.04,0.07
2022-11-15 21:18:42.7120,-0.02,-0.04,-0.04,0.06
2022-11-15 21:18:42.7270,-0.02,-0.04,-0.05,0.06
2022-11-15 21:18:42.7280,-0.04,-0.02,-0.03,0.05
2022-11-15 21:18:42.7280,-0.06,-0.01,-0.02,0.06
2022-11-15 21:18:42.7440,-0.09,0.0,0.01,0.09
2022-11-15 21:18:42.7740,-0.12,0.02,0.05,0.13
2022-11-15 21:18:42.7750,-0.13,0.03,0.05,0.14
2022-11-15 21:18:42.7960,-0.06,0.02,0.02,0.06
2022-11-15 21:18:42.7960,-0.08,0.0,0.0,0.08
2022-11-15 21:18:42.8110,-0.05,0.0,-0.03,0.05
2022-11-15 21:18:42.8110,-0.04,0.0,-0.04,0.05
2022-11-15 21:18:42.8260,0.02,-0.02,-0.04,0.04
2022-11-15 21:18:42.8270,0.04,-0.03,-0.04,0.06
2022-11-15 21:18:42.8440,0.05,-0.03,-0.03,0.06
2022-11-15 21:18:42.8440,0.04,-0.04,-0.03,0.06
2022-11-15 21:18:42.8740,0.06,-0.03,-0.03,0.07
2022-11-15 21:18:42.8750,0.08,-0.04,-0.04,0.09
2022-11-15 21:18:42.8950,0.09,-0.04,-0.05,0.11
2022-11-15 21:18:42.8960,0.1,-0.04,-0.05,0.11
2022-11-15 21:18:42.9110,0.09,-0.04,-0.04,0.1
2022-11-15 21:18:42.9120,0.09,-0.07,-0.05,0.12
2022-11-15 21:18:42.9120,0.09,-0.1,-0.05,0.14
2022-11-15 21:18:42.9270,0.09,-0.1,-0.06,0.14
2022-11-15 21:18:42.9280,0.08,-0.1,-0.05,0.13
2022-11-15 21:18:42.9280,0.07,-0.09,-0.03,0.11
2022-11-15 21:18:42.9560,0.05,-0.07,-0.01,0.08
2022-11-15 21:18:42.9570,0.05,-0.07,-0.01,0.08
2022-11-15 21:18:42.9570,0.08,-0.09,-0.02,0.12
2022-11-15 21:18:42.9590,0.1,-0.11,-0.03,0.15
2022-11-15 21:18:42.9590,0.1,-0.1,-0.02,0.14
2022-11-15 21:18:42.9780,0.11,-0.08,-0.03,0.13
2022-11-15 21:18:42.9790,0.09,-0.07,-0.02,0.11
2022-11-15 21:18:42.9930,0.05,-0.04,-0.02,0.06
2022-11-15 21:18:42.9930,0.04,-0.03,-0.01,0.05
2022-11-15 21:18:43.0110,0.02,-0.03,0.02,0.04
2022-11-15 21:18:43.0380,0.0,-0.03,0.03,0.04
2022-11-15 21:18:43.0390,-0.03,-0.05,0.02,0.06
2022-11-15 21:18:43.0420,-0.04,-0.1,0.01,0.1
2022-11-15 21:18:43.0430,-0.02,-0.13,-0.01,0.13
2022-11-15 21:18:43.0610,-0.03,-0.15,-0.04,0.15
2022-11-15 21:18:43.0620,-0.03,-0.15,-0.04,0.15
2022-11-15 21:18:43.0620,-0.07,-0.12,-0.02,0.14
2022-11-15 21:18:43.0770,-0.08,-0.09,-0.02,0.12
2022-11-15 21:18:43.0780,-0.06,-0.05,0.0,0.07
2022-11-15 21:18:43.0940,-0.03,-0.04,0.01,0.05
2022-11-15 21:18:43.1210,0.01,-0.04,0.01,0.04
2022-11-15 21:18:43.1210,0.01,-0.04,0.01,0.04
2022-11-15 21:18:43.1220,0.03,-0.05,0.01,0.05
2022-11-15 21:18:43.1280,0.04,-0.05,0.01,0.06
2022-11-15 21:18:43.1290,0.05,-0.06,0.01,0.07
2022-11-15 21:18:43.1450,0.06,-0.06,0.0,0.08
2022-11-15 21:18:43.1450,0.09,-0.05,-0.02,0.1
2022-11-15 21:18:43.1600,0.11,-0.04,-0.02,0.11
2022-11-15 21:18:43.1610,0.11,-0.04,-0.04,0.12
2022-11-15 21:18:43.1770,0.12,-0.06,-0.04,0.13
2022-11-15 21:18:43.2060,0.08,-0.07,-0.02,0.1
2022-11-15 21:18:43.2060,0.02,-0.07,0.0,0.07
2022-11-15 21:18:43.2100,-0.01,-0.09,0.01,0.09
2022-11-15 21:18:43.2280,-0.04,-0.11,0.05,0.12
2022-11-15 21:18:43.2290,-0.03,-0.12,0.03,0.12
2022-11-15 21:18:43.2440,-0.02,-0.11,0.01,0.11
2022-11-15 21:18:43.2450,-0.02,-0.1,-0.01,0.1
2022-11-15 21:18:43.2600,0.0,-0.07,-0.03,0.07
2022-11-15 21:18:43.2610,0.0,-0.04,-0.02,0.04
2022-11-15 21:18:43.2770,-0.01,-0.02,-0.01,0.02
2022-11-15 21:18:43.3070,-0.02,-0.02,0.01,0.03
2022-11-15 21:18:43.3080,0.02,-0.03,0.01,0.03
2022-11-15 21:18:43.3080,-0.01,-0.02,0.03,0.03
2022-11-15 21:18:43.3290,-0.05,-0.01,0.04,0.06
2022-11-15 21:18:43.3300,-0.03,-0.04,0.02,0.05
2022-11-15 21:18:43.3450,0.01,-0.07,-0.01,0.07
2022-11-15 21:18:43.3450,0.03,-0.1,-0.04,0.11
2022-11-15 21:18:43.3600,0.03,-0.08,-0.05,0.09
2022-11-15 21:18:43.3610,-0.01,-0.06,-0.01,0.06
2022-11-15 21:18:43.3770,-0.06,-0.03,0.04,0.07
2022-11-15 21:18:43.4070,-0.05,0.0,0.04,0.06
2022-11-15 21:18:43.4080,-0.04,0.01,0.06,0.07
2022-11-15 21:18:43.4290,-0.02,0.0,0.03,0.03
2022-11-15 21:18:43.4300,0.04,-0.01,-0.02,0.04
2022-11-15 21:18:43.4450,0.03,-0.02,0.01,0.03
2022-11-15 21:18:43.4460,0.01,-0.04,0.02,0.04
2022-11-15 21:18:43.4610,-0.12,-0.02,0.07,0.14
2022-11-15 21:18:43.4610,0.0,-0.09,-0.03,0.09
2022-11-15 21:18:43.4770,0.39,-0.13,-0.12,0.42
2022-11-15 21:18:43.4780,0.07,-0.08,0.05,0.11
2022-11-15 21:18:43.5090,-0.03,-0.03,0.04,0.05
2022-11-15 21:18:43.5100,0.16,-0.06,-0.02,0.17
2022-11-15 21:18:43.5290,0.13,-0.12,0.0,0.17
2022-11-15 21:18:43.5300,0.15,-0.11,-0.03,0.18
2022-11-15 21:18:43.5450,0.18,-0.12,-0.05,0.22
2022-11-15 21:18:43.5460,0.13,-0.12,-0.03,0.17
2022-11-15 21:18:43.5610,0.13,-0.12,-0.05,0.18
2022-11-15 21:18:43.5610,0.15,-0.1,-0.05,0.18
2022-11-15 21:18:43.5620,0.14,-0.08,-0.04,0.16
2022-11-15 21:18:43.5770,0.12,-0.05,-0.01,0.13
2022-11-15 21:18:43.6070,0.09,-0.04,0.01,0.09
2022-11-15 21:18:43.6080,0.08,-0.04,0.02,0.09
2022-11-15 21:18:43.6290,0.05,-0.05,0.05,0.08
2022-11-15 21:18:43.6300,0.0,-0.04,0.07,0.08
2022-11-15 21:18:43.6450,-0.01,-0.02,0.07,0.07
2022-11-15 21:18:43.6450,0.01,-0.04,0.05,0.06
2022-11-15 21:18:43.6600,0.03,-0.05,0.02,0.06
2022-11-15 21:18:43.6610,0.02,-0.07,0.01,0.07
2022-11-15 21:18:43.6770,0.02,-0.08,-0.01,0.08
2022-11-15 21:18:43.6780,-0.02,-0.06,0.01,0.06
2022-11-15 21:18:43.7080,-0.08,-0.04,0.03,0.09
2022-11-15 21:18:43.7090,-0.1,-0.02,0.04,0.1
2022-11-15 21:18:43.7290,-0.1,-0.01,0.03,0.1
2022-11-15 21:18:43.7300,-0.09,0.0,0.02,0.09
2022-11-15 21:18:43.7450,-0.1,-0.01,0.02,0.1
2022-11-15 21:18:43.7460,-0.09,-0.02,-0.02,0.09
2022-11-15 21:18:43.7610,-0.05,-0.03,-0.03,0.06
2022-11-15 21:18:43.7610,0.0,-0.03,-0.05,0.05
2022-11-15 21:18:43.7770,0.01,-0.02,-0.04,0.04
2022-11-15 21:18:43.7780,-0.02,-0.02,-0.02,0.03
2022-11-15 21:18:43.8080,-0.05,-0.02,-0.01,0.05
2022-11-15 21:18:43.8090,-0.05,-0.04,-0.01,0.06
2022-11-15 21:18:43.8290,-0.01,-0.06,-0.02,0.06
2022-11-15 21:18:43.8300,-0.03,-0.05,-0.01,0.05
2022-11-15 21:18:43.8300,-0.05,-0.04,-0.01,0.06
2022-11-15 21:18:43.8450,-0.08,-0.04,0.0,0.08
2022-11-15 21:18:43.8460,-0.15,-0.04,0.01,0.15
2022-11-15 21:18:43.8600,-0.16,-0.04,0.03,0.16
2022-11-15 21:18:43.8610,-0.14,-0.03,0.05,0.15
2022-11-15 21:18:43.8770,-0.16,-0.01,0.05,0.16
2022-11-15 21:18:43.9070,-0.09,0.0,0.04,0.09
2022-11-15 21:18:43.9080,0.0,0.0,0.02,0.02
2022-11-15 21:18:43.9290,0.01,0.01,0.01,0.01
2022-11-15 21:18:43.9300,-0.03,0.01,-0.01,0.03
2022-11-15 21:18:43.9450,-0.04,0.0,-0.01,0.04
2022-11-15 21:18:43.9450,-0.04,-0.03,0.0,0.05
2022-11-15 21:18:43.9600,-0.06,-0.05,0.0,0.07
2022-11-15 21:18:43.9610,-0.05,-0.09,-0.02,0.1
2022-11-15 21:18:43.9770,-0.02,-0.09,-0.04,0.1
2022-11-15 21:18:43.9780,-0.02,-0.1,-0.05,0.11
2022-11-15 21:18:44.0080,-0.05,-0.08,-0.07,0.11
2022-11-15 21:18:44.0080,-0.08,-0.06,-0.04,0.1
2022-11-15 21:18:44.0290,-0.12,-0.05,-0.05,0.13
2022-11-15 21:18:44.0300,-0.18,-0.06,-0.05,0.19
2022-11-15 21:18:44.0450,-0.21,-0.04,-0.04,0.21
2022-11-15 21:18:44.0460,-0.21,-0.04,-0.02,0.21
2022-11-15 21:18:44.0460,-0.2,-0.03,0.0,0.2
2022-11-15 21:18:44.0610,-0.16,-0.04,0.03,0.16
2022-11-15 21:18:44.0610,-0.14,-0.04,0.04,0.15
2022-11-15 21:18:44.0770,-0.09,-0.04,0.06,0.11
2022-11-15 21:18:44.1080,-0.05,-0.04,0.03,0.07
2022-11-15 21:18:44.1090,0.04,-0.09,-0.02,0.1
2022-11-15 21:18:44.1290,0.04,-0.11,-0.04,0.12
2022-11-15 21:18:44.1300,-0.03,-0.12,-0.06,0.13
2022-11-15 21:18:44.1450,-0.01,-0.14,-0.08,0.16
2022-11-15 21:18:44.1450,0.03,-0.14,-0.09,0.16
2022-11-15 21:18:44.1610,-0.04,-0.11,-0.07,0.13
2022-11-15 21:18:44.1610,-0.05,-0.11,-0.08,0.14
2022-11-15 21:18:44.1770,-0.08,-0.11,-0.09,0.16
2022-11-15 21:18:44.1780,-0.09,-0.13,-0.15,0.21
2022-11-15 21:18:44.2080,-0.02,-0.18,-0.18,0.25
2022-11-15 21:18:44.2090,-0.01,-0.15,-0.17,0.22
2022-11-15 21:18:44.2290,0.02,-0.03,-0.13,0.13
2022-11-15 21:18:44.2300,0.05,0.03,-0.1,0.11
2022-11-15 21:18:44.2450,0.01,0.06,-0.05,0.07
2022-11-15 21:18:44.2460,-0.07,0.04,0.04,0.09
2022-11-15 21:18:44.2610,-0.16,0.07,0.13,0.21
2022-11-15 21:18:44.2620,-0.17,0.14,0.23,0.31
2022-11-15 21:18:44.2770,-0.21,0.2,0.26,0.38
2022-11-15 21:18:44.2780,-0.33,0.1,0.19,0.39
2022-11-15 21:18:44.3080,-0.22,-0.08,0.0,0.23
2022-11-15 21:18:44.3090,-0.18,-0.01,-0.1,0.2
2022-11-15 21:18:44.3290,-0.29,0.14,-0.12,0.34
2022-11-15 21:18:44.3300,-0.12,0.18,-0.08,0.23
2022-11-15 21:18:44.3450,-0.08,0.18,0.03,0.19
2022-11-15 21:18:44.3460,-0.11,0.15,0.09,0.2
2022-11-15 21:18:44.3610,0.09,0.09,0.06,0.14
2022-11-15 21:18:44.3610,0.16,-0.08,-0.01,0.17
2022-11-15 21:18:44.3770,0.1,-0.17,-0.02,0.19
2022-11-15 21:18:44.3780,0.07,-0.16,0.0,0.17
2022-11-15 21:18:44.4070,0.03,-0.18,0.04,0.18
2022-11-15 21:18:44.4080,0.06,-0.15,0.06,0.17
2022-11-15 21:18:44.4290,0.06,-0.1,0.04,0.12
2022-11-15 21:18:44.4300,0.04,-0.1,0.01,0.1
2022-11-15 21:18:44.4450,0.06,-0.08,-0.02,0.1
2022-11-15 21:18:44.4450,0.0,-0.05,-0.01,0.05
2022-11-15 21:18:44.4600,-0.03,-0.04,0.03,0.05
2022-11-15 21:18:44.4610,-0.05,-0.04,0.07,0.09
2022-11-15 21:18:44.4770,-0.04,-0.05,0.06,0.08
2022-11-15 21:18:44.4780,-0.06,-0.05,0.06,0.09
2022-11-15 21:18:44.5080,-0.07,-0.03,0.06,0.09
2022-11-15 21:18:44.5090,-0.13,0.0,0.06,0.14
2022-11-15 21:18:44.5290,-0.17,0.03,0.06,0.18
2022-11-15 21:18:44.5290,-0.16,0.03,0.04,0.16
2022-11-15 21:18:44.5440,-0.17,0.03,0.04,0.17
2022-11-15 21:18:44.5450,-0.09,-0.02,0.01,0.09
2022-11-15 21:18:44.5610,0.04,-0.06,0.0,0.07
2022-11-15 21:18:44.5610,0.05,-0.08,-0.02,0.09
2022-11-15 21:18:44.5770,0.03,-0.07,-0.03,0.08
2022-11-15 21:18:44.5780,0.0,-0.07,-0.03,0.07
2022-11-15 21:18:44.6080,-0.05,-0.09,-0.01,0.1
2022-11-15 21:18:44.6090,-0.08,-0.11,0.01,0.13
2022-11-15 21:18:44.6290,-0.1,-0.1,0.03,0.14
2022-11-15 21:18:44.6300,-0.1,-0.09,0.01,0.13
2022-11-15 21:18:44.6450,-0.11,-0.09,-0.04,0.14
2022-11-15 21:18:44.6450,-0.11,-0.1,-0.09,0.17
2022-11-15 21:18:44.6610,-0.11,-0.11,-0.13,0.2
2022-11-15 21:18:44.6610,-0.1,-0.11,-0.12,0.19
2022-11-15 21:18:44.6770,-0.13,-0.11,-0.08,0.18
2022-11-15 21:18:44.6780,-0.12,-0.09,-0.01,0.15
2022-11-15 21:18:44.7080,-0.07,-0.06,0.06,0.11
2022-11-15 21:18:44.7090,-0.04,0.0,0.12,0.12
2022-11-15 21:18:44.7290,-0.04,0.03,0.16,0.16
2022-11-15 21:18:44.7300,-0.06,0.06,0.15,0.17
2022-11-15 21:18:44.7450,-0.07,0.1,0.15,0.19
2022-11-15 21:18:44.7450,-0.05,0.11,0.14,0.18
2022-11-15 21:18:44.7600,-0.04,0.11,0.12,0.16
2022-11-15 21:18:44.7610,-0.04,0.09,0.09,0.13
2022-11-15 21:18:44.7770,-0.01,0.05,0.04,0.06
2022-11-15 21:18:44.7780,0.02,-0.02,0.0,0.02
2022-11-15 21:18:44.8070,0.02,-0.09,-0.04,0.1
2022-11-15 21:18:44.8080,0.0,-0.14,-0.04,0.14
2022-11-15 21:18:44.8290,0.0,-0.17,-0.07,0.18
2022-11-15 21:18:44.8300,0.01,-0.2,-0.11,0.22
2022-11-15 21:18:44.8440,0.05,-0.22,-0.15,0.27
2022-11-15 21:18:44.8450,0.02,-0.21,-0.15,0.25
2022-11-15 21:18:44.8610,0.04,-0.18,-0.15,0.23
2022-11-15 21:18:44.8620,0.1,-0.13,-0.12,0.2
2022-11-15 21:18:44.8770,0.08,-0.09,-0.05,0.13
2022-11-15 21:18:44.8780,0.08,-0.05,-0.01,0.09
2022-11-15 21:18:44.9080,0.05,-0.01,0.03,0.05
2022-11-15 21:18:44.9090,0.0,0.01,0.06,0.06
2022-11-15 21:18:44.9290,0.0,0.04,0.07,0.08
2022-11-15 21:18:44.9300,0.05,0.04,0.05,0.08
2022-11-15 21:18:44.9440,0.09,0.04,0.06,0.11
2022-11-15 21:18:44.9450,0.11,0.03,0.05,0.12
2022-11-15 21:18:44.9600,0.1,0.04,0.05,0.11
2022-11-15 21:18:44.9610,0.06,0.04,0.06,0.09
2022-11-15 21:18:44.9770,0.02,0.06,0.06,0.08
2022-11-15 21:18:44.9780,0.0,0.05,0.03,0.05
2022-11-15 21:18:45.0080,0.0,0.01,0.01,0.01
2022-11-15 21:18:45.0090,-0.03,-0.01,-0.03,0.04
2022-11-15 21:18:45.0290,-0.06,-0.06,-0.08,0.11
2022-11-15 21:18:45.0300,-0.09,-0.12,-0.12,0.19
2022-11-15 21:18:45.0450,-0.09,-0.18,-0.17,0.26
2022-11-15 21:18:45.0460,-0.07,-0.19,-0.19,0.27
2022-11-15 21:18:45.0610,-0.05,-0.17,-0.16,0.23
2022-11-15 21:18:45.0610,-0.02,-0.11,-0.12,0.16
2022-11-15 21:18:45.0770,-0.01,-0.06,-0.07,0.09
2022-11-15 21:18:45.0780,0.02,-0.03,-0.06,0.06
2022-11-15 21:18:45.1080,0.03,0.0,-0.04,0.05
2022-11-15 21:18:45.1090,0.05,0.01,-0.05,0.07
2022-11-15 21:18:45.1290,0.08,0.01,-0.05,0.09
2022-11-15 21:18:45.1300,0.1,0.0,-0.05,0.11
2022-11-15 21:18:45.1440,0.11,-0.01,-0.04,0.11
2022-11-15 21:18:45.1450,0.12,-0.02,-0.05,0.13
2022-11-15 21:18:45.1600,0.14,-0.03,-0.04,0.14
2022-11-15 21:18:45.1610,0.17,-0.06,-0.04,0.18
2022-11-15 21:18:45.1770,0.19,-0.08,-0.04,0.21
2022-11-15 21:18:45.1780,0.19,-0.09,-0.04,0.21
2022-11-15 21:18:45.2070,0.18,-0.1,-0.06,0.21
2022-11-15 21:18:45.2080,0.18,-0.12,-0.08,0.23
2022-11-15 21:18:45.2290,0.17,-0.12,-0.1,0.23
2022-11-15 21:18:45.2290,0.16,-0.12,-0.1,0.22
2022-11-15 21:18:45.2300,0.16,-0.11,-0.1,0.21
2022-11-15 21:18:45.2300,0.15,-0.12,-0.12,0.22
2022-11-15 21:18:45.2450,0.14,-0.12,-0.11,0.21
2022-11-15 21:18:45.2450,0.12,-0.11,-0.05,0.17
2022-11-15 21:18:45.2600,0.12,-0.1,0.01,0.15
2022-11-15 21:18:45.2610,0.15,-0.12,0.02,0.19
2022-11-15 21:18:45.2880,0.17,-0.13,0.01,0.21
2022-11-15 21:18:45.2880,0.16,-0.13,0.01,0.2
2022-11-15 21:18:45.2920,0.14,-0.12,-0.03,0.18
2022-11-15 21:18:45.2920,0.14,-0.12,-0.04,0.18
2022-11-15 21:18:45.2930,0.11,-0.1,-0.05,0.15
2022-11-15 21:18:45.3120,0.09,-0.1,-0.05,0.14
2022-11-15 21:18:45.3120,0.06,-0.09,-0.06,0.12
2022-11-15 21:18:45.3130,0.07,-0.08,-0.1,0.14
2022-11-15 21:18:45.3270,0.13,-0.08,-0.15,0.21
2022-11-15 21:18:45.3280,0.23,-0.1,-0.19,0.31
2022-11-15 21:18:45.3530,0.17,-0.09,-0.16,0.25
2022-11-15 21:18:45.3530,0.12,-0.07,-0.12,0.18
2022-11-15 21:18:45.3610,0.14,-0.05,-0.1,0.17
2022-11-15 21:18:45.3610,0.08,-0.05,-0.06,0.11
2022-11-15 21:18:45.3780,-0.09,-0.04,-0.02,0.1
2022-11-15 21:18:45.3790,-0.12,-0.01,-0.04,0.12
2022-11-15 21:18:45.3930,-0.12,-0.02,-0.07,0.14
2022-11-15 21:18:45.3940,-0.18,-0.03,-0.09,0.2
2022-11-15 21:18:45.4110,-0.23,-0.03,-0.08,0.24
2022-11-15 21:18:45.4120,-0.28,-0.04,-0.05,0.28
2022-11-15 21:18:45.4390,-0.32,-0.06,-0.04,0.32
2022-11-15 21:18:45.4400,-0.32,-0.07,-0.03,0.32
2022-11-15 21:18:45.4420,-0.29,-0.06,-0.03,0.29
2022-11-15 21:18:45.4610,-0.27,-0.03,0.0,0.27
2022-11-15 21:18:45.4620,-0.23,-0.01,0.01,0.23
2022-11-15 21:18:45.4770,-0.16,-0.01,0.01,0.16
2022-11-15 21:18:45.4780,-0.08,0.02,0.01,0.08
2022-11-15 21:18:45.4940,-0.01,0.04,0.03,0.05
2022-11-15 21:18:45.4950,0.0,0.05,0.06,0.07
2022-11-15 21:18:45.5100,-0.02,0.07,0.07,0.1
2022-11-15 21:18:45.5390,0.1,0.03,0.04,0.11
2022-11-15 21:18:45.5400,0.12,-0.02,0.06,0.13
2022-11-15 21:18:45.5440,0.13,-0.08,0.06,0.16
2022-11-15 21:18:45.5610,0.17,-0.11,0.05,0.2
2022-11-15 21:18:45.5620,0.21,-0.12,0.03,0.24
2022-11-15 21:18:45.5770,0.22,-0.12,0.01,0.25
2022-11-15 21:18:45.5780,0.23,-0.13,-0.01,0.26
2022-11-15 21:18:45.5940,0.21,-0.14,-0.01,0.25
2022-11-15 21:18:45.5950,0.17,-0.16,-0.02,0.23
2022-11-15 21:18:45.6100,0.13,-0.16,-0.05,0.21
2022-11-15 21:18:45.6400,0.09,-0.16,-0.07,0.19
2022-11-15 21:18:45.6410,0.08,-0.19,-0.09,0.22
2022-11-15 21:18:45.6620,0.08,-0.2,-0.05,0.22
2022-11-15 21:18:45.6630,0.09,-0.19,-0.04,0.21
2022-11-15 21:18:45.6780,0.08,-0.17,-0.03,0.19
2022-11-15 21:18:45.6790,0.06,-0.15,0.01,0.16
2022-11-15 21:18:45.6940,0.04,-0.14,0.01,0.14
2022-11-15 21:18:45.6940,0.03,-0.16,-0.01,0.16
2022-11-15 21:18:45.7100,0.03,-0.15,-0.02,0.15
2022-11-15 21:18:45.7110,0.0,-0.13,0.02,0.13
2022-11-15 21:18:45.7410,-0.07,-0.08,0.07,0.12
2022-11-15 21:18:45.7410,-0.16,-0.03,0.11,0.19
2022-11-15 21:18:45.7620,-0.22,0.03,0.15,0.26
2022-11-15 21:18:45.7630,-0.28,0.09,0.17,0.33
2022-11-15 21:18:45.7780,-0.34,0.12,0.19,0.4
2022-11-15 21:18:45.7790,-0.4,0.12,0.17,0.45
2022-11-15 21:18:45.7940,-0.46,0.09,0.12,0.48
2022-11-15 21:18:45.7950,-0.5,0.04,0.04,0.5
2022-11-15 21:18:45.8100,-0.5,-0.01,-0.04,0.5
2022-11-15 21:18:45.8110,-0.48,-0.04,-0.09,0.49
2022-11-15 21:18:45.8410,-0.43,-0.08,-0.14,0.45
2022-11-15 21:18:45.8420,-0.36,-0.12,-0.14,0.4
2022-11-15 21:18:45.8620,-0.25,-0.14,-0.14,0.31
2022-11-15 21:18:45.8630,-0.13,-0.14,-0.13,0.23
2022-11-15 21:18:45.8780,0.0,-0.14,-0.12,0.18
2022-11-15 21:18:45.8780,0.11,-0.14,-0.09,0.19
2022-11-15 21:18:45.8940,0.19,-0.15,-0.07,0.25
2022-11-15 21:18:45.8950,0.28,-0.14,-0.04,0.31
2022-11-15 21:18:45.9100,0.36,-0.14,-0.01,0.38
2022-11-15 21:18:45.9110,0.41,-0.17,0.03,0.44
2022-11-15 21:18:45.9400,0.44,-0.16,0.07,0.47
2022-11-15 21:18:45.9410,0.48,-0.14,0.1,0.5
2022-11-15 21:18:45.9620,0.48,-0.11,0.08,0.49
2022-11-15 21:18:45.9630,0.49,-0.1,0.05,0.5
2022-11-15 21:18:45.9780,0.5,-0.1,0.02,0.51
2022-11-15 21:18:45.9790,0.49,-0.13,-0.02,0.5
2022-11-15 21:18:45.9940,0.48,-0.15,-0.06,0.5
2022-11-15 21:18:45.9950,0.5,-0.17,-0.09,0.53
2022-11-15 21:18:46.0110,0.52,-0.21,-0.11,0.57
2022-11-15 21:18:46.0110,0.56,-0.26,-0.14,0.63
2022-11-15 21:18:46.0410,0.59,-0.31,-0.15,0.68
2022-11-15 21:18:46.0420,0.64,-0.33,-0.16,0.73
2022-11-15 21:18:46.0630,0.68,-0.34,-0.18,0.78
2022-11-15 21:18:46.0630,0.73,-0.32,-0.23,0.82
2022-11-15 21:18:46.0780,0.75,-0.32,-0.25,0.85
2022-11-15 21:18:46.0790,0.7,-0.33,-0.23,0.8
2022-11-15 21:18:46.0940,0.64,-0.33,-0.2,0.74
2022-11-15 21:18:46.0950,0.57,-0.33,-0.14,0.67
2022-11-15 21:18:46.1100,0.48,-0.33,-0.13,0.59
2022-11-15 21:18:46.1110,0.4,-0.29,-0.15,0.51
2022-11-15 21:18:46.1410,0.33,-0.23,-0.17,0.43
2022-11-15 21:18:46.1420,0.23,-0.19,-0.21,0.36
2022-11-15 21:18:46.1620,0.12,-0.15,-0.28,0.33
2022-11-15 21:18:46.1630,0.04,-0.08,-0.35,0.36
2022-11-15 21:18:46.1780,-0.06,-0.01,-0.38,0.38
2022-11-15 21:18:46.1790,-0.19,0.04,-0.37,0.41
2022-11-15 21:18:46.1940,-0.32,0.08,-0.31,0.45
2022-11-15 21:18:46.1950,-0.39,0.09,-0.28,0.48
2022-11-15 21:18:46.2100,-0.51,0.11,-0.23,0.57
2022-11-15 21:18:46.2110,-0.59,0.15,-0.18,0.63
2022-11-15 21:18:46.2410,-0.66,0.15,-0.13,0.68
2022-11-15 21:18:46.2410,-0.65,0.14,-0.13,0.67
2022-11-15 21:18:46.2620,-0.62,0.16,-0.11,0.64
2022-11-15 21:18:46.2630,-0.58,0.2,-0.1,0.62
2022-11-15 21:18:46.2780,-0.55,0.22,-0.12,0.6
2022-11-15 21:18:46.2790,-0.54,0.23,-0.16,0.6
2022-11-15 21:18:46.2940,-0.51,0.22,-0.21,0.59
2022-11-15 21:18:46.2950,-0.48,0.19,-0.27,0.58
2022-11-15 21:18:46.3100,-0.48,0.13,-0.32,0.59
2022-11-15 21:18:46.3110,-0.42,0.09,-0.35,0.55
2022-11-15 21:18:46.3400,-0.34,0.08,-0.39,0.52
2022-11-15 21:18:46.3410,-0.23,0.06,-0.41,0.47
2022-11-15 21:18:46.3420,-0.12,0.05,-0.38,0.4
2022-11-15 21:18:46.3620,-0.02,0.05,-0.31,0.31
2022-11-15 21:18:46.3620,0.05,0.02,-0.26,0.26
2022-11-15 21:18:46.3770,0.08,-0.06,-0.21,0.23
2022-11-15 21:18:46.3780,0.14,-0.14,-0.15,0.24
2022-11-15 21:18:46.3940,0.19,-0.23,-0.1,0.31
2022-11-15 21:18:46.3950,0.26,-0.36,-0.06,0.44
2022-11-15 21:18:46.4110,0.35,-0.48,-0.06,0.59
2022-11-15 21:18:46.4390,0.43,-0.53,-0.09,0.68
2022-11-15 21:18:46.4400,0.48,-0.55,-0.13,0.74
2022-11-15 21:18:46.4420,0.54,-0.52,-0.15,0.76
2022-11-15 21:18:46.4610,0.57,-0.48,-0.18,0.76
2022-11-15 21:18:46.4620,0.57,-0.43,-0.19,0.73
2022-11-15 21:18:46.4770,0.58,-0.38,-0.18,0.71
2022-11-15 21:18:46.4780,0.56,-0.3,-0.23,0.67
2022-11-15 21:18:46.4940,0.49,-0.23,-0.28,0.6
2022-11-15 21:18:46.4950,0.38,-0.21,-0.32,0.53
2022-11-15 21:18:46.5100,0.29,-0.21,-0.34,0.49
2022-11-15 21:18:46.5400,0.15,-0.21,-0.35,0.43
2022-11-15 21:18:46.5410,-0.01,-0.21,-0.33,0.39
2022-11-15 21:18:46.5620,-0.14,-0.21,-0.27,0.36
2022-11-15 21:18:46.5630,-0.29,-0.18,-0.22,0.4
2022-11-15 21:18:46.5780,-0.43,-0.13,-0.17,0.48
2022-11-15 21:18:46.5790,-0.55,-0.09,-0.12,0.57
2022-11-15 21:18:46.5940,-0.63,-0.07,-0.08,0.63
2022-11-15 21:18:46.5950,-0.68,-0.05,-0.04,0.68
2022-11-15 21:18:46.6110,-0.7,-0.02,-0.02,0.7
2022-11-15 21:18:46.6120,-0.74,0.01,-0.02,0.74
2022-11-15 21:18:46.6420,-0.73,0.05,0.01,0.73
2022-11-15 21:18:46.6430,-0.71,0.12,0.06,0.72
2022-11-15 21:18:46.6620,-0.67,0.19,0.09,0.7
2022-11-15 21:18:46.6630,-0.66,0.24,0.11,0.71
2022-11-15 21:18:46.6780,-0.62,0.29,0.11,0.69
2022-11-15 21:18:46.6790,-0.59,0.35,0.08,0.69
2022-11-15 21:18:46.6940,-0.59,0.4,0.05,0.71
2022-11-15 21:18:46.6940,-0.59,0.43,0.01,0.73
2022-11-15 21:18:46.7100,-0.57,0.45,-0.01,0.72
2022-11-15 21:18:46.7110,-0.57,0.43,-0.04,0.71
2022-11-15 21:18:46.7410,-0.57,0.4,-0.05,0.69
2022-11-15 21:18:46.7420,-0.49,0.36,-0.11,0.61
2022-11-15 21:18:46.7620,-0.36,0.26,-0.1,0.45
2022-11-15 21:18:46.7630,-0.54,0.34,0.1,0.64
2022-11-15 21:18:46.7780,-0.48,0.43,0.16,0.66
2022-11-15 21:18:46.7790,-0.31,0.55,-0.02,0.63
2022-11-15 21:18:46.7940,-0.32,0.66,-0.05,0.73
2022-11-15 21:18:46.7950,-0.43,0.62,0.02,0.75
2022-11-15 21:18:46.8110,-0.4,0.49,0.03,0.63
2022-11-15 21:18:46.8120,-0.28,0.34,0.14,0.46
2022-11-15 21:18:46.8420,-0.19,0.28,0.32,0.46
2022-11-15 21:18:46.8420,-0.06,0.26,0.34,0.43
2022-11-15 21:18:46.8620,0.02,0.25,0.28,0.37
2022-11-15 21:18:46.8630,0.06,0.24,0.25,0.35
2022-11-15 21:18:46.8780,0.09,0.25,0.25,0.36
2022-11-15 21:18:46.8780,0.16,0.25,0.24,0.38
2022-11-15 21:18:46.8940,0.18,0.21,0.24,0.36
2022-11-15 21:18:46.8950,0.23,0.15,0.26,0.37
2022-11-15 21:18:46.9100,1.54,0.27,0.2,1.57
2022-11-15 21:18:46.9110,1.07,0.17,0.72,1.3
2022-11-15 21:18:46.9410,-0.11,-0.32,0.4,0.52
2022-11-15 21:18:46.9420,-0.81,-0.58,-0.43,1.08
2022-11-15 21:18:46.9630,-0.7,-0.34,-0.31,0.83
2022-11-15 21:18:46.9640,-0.49,-0.21,0.58,0.78
2022-11-15 21:18:46.9780,0.16,-0.18,1.09,1.11
2022-11-15 21:18:46.9790,0.21,-0.26,0.92,0.97
2022-11-15 21:18:46.9940,-0.04,-0.42,0.38,0.56
2022-11-15 21:18:46.9950,-0.04,-0.51,-0.02,0.51
2022-11-15 21:18:47.0110,0.01,-0.56,-0.13,0.57
2022-11-15 21:18:47.0110,0.01,-0.68,-0.1,0.68
2022-11-15 21:18:47.0410,-0.07,-0.76,-0.17,0.78
2022-11-15 21:18:47.0420,0.06,-0.67,0.19,0.69
2022-11-15 21:18:47.0620,0.16,-0.67,0.22,0.72
2022-11-15 21:18:47.0630,0.2,-0.61,0.21,0.67
2022-11-15 21:18:47.0780,0.35,-0.52,0.02,0.62
2022-11-15 21:18:47.0790,0.51,-0.33,-0.1,0.61
2022-11-15 21:18:47.0940,0.41,-0.22,0.16,0.49
2022-11-15 21:18:47.0950,0.26,-0.24,-0.04,0.35
2022-11-15 21:18:47.1100,0.28,-0.11,-0.24,0.38
2022-11-15 21:18:47.1110,0.32,0.01,-0.27,0.41
2022-11-15 21:18:47.1400,0.22,0.08,-0.28,0.36
2022-11-15 21:18:47.1410,0.04,0.13,-0.1,0.16
2022-11-15 21:18:47.1620,-0.01,0.22,0.15,0.26
2022-11-15 21:18:47.1630,0.01,0.27,0.25,0.36
2022-11-15 21:18:47.1780,0.04,0.27,0.23,0.35
2022-11-15 21:18:47.1790,-0.06,0.28,0.13,0.31
2022-11-15 21:18:47.1940,-0.17,0.39,0.04,0.42
2022-11-15 21:18:47.1950,-0.19,0.4,0.01,0.44
2022-11-15 21:18:47.2110,-0.23,0.29,0.16,0.4
2022-11-15 21:18:47.2110,-0.19,0.14,0.35,0.42
2022-11-15 21:18:47.2400,-0.18,-0.02,0.37,0.41
2022-11-15 21:18:47.2410,-0.29,0.05,0.3,0.42
2022-11-15 21:18:47.2620,-0.45,0.35,0.16,0.59
2022-11-15 21:18:47.2630,-0.45,0.42,-0.07,0.61
2022-11-15 21:18:47.2780,-0.34,0.33,-0.09,0.48
2022-11-15 21:18:47.2790,-0.41,0.42,0.11,0.59
2022-11-15 21:18:47.2940,-0.46,0.54,0.21,0.73
2022-11-15 21:18:47.2950,-0.46,0.54,0.21,0.73
2022-11-15 21:18:47.2950,-0.45,0.58,0.22,0.76
2022-11-15 21:18:47.3100,-0.52,0.62,0.19,0.83
2022-11-15 21:18:47.3400,-0.67,0.33,0.08,0.75
2022-11-15 21:18:47.3410,-0.52,0.04,0.02,0.52
2022-11-15 21:18:47.3620,-0.64,-0.01,0.1,0.64
2022-11-15 21:18:47.3630,-0.76,0.02,0.1,0.76
2022-11-15 21:18:47.3780,-0.72,0.17,0.19,0.76
2022-11-15 21:18:47.3790,-0.59,0.35,0.26,0.73
2022-11-15 21:18:47.3940,-0.49,0.44,0.28,0.71
2022-11-15 21:18:47.3950,-0.43,0.47,0.3,0.7
2022-11-15 21:18:47.4100,-0.38,0.42,0.29,0.63
2022-11-15 21:18:47.4110,-0.42,0.29,0.27,0.57
2022-11-15 21:18:47.4400,-0.46,0.14,0.21,0.52
2022-11-15 21:18:47.4410,-0.47,0.06,0.18,0.5
2022-11-15 21:18:47.4620,-0.46,0.0,0.1,0.47
2022-11-15 21:18:47.4630,-0.45,-0.07,0.03,0.45
2022-11-15 21:18:47.4780,-0.46,-0.11,-0.04,0.47
2022-11-15 21:18:47.4780,-0.48,-0.11,-0.07,0.49
2022-11-15 21:18:47.4940,-0.37,-0.15,-0.1,0.41
2022-11-15 21:18:47.4950,-0.25,-0.23,-0.19,0.38
2022-11-15 21:18:47.5100,-0.22,-0.25,-0.24,0.41
2022-11-15 21:18:47.5110,-0.15,-0.21,-0.24,0.35
2022-11-15 21:18:47.5400,0.03,-0.19,-0.2,0.27
2022-11-15 21:18:47.5410,0.16,-0.26,-0.15,0.34
2022-11-15 21:18:47.5630,0.15,-0.23,-0.08,0.28
2022-11-15 21:18:47.5640,0.25,-0.16,-0.05,0.3
2022-11-15 21:18:47.5780,0.31,-0.12,-0.01,0.33
2022-11-15 21:18:47.5790,0.29,-0.12,0.07,0.32
2022-11-15 21:18:47.5940,0.3,-0.12,0.09,0.33
2022-11-15 21:18:47.5950,0.31,-0.1,0.07,0.33
2022-11-15 21:18:47.6100,0.36,-0.09,0.02,0.37
2022-11-15 21:18:47.6110,0.44,-0.07,-0.03,0.44
2022-11-15 21:18:47.6400,0.49,-0.04,-0.05,0.49
2022-11-15 21:18:47.6410,0.52,-0.02,-0.06,0.52
2022-11-15 21:18:47.6620,0.56,0.02,-0.05,0.56
2022-11-15 21:18:47.6630,0.6,0.04,-0.03,0.6
2022-11-15 21:18:47.6780,0.63,0.04,-0.03,0.63
2022-11-15 21:18:47.6780,0.62,0.01,0.0,0.62
2022-11-15 21:18:47.6940,0.59,-0.05,0.03,0.59
2022-11-15 21:18:47.6950,0.55,-0.13,0.05,0.56
2022-11-15 21:18:47.7100,0.52,-0.19,0.07,0.55
2022-11-15 21:18:47.7110,0.47,-0.28,0.09,0.55
2022-11-15 21:18:47.7410,0.43,-0.35,0.1,0.56
2022-11-15 21:18:47.7420,0.38,-0.39,0.11,0.55
2022-11-15 21:18:47.7620,0.34,-0.43,0.08,0.55
2022-11-15 21:18:47.7630,0.28,-0.42,0.03,0.5
2022-11-15 21:18:47.7780,0.25,-0.39,-0.01,0.46
2022-11-15 21:18:47.7790,0.26,-0.36,-0.04,0.44
2022-11-15 21:18:47.7940,0.25,-0.35,-0.09,0.43
2022-11-15 21:18:47.7950,0.27,-0.36,-0.13,0.46
2022-11-15 21:18:47.8110,0.29,-0.36,-0.17,0.49
2022-11-15 21:18:47.8110,0.31,-0.35,-0.2,0.5
2022-11-15 21:18:47.8400,0.32,-0.32,-0.2,0.49
2022-11-15 21:18:47.8410,0.31,-0.26,-0.18,0.44
2022-11-15 21:18:47.8630,0.29,-0.2,-0.12,0.37
2022-11-15 21:18:47.8630,0.28,-0.13,-0.1,0.32
2022-11-15 21:18:47.8780,0.26,-0.07,-0.09,0.28
2022-11-15 21:18:47.8790,0.25,-0.03,-0.09,0.26
2022-11-15 21:18:47.8940,0.24,0.0,-0.08,0.25
2022-11-15 21:18:47.8950,0.25,0.06,-0.06,0.26
2022-11-15 21:18:47.9100,0.29,0.13,-0.02,0.31
2022-11-15 21:18:47.9110,0.29,0.2,0.01,0.35
2022-11-15 21:18:47.9410,0.26,0.23,0.07,0.35
2022-11-15 21:18:47.9410,0.19,0.22,0.08,0.3
2022-11-15 21:18:47.9620,0.14,0.2,0.09,0.26
2022-11-15 21:18:47.9630,0.07,0.14,0.06,0.16
2022-11-15 21:18:47.9780,-0.07,0.0,0.01,0.07
2022-11-15 21:18:47.9790,-0.23,-0.13,-0.02,0.26
2022-11-15 21:18:47.9940,-0.34,-0.19,-0.01,0.38
2022-11-15 21:18:47.9950,-0.39,-0.23,0.05,0.45
2022-11-15 21:18:48.0100,-0.49,-0.26,0.11,0.56
2022-11-15 21:18:48.0110,-0.59,-0.27,0.13,0.66
2022-11-15 21:18:48.0420,-0.64,-0.23,0.12,0.69
2022-11-15 21:18:48.0430,-0.66,-0.15,0.08,0.68
2022-11-15 21:18:48.0620,-0.64,0.02,0.08,0.64
2022-11-15 21:18:48.0630,-0.6,0.11,0.07,0.61
2022-11-15 21:18:48.0780,-0.59,0.18,0.05,0.61
2022-11-15 21:18:48.0790,-0.58,0.19,0.03,0.61
2022-11-15 21:18:48.0940,-0.58,0.14,-0.01,0.59
2022-11-15 21:18:48.0950,-0.59,0.13,-0.11,0.61
2022-11-15 21:18:48.1100,-0.64,0.11,-0.24,0.69
2022-11-15 21:18:48.1110,-0.61,0.15,-0.32,0.7
2022-11-15 21:18:48.1400,-0.5,0.2,-0.33,0.63
2022-11-15 21:18:48.1410,-0.39,0.22,-0.31,0.54
2022-11-15 21:18:48.1620,-0.28,0.2,-0.21,0.4
2022-11-15 21:18:48.1630,-0.13,0.22,0.0,0.25
2022-11-15 21:18:48.1780,-0.03,0.17,0.19,0.25
2022-11-15 21:18:48.1790,-0.03,0.06,0.31,0.31
2022-11-15 21:18:48.1940,0.0,-0.01,0.32,0.32
2022-11-15 21:18:48.1950,0.01,-0.05,0.29,0.29
2022-11-15 21:18:48.2100,0.01,-0.01,0.26,0.26
2022-11-15 21:18:48.2110,0.04,-0.01,0.2,0.2
2022-11-15 21:18:48.2410,0.06,-0.09,0.13,0.16
2022-11-15 21:18:48.2420,0.01,-0.09,0.13,0.15
2022-11-15 21:18:48.2620,0.02,-0.13,0.04,0.13
2022-11-15 21:18:48.2630,0.11,-0.11,-0.07,0.17
2022-11-15 21:18:48.2780,0.14,-0.1,-0.14,0.22
2022-11-15 21:18:48.2780,0.06,-0.15,-0.18,0.24
2022-11-15 21:18:48.2940,0.04,0.16,-0.07,0.17
2022-11-15 21:18:48.2950,-0.16,0.18,-0.02,0.24
2022-11-15 21:18:48.3100,-0.32,0.13,-0.05,0.34
2022-11-15 21:18:48.3110,-0.26,0.16,-0.11,0.32
2022-11-15 21:18:48.3420,-0.19,0.21,-0.13,0.31
2022-11-15 21:18:48.3430,-0.19,0.25,-0.12,0.33
2022-11-15 21:18:48.3620,-0.19,0.26,-0.11,0.34
2022-11-15 21:18:48.3630,-0.2,0.23,-0.08,0.31
2022-11-15 21:18:48.3780,-0.21,0.18,-0.01,0.27
2022-11-15 21:18:48.3790,-0.18,0.1,0.04,0.2
2022-11-15 21:18:48.3940,-0.15,0.05,0.08,0.17
2022-11-15 21:18:48.3950,-0.14,0.03,0.13,0.19
2022-11-15 21:18:48.4100,-0.14,0.01,0.14,0.19
2022-11-15 21:18:48.4110,-0.09,-0.04,0.1,0.14
2022-11-15 21:18:48.4410,-0.04,-0.11,0.06,0.13
2022-11-15 21:18:48.4420,-0.03,-0.21,0.0,0.21
2022-11-15 21:18:48.4620,0.08,-0.29,-0.02,0.3
2022-11-15 21:18:48.4630,0.17,-0.39,-0.04,0.42
2022-11-15 21:18:48.4780,0.23,-0.43,-0.02,0.48
2022-11-15 21:18:48.4780,0.31,-0.4,-0.03,0.5
2022-11-15 21:18:48.4940,0.34,-0.38,-0.1,0.51
2022-11-15 21:18:48.4950,0.37,-0.33,-0.2,0.53
2022-11-15 21:18:48.5100,0.38,-0.25,-0.25,0.51
2022-11-15 21:18:48.5110,0.36,-0.2,-0.24,0.47
2022-11-15 21:18:48.5410,0.32,-0.16,-0.18,0.4
2022-11-15 21:18:48.5420,0.31,-0.14,-0.1,0.35
2022-11-15 21:18:48.5630,0.28,-0.14,-0.02,0.31
2022-11-15 21:18:48.5630,0.25,-0.18,0.01,0.3
2022-11-15 21:18:48.5780,0.21,-0.23,0.04,0.31
2022-11-15 21:18:48.5790,0.16,-0.26,0.04,0.3
2022-11-15 21:18:48.5930,0.14,-0.29,0.04,0.32
2022-11-15 21:18:48.5940,0.12,-0.31,0.02,0.33
2022-11-15 21:18:48.6100,0.06,-0.33,0.01,0.33
2022-11-15 21:18:48.6110,0.01,-0.35,0.03,0.35
2022-11-15 21:18:48.6410,-0.03,-0.37,0.05,0.37
2022-11-15 21:18:48.6420,-0.03,-0.33,0.06,0.33
2022-11-15 21:18:48.6630,-0.04,-0.24,0.07,0.25
2022-11-15 21:18:48.6630,-0.04,-0.12,0.07,0.14
2022-11-15 21:18:48.6780,-0.06,0.02,0.07,0.09
2022-11-15 21:18:48.6780,-0.09,0.12,0.08,0.17
2022-11-15 21:18:48.6940,-0.12,0.19,0.07,0.23
2022-11-15 21:18:48.6950,-0.17,0.19,0.05,0.25
2022-11-15 21:18:48.7100,-0.23,0.14,0.02,0.27
2022-11-15 21:18:48.7110,-0.3,0.09,0.01,0.31
2022-11-15 21:18:48.7410,-0.35,0.03,-0.04,0.35
2022-11-15 21:18:48.7420,-0.38,-0.02,-0.09,0.39
2022-11-15 21:18:48.7630,-0.35,-0.06,-0.17,0.39
2022-11-15 21:18:48.7630,-0.29,-0.08,-0.25,0.39
2022-11-15 21:18:48.7780,-0.23,-0.11,-0.28,0.37
2022-11-15 21:18:48.7790,-0.2,-0.13,-0.29,0.37
2022-11-15 21:18:48.7940,-0.17,-0.15,-0.31,0.38
2022-11-15 21:18:48.7950,-0.14,-0.15,-0.31,0.37
2022-11-15 21:18:48.8100,-0.07,-0.11,-0.28,0.3
2022-11-15 21:18:48.8110,0.0,-0.08,-0.23,0.24
2022-11-15 21:18:48.8410,0.03,-0.09,-0.19,0.21
2022-11-15 21:18:48.8420,0.04,-0.13,-0.16,0.21
2022-11-15 21:18:48.8630,0.1,-0.17,-0.12,0.23
2022-11-15 21:18:48.8630,0.19,-0.2,-0.1,0.29
2022-11-15 21:18:48.8780,0.28,-0.21,-0.08,0.35
2022-11-15 21:18:48.8780,0.36,-0.2,-0.05,0.41
2022-11-15 21:18:48.8940,0.39,-0.18,-0.02,0.43
2022-11-15 21:18:48.8950,0.41,-0.16,-0.01,0.44
2022-11-15 21:18:48.9100,0.44,-0.14,0.0,0.46
2022-11-15 21:18:48.9110,0.48,-0.1,-0.01,0.49
2022-11-15 21:18:48.9410,0.48,-0.08,-0.01,0.48
2022-11-15 21:18:48.9420,0.51,-0.06,-0.03,0.51
2022-11-15 21:18:48.9620,0.53,-0.01,-0.03,0.53
2022-11-15 21:18:48.9630,0.54,0.04,-0.03,0.54
2022-11-15 21:18:48.9780,0.53,0.07,-0.05,0.53
2022-11-15 21:18:48.9780,0.51,0.06,-0.05,0.51
2022-11-15 21:18:48.9930,0.48,0.02,-0.06,0.48
2022-11-15 21:18:48.9940,0.46,-0.02,-0.07,0.46
2022-11-15 21:18:49.0110,0.44,-0.07,-0.09,0.45
2022-11-15 21:18:49.0120,0.37,-0.07,-0.11,0.39
2022-11-15 21:18:49.0420,0.32,-0.06,-0.1,0.34
2022-11-15 21:18:49.0420,0.28,-0.08,-0.07,0.29
2022-11-15 21:18:49.0620,0.26,-0.08,-0.06,0.27
2022-11-15 21:18:49.0630,0.22,-0.1,-0.07,0.25
2022-11-15 21:18:49.0780,0.17,-0.08,-0.08,0.2
2022-11-15 21:18:49.0780,0.12,-0.06,-0.07,0.15
2022-11-15 21:18:49.0940,0.06,-0.05,-0.08,0.11
2022-11-15 21:18:49.0950,-0.02,-0.01,-0.09,0.09
2022-11-15 21:18:49.1100,-0.08,0.03,-0.09,0.12
2022-11-15 21:18:49.1110,-0.17,0.07,-0.09,0.2
2022-11-15 21:18:49.1410,-0.23,0.07,-0.07,0.25
2022-11-15 21:18:49.1410,-0.28,0.06,-0.07,0.29
2022-11-15 21:18:49.1620,-0.31,0.05,-0.06,0.31
2022-11-15 21:18:49.1630,-0.34,0.05,-0.07,0.35
2022-11-15 21:18:49.1780,-0.34,0.05,-0.05,0.34
2022-11-15 21:18:49.1790,-0.34,0.03,-0.04,0.34
2022-11-15 21:18:49.1930,-0.33,0.0,-0.01,0.33
2022-11-15 21:18:49.1940,-0.32,-0.04,-0.01,0.32
2022-11-15 21:18:49.1950,-0.31,-0.06,-0.02,0.31
2022-11-15 21:18:49.2100,-0.28,-0.09,-0.05,0.29
2022-11-15 21:18:49.2400,-0.25,-0.09,-0.08,0.27
2022-11-15 21:18:49.2410,-0.24,-0.08,-0.12,0.27
2022-11-15 21:18:49.2630,-0.25,-0.08,-0.17,0.31
2022-11-15 21:18:49.2630,-0.25,-0.08,-0.21,0.33
2022-11-15 21:18:49.2780,-0.23,-0.08,-0.23,0.33
2022-11-15 21:18:49.2780,-0.21,-0.05,-0.24,0.32
2022-11-15 21:18:49.2940,-0.18,-0.01,-0.2,0.26
2022-11-15 21:18:49.2940,-0.18,0.02,-0.15,0.23
2022-11-15 21:18:49.3100,-0.24,0.03,-0.12,0.26
2022-11-15 21:18:49.3110,-0.31,0.02,-0.1,0.32
2022-11-15 21:18:49.3400,-0.37,0.0,-0.1,0.38
2022-11-15 21:18:49.3410,-0.41,-0.04,-0.11,0.42
2022-11-15 21:18:49.3620,-0.43,-0.07,-0.11,0.44
2022-11-15 21:18:49.3630,-0.4,-0.06,-0.1,0.41
2022-11-15 21:18:49.3780,-0.35,-0.04,-0.1,0.36
2022-11-15 21:18:49.3780,-0.3,0.0,-0.09,0.31
2022-11-15 21:18:49.3940,-0.25,0.04,-0.08,0.26
2022-11-15 21:18:49.3950,-0.23,0.06,-0.06,0.24
2022-11-15 21:18:49.4100,-0.2,0.07,-0.05,0.21
2022-11-15 21:18:49.4110,-0.17,0.06,-0.04,0.18
2022-11-15 21:18:49.4400,-0.16,0.03,-0.04,0.16
2022-11-15 21:18:49.4410,-0.15,0.01,-0.05,0.15
2022-11-15 21:18:49.4620,-0.12,-0.02,-0.07,0.14
2022-11-15 21:18:49.4630,-0.08,-0.04,-0.08,0.12
2022-11-15 21:18:49.4780,-0.05,-0.06,-0.08,0.11
2022-11-15 21:18:49.4790,-0.06,-0.08,-0.08,0.12
2022-11-15 21:18:49.4940,-0.07,-0.09,-0.1,0.15
2022-11-15 21:18:49.4950,-0.09,-0.09,-0.11,0.16
2022-11-15 21:18:49.5090,-0.1,-0.09,-0.13,0.18
2022-11-15 21:18:49.5100,-0.08,-0.08,-0.11,0.15
2022-11-15 21:18:49.5380,-0.06,-0.05,-0.07,0.1
2022-11-15 21:18:49.5390,-0.05,-0.02,-0.02,0.05
2022-11-15 21:18:49.5430,-0.05,0.01,0.02,0.05
2022-11-15 21:18:49.5620,-0.06,0.01,0.04,0.07
2022-11-15 21:18:49.5620,-0.05,0.0,0.02,0.05
2022-11-15 21:18:49.5770,-0.03,0.01,0.01,0.03
2022-11-15 21:18:49.5780,-0.02,0.0,0.02,0.02
2022-11-15 21:18:49.5940,-0.02,-0.03,0.03,0.04
2022-11-15 21:18:49.5950,-0.02,-0.04,0.07,0.08
2022-11-15 21:18:49.6100,0.0,-0.06,0.07,0.09
2022-11-15 21:18:49.6390,0.02,-0.08,0.1,0.12
2022-11-15 21:18:49.6400,0.06,-0.1,0.11,0.16
2022-11-15 21:18:49.6420,0.09,-0.12,0.13,0.19
2022-11-15 21:18:49.6610,0.11,-0.15,0.13,0.22
2022-11-15 21:18:49.6620,0.12,-0.19,0.11,0.25
2022-11-15 21:18:49.6770,0.14,-0.21,0.08,0.26
2022-11-15 21:18:49.6770,0.15,-0.21,0.07,0.26
2022-11-15 21:18:49.6930,0.17,-0.23,0.1,0.3
2022-11-15 21:18:49.6940,0.19,-0.24,0.13,0.33
2022-11-15 21:18:49.7100,0.2,-0.24,0.12,0.33
2022-11-15 21:18:49.7390,0.21,-0.22,0.08,0.31
2022-11-15 21:18:49.7400,0.21,-0.2,0.05,0.29
2022-11-15 21:18:49.7420,0.21,-0.18,0.03,0.27
2022-11-15 21:18:49.7610,0.23,-0.12,0.02,0.26
2022-11-15 21:18:49.7620,0.25,-0.06,0.04,0.26
2022-11-15 21:18:49.7770,0.25,0.0,0.08,0.26
2022-11-15 21:18:49.7770,0.26,0.03,0.09,0.27
2022-11-15 21:18:49.7930,0.28,0.05,0.08,0.29
2022-11-15 21:18:49.7940,0.28,0.06,0.1,0.3
2022-11-15 21:18:49.8100,0.25,0.04,0.1,0.27
2022-11-15 21:18:49.8390,0.17,0.02,0.09,0.19
2022-11-15 21:18:49.8400,0.07,-0.03,0.07,0.1
2022-11-15 21:18:49.8420,0.0,-0.06,0.04,0.07
2022-11-15 21:18:49.8610,-0.02,-0.06,0.01,0.06
2022-11-15 21:18:49.8620,0.0,-0.05,0.03,0.05
2022-11-15 21:18:49.8770,-0.01,-0.07,0.05,0.08
2022-11-15 21:18:49.8780,-0.05,-0.08,0.07,0.11
2022-11-15 21:18:49.8940,-0.05,-0.07,0.06,0.1
2022-11-15 21:18:49.8950,-0.04,-0.05,0.05,0.08
2022-11-15 21:18:49.9100,0.0,0.0,0.03,0.03
2022-11-15 21:18:49.9400,0.05,0.05,0.02,0.07
2022-11-15 21:18:49.9410,0.11,0.05,0.06,0.13
2022-11-15 21:18:49.9630,0.16,0.03,0.12,0.2
2022-11-15 21:18:49.9630,0.21,-0.01,0.17,0.27
2022-11-15 21:18:49.9780,0.23,-0.05,0.2,0.3
2022-11-15 21:18:49.9790,0.24,-0.09,0.19,0.31
2022-11-15 21:18:49.9940,0.21,-0.11,0.14,0.27
2022-11-15 21:18:49.9950,0.2,-0.13,0.11,0.26
2022-11-15 21:18:50.0100,0.21,-0.16,0.09,0.27
2022-11-15 21:18:50.0110,0.2,-0.17,0.05,0.26
2022-11-15 21:18:50.0410,0.18,-0.2,0.03,0.27
2022-11-15 21:18:50.0420,0.19,-0.25,0.0,0.31
2022-11-15 21:18:50.0620,0.21,-0.28,0.0,0.35
2022-11-15 21:18:50.0630,0.23,-0.3,0.01,0.37
2022-11-15 21:18:50.0780,0.26,-0.29,-0.01,0.38
2022-11-15 21:18:50.0780,0.29,-0.26,-0.03,0.39
2022-11-15 21:18:50.0940,0.31,-0.23,-0.03,0.38
2022-11-15 21:18:50.0950,0.32,-0.18,-0.05,0.37
2022-11-15 21:18:50.1100,0.34,-0.14,-0.05,0.37
2022-11-15 21:18:50.1110,0.37,-0.09,-0.03,0.38
2022-11-15 21:18:50.1390,0.37,-0.06,-0.01,0.37
2022-11-15 21:18:50.1390,0.33,-0.03,0.02,0.33
2022-11-15 21:18:50.1420,0.28,0.0,0.02,0.28
2022-11-15 21:18:50.1610,0.21,0.01,0.0,0.21
2022-11-15 21:18:50.1620,0.13,0.02,-0.01,0.13
2022-11-15 21:18:50.1770,0.04,0.03,-0.01,0.05
2022-11-15 21:18:50.1770,-0.06,0.03,0.0,0.06
2022-11-15 21:18:50.1940,-0.16,0.01,0.01,0.16
2022-11-15 21:18:50.1950,-0.26,-0.01,-0.01,0.26
2022-11-15 21:18:50.2100,-0.31,-0.04,0.0,0.31
2022-11-15 21:18:50.2400,-0.32,-0.05,0.0,0.32
2022-11-15 21:18:50.2410,-0.31,-0.04,-0.01,0.31
2022-11-15 21:18:50.2620,-0.28,-0.01,-0.01,0.28
2022-11-15 21:18:50.2630,-0.25,0.0,-0.03,0.25
2022-11-15 21:18:50.2780,-0.19,0.03,-0.06,0.2
2022-11-15 21:18:50.2790,-0.15,0.06,-0.07,0.17
2022-11-15 21:18:50.2940,-0.11,0.07,-0.08,0.15
2022-11-15 21:18:50.2940,-0.06,0.05,-0.1,0.12
2022-11-15 21:18:50.3100,-0.04,0.04,-0.08,0.09
2022-11-15 21:18:50.3110,-0.03,0.0,-0.05,0.05
2022-11-15 21:18:50.3410,-0.01,-0.05,-0.06,0.07
2022-11-15 21:18:50.3420,0.02,-0.08,-0.06,0.1
2022-11-15 21:18:50.3630,0.06,-0.1,-0.09,0.14
2022-11-15 21:18:50.3640,0.1,-0.1,-0.13,0.19
2022-11-15 21:18:50.3780,0.14,-0.09,-0.16,0.23
2022-11-15 21:18:50.3790,0.16,-0.11,-0.19,0.27
2022-11-15 21:18:50.3930,0.15,-0.16,-0.19,0.29
2022-11-15 21:18:50.3940,0.13,-0.21,-0.15,0.28
2022-11-15 21:18:50.4100,0.09,-0.26,-0.14,0.3
2022-11-15 21:18:50.4110,0.12,-0.27,-0.15,0.33
2022-11-15 21:18:50.4420,0.14,-0.26,-0.18,0.34
2022-11-15 21:18:50.4430,0.16,-0.24,-0.21,0.35
2022-11-15 21:18:50.4620,0.16,-0.25,-0.18,0.34
2022-11-15 21:18:50.4630,0.12,-0.22,-0.14,0.28
2022-11-15 21:18:50.4780,0.09,-0.18,-0.1,0.22
2022-11-15 21:18:50.4790,0.05,-0.13,-0.07,0.15
2022-11-15 21:18:50.4940,-0.02,-0.1,-0.04,0.1
2022-11-15 21:18:50.4940,-0.1,-0.1,0.01,0.14
2022-11-15 21:18:50.5100,-0.2,-0.14,0.03,0.24
2022-11-15 21:18:50.5110,-0.27,-0.21,0.03,0.34
2022-11-15 21:18:50.5410,-0.31,-0.31,0.03,0.43
2022-11-15 21:18:50.5420,-0.33,-0.42,0.02,0.53
2022-11-15 21:18:50.5620,-0.31,-0.51,0.02,0.59
2022-11-15 21:18:50.5630,-0.3,-0.56,0.02,0.63
2022-11-15 21:18:50.5770,-0.3,-0.6,0.01,0.67
2022-11-15 21:18:50.5780,-0.31,-0.62,-0.02,0.69
2022-11-15 21:18:50.5930,-0.32,-0.6,-0.04,0.68
2022-11-15 21:18:50.5940,-0.34,-0.57,-0.05,0.66
2022-11-15 21:18:50.6100,-0.31,-0.52,-0.07,0.6
2022-11-15 21:18:50.6110,-0.24,-0.44,-0.09,0.5
2022-11-15 21:18:50.6410,-0.2,-0.35,-0.1,0.41
2022-11-15 21:18:50.6420,-0.23,-0.26,-0.15,0.37
2022-11-15 21:18:50.6620,-0.28,-0.15,-0.23,0.39
2022-11-15 21:18:50.6630,-0.36,-0.05,-0.33,0.49
2022-11-15 21:18:50.6780,-0.45,0.04,-0.42,0.61
2022-11-15 21:18:50.6790,-0.49,0.14,-0.5,0.71
2022-11-15 21:18:50.6930,-0.5,0.24,-0.52,0.76
2022-11-15 21:18:50.6940,-0.5,0.36,-0.54,0.81
2022-11-15 21:18:50.7100,-0.49,0.5,-0.55,0.89
2022-11-15 21:18:50.7110,-0.49,0.64,-0.48,0.93
2022-11-15 21:18:50.7420,-0.51,0.79,-0.34,0.99
2022-11-15 21:18:50.7430,-0.54,0.94,-0.18,1.09
2022-11-15 21:18:50.7620,-0.58,1.07,0.03,1.21
2022-11-15 21:18:50.7630,-0.56,1.17,0.25,1.32
2022-11-15 21:18:50.7780,-0.5,1.23,0.47,1.4
2022-11-15 21:18:50.7790,-0.37,1.22,0.65,1.43
2022-11-15 21:18:50.7940,-0.31,1.16,0.81,1.44
2022-11-15 21:18:50.7950,-0.28,1.05,0.95,1.44
2022-11-15 21:18:50.8100,-0.23,0.92,1.02,1.39
2022-11-15 21:18:50.8110,-0.14,0.77,1.02,1.28
2022-11-15 21:18:50.8420,-0.03,0.58,0.96,1.12
2022-11-15 21:18:50.8430,0.06,0.48,0.9,1.02
2022-11-15 21:18:50.8620,0.17,0.52,0.77,0.94
2022-11-15 21:18:50.8630,0.28,0.63,0.57,0.89
2022-11-15 21:18:50.8780,0.29,0.68,0.32,0.8
2022-11-15 21:18:50.8790,0.23,0.7,0.16,0.75
2022-11-15 21:18:50.8940,0.17,0.67,0.13,0.7
2022-11-15 21:18:50.8940,0.08,0.59,0.24,0.64
2022-11-15 21:18:50.9100,0.05,0.48,0.39,0.62
2022-11-15 21:18:50.9110,0.04,0.36,0.51,0.62
2022-11-15 21:18:50.9420,0.05,0.15,0.6,0.62
2022-11-15 21:18:50.9430,0.06,-0.08,0.66,0.66
2022-11-15 21:18:50.9620,0.06,-0.36,0.7,0.78
2022-11-15 21:18:50.9630,0.11,-0.7,0.72,1.01
2022-11-15 21:18:50.9770,0.21,-1.08,0.76,1.33
2022-11-15 21:18:50.9780,0.32,-1.41,0.7,1.6
2022-11-15 21:18:50.9940,0.41,-1.56,0.46,1.67
2022-11-15 21:18:50.9950,0.55,-1.5,0.06,1.59
2022-11-15 21:18:51.0100,0.76,-1.32,-0.43,1.58
2022-11-15 21:18:51.0110,0.9,-1.13,-0.88,1.69
2022-11-15 21:18:51.0420,0.78,-0.96,-1.13,1.67
2022-11-15 21:18:51.0430,0.54,-0.82,-1.12,1.48
2022-11-15 21:18:51.0620,0.32,-0.73,-0.96,1.24
2022-11-15 21:18:51.0630,0.25,-0.64,-0.73,1.0
2022-11-15 21:18:51.0780,0.2,-0.57,-0.5,0.78
2022-11-15 21:18:51.0790,0.09,-0.52,-0.34,0.62
2022-11-15 21:18:51.0940,-0.02,-0.45,-0.2,0.49
2022-11-15 21:18:51.0940,-0.13,-0.31,-0.04,0.33
2022-11-15 21:18:51.1100,-0.26,-0.14,0.12,0.31
2022-11-15 21:18:51.1110,-0.46,0.05,0.25,0.52
2022-11-15 21:18:51.1420,-0.69,0.23,0.36,0.81
2022-11-15 21:18:51.1430,-0.86,0.39,0.42,1.03
2022-11-15 21:18:51.1620,-0.94,0.53,0.47,1.17
2022-11-15 21:18:51.1630,-0.94,0.62,0.49,1.22
2022-11-15 21:18:51.1780,-0.92,0.71,0.46,1.24
2022-11-15 21:18:51.1780,-0.87,0.77,0.41,1.23
2022-11-15 21:18:51.1930,-0.82,0.77,0.32,1.16
2022-11-15 21:18:51.1940,-0.71,0.75,0.23,1.05
2022-11-15 21:18:51.2100,-0.58,0.66,0.11,0.88
2022-11-15 21:18:51.2110,-0.51,0.59,0.0,0.77
2022-11-15 21:18:51.2410,-0.49,0.48,-0.09,0.69
2022-11-15 21:18:51.2420,-0.45,0.36,-0.19,0.6
2022-11-15 21:18:51.2620,-0.43,0.25,-0.27,0.56
2022-11-15 21:18:51.2630,-0.41,0.17,-0.33,0.55
2022-11-15 21:18:51.2780,-0.4,0.08,-0.37,0.55
2022-11-15 21:18:51.2790,-0.38,0.0,-0.38,0.53
2022-11-15 21:18:51.2930,-0.35,-0.09,-0.38,0.52
2022-11-15 21:18:51.2940,-0.33,-0.19,-0.38,0.53
2022-11-15 21:18:51.3100,-0.33,-0.3,-0.38,0.58
2022-11-15 21:18:51.3110,-0.31,-0.38,-0.36,0.6
2022-11-15 21:18:51.3410,-0.26,-0.42,-0.36,0.61
2022-11-15 21:18:51.3420,-0.21,-0.43,-0.36,0.59
2022-11-15 21:18:51.3620,-0.14,-0.38,-0.29,0.49
2022-11-15 21:18:51.3630,-0.08,-0.31,-0.17,0.36
2022-11-15 21:18:51.3780,-0.02,-0.22,-0.07,0.23
2022-11-15 21:18:51.3780,0.07,-0.12,0.0,0.13
2022-11-15 21:18:51.3940,0.12,-0.06,0.04,0.13
2022-11-15 21:18:51.3950,0.14,0.04,0.06,0.15
2022-11-15 21:18:51.4100,0.17,0.17,0.05,0.24
2022-11-15 21:18:51.4110,0.16,0.22,0.0,0.27
2022-11-15 21:18:51.4410,0.09,0.21,-0.01,0.22
2022-11-15 21:18:51.4420,0.08,0.15,0.0,0.17
2022-11-15 21:18:51.4620,0.15,0.14,0.02,0.2
2022-11-15 21:18:51.4630,0.16,0.1,-0.01,0.18
2022-11-15 21:18:51.4780,0.16,0.01,-0.07,0.17
2022-11-15 21:18:51.4790,0.1,-0.05,-0.12,0.16
2022-11-15 21:18:51.4930,-0.04,-0.16,-0.11,0.19
2022-11-15 21:18:51.4940,-0.16,-0.26,-0.08,0.31
2022-11-15 21:18:51.5100,-0.13,-0.3,-0.12,0.34
2022-11-15 21:18:51.5110,0.01,-0.25,-0.23,0.33
2022-11-15 21:18:51.5410,0.02,-0.23,-0.34,0.41
2022-11-15 21:18:51.5420,-0.02,-0.26,-0.33,0.42
2022-11-15 21:18:51.5620,-0.07,-0.3,-0.22,0.37
2022-11-15 21:18:51.5630,-0.1,-0.37,-0.08,0.39
2022-11-15 21:18:51.5780,-0.03,-0.38,-0.03,0.38
2022-11-15 21:18:51.5790,0.03,-0.32,-0.08,0.33
2022-11-15 21:18:51.5940,0.08,-0.17,-0.1,0.21
2022-11-15 21:18:51.5940,0.11,-0.02,0.01,0.11
2022-11-15 21:18:51.6100,0.14,0.11,0.04,0.18
2022-11-15 21:18:51.6110,0.2,0.19,-0.02,0.27
2022-11-15 21:18:51.6410,0.21,0.21,-0.04,0.29
2022-11-15 21:18:51.6410,0.22,0.19,-0.06,0.29
2022-11-15 21:18:51.6620,0.26,0.16,-0.13,0.33
2022-11-15 21:18:51.6630,0.29,0.13,-0.16,0.35
2022-11-15 21:18:51.6780,0.29,0.11,0.03,0.31
2022-11-15 21:18:51.6780,0.31,0.07,0.22,0.38
2022-11-15 21:18:51.6930,0.3,0.0,0.21,0.36
2022-11-15 21:18:51.6940,0.27,0.01,0.05,0.27
2022-11-15 21:18:51.7100,0.24,0.03,-0.01,0.24
2022-11-15 21:18:51.7110,0.2,0.05,0.02,0.2
2022-11-15 21:18:51.7420,0.15,0.07,0.06,0.17
2022-11-15 21:18:51.7430,0.06,0.06,0.19,0.2
2022-11-15 21:18:51.7620,-0.04,0.06,0.31,0.31
2022-11-15 21:18:51.7630,-0.03,0.01,0.29,0.29
2022-11-15 21:18:51.7780,0.03,-0.08,0.5,0.5
2022-11-15 21:18:51.7780,0.08,-0.25,0.73,0.77
2022-11-15 21:18:51.7930,0.3,-0.42,0.73,0.89
2022-11-15 21:18:51.7940,0.5,-0.5,0.72,1.0
2022-11-15 21:18:51.8100,0.58,-0.56,0.58,0.99
2022-11-15 21:18:51.8110,0.56,-0.55,0.44,0.89
2022-11-15 21:18:51.8410,0.46,-0.46,0.28,0.7
2022-11-15 21:18:51.8410,0.34,-0.33,0.18,0.5
2022-11-15 21:18:51.8620,0.22,-0.23,0.05,0.32
2022-11-15 21:18:51.8630,0.14,-0.16,-0.15,0.26
2022-11-15 21:18:51.8780,0.08,-0.16,-0.32,0.36
2022-11-15 21:18:51.8790,0.05,-0.17,-0.45,0.48
2022-11-15 21:18:51.8930,0.04,-0.2,-0.58,0.61
2022-11-15 21:18:51.8940,0.01,-0.2,-0.62,0.65
2022-11-15 21:18:51.9100,-0.01,-0.2,-0.6,0.63
2022-11-15 21:18:51.9110,-0.01,-0.21,-0.51,0.55
2022-11-15 21:18:51.9410,-0.02,-0.21,-0.42,0.47
2022-11-15 21:18:51.9410,0.0,-0.17,-0.32,0.36
2022-11-15 21:18:51.9620,0.07,-0.05,-0.21,0.22
2022-11-15 21:18:51.9630,0.16,0.1,-0.14,0.23
2022-11-15 21:18:51.9780,0.26,0.22,-0.1,0.35
2022-11-15 21:18:51.9780,0.4,0.31,-0.07,0.51
2022-11-15 21:18:51.9930,0.55,0.3,-0.03,0.62
2022-11-15 21:18:51.9940,0.65,0.24,0.03,0.69
2022-11-15 21:18:52.0100,0.66,0.2,0.12,0.7
2022-11-15 21:18:52.0110,0.66,0.17,0.23,0.71
2022-11-15 21:18:52.0410,0.6,0.11,0.3,0.67
2022-11-15 21:18:52.0420,0.5,0.03,0.3,0.58
2022-11-15 21:18:52.0620,0.41,-0.1,0.26,0.49
2022-11-15 21:18:52.0620,0.38,-0.25,0.22,0.5
2022-11-15 21:18:52.0780,0.24,-0.46,0.22,0.56
2022-11-15 21:18:52.0780,0.11,-0.68,0.19,0.71
2022-11-15 21:18:52.0930,0.03,-0.83,0.14,0.84
2022-11-15 21:18:52.0940,0.01,-0.87,0.09,0.87
2022-11-15 21:18:52.1100,0.01,-0.83,-0.01,0.83
2022-11-15 21:18:52.1110,0.09,-0.73,-0.15,0.75
2022-11-15 21:18:52.1410,0.25,-0.61,-0.25,0.7
2022-11-15 21:18:52.1420,0.42,-0.47,-0.36,0.72
2022-11-15 21:18:52.1620,0.62,-0.3,-0.41,0.8
2022-11-15 21:18:52.1630,0.91,-0.17,-0.38,1.0
2022-11-15 21:18:52.1780,1.2,-0.07,-0.32,1.24
2022-11-15 21:18:52.1790,1.41,-0.03,-0.28,1.43
2022-11-15 21:18:52.1940,1.59,-0.08,-0.31,1.62
2022-11-15 21:18:52.1940,1.82,-0.21,-0.41,1.87
2022-11-15 21:18:52.2100,2.01,-0.34,-0.53,2.1
2022-11-15 21:18:52.2110,2.05,-0.51,-0.65,2.21
2022-11-15 21:18:52.2400,1.88,-0.73,-0.85,2.18
2022-11-15 21:18:52.2410,1.53,-0.94,-1.12,2.11
2022-11-15 21:18:52.2620,1.23,-1.03,-1.41,2.13
2022-11-15 21:18:52.2630,0.88,-1.06,-1.61,2.11
2022-11-15 21:18:52.2780,0.39,-1.05,-1.68,2.01
2022-11-15 21:18:52.2790,-0.02,-1.06,-1.65,1.96
2022-11-15 21:18:52.2940,-0.28,-1.0,-1.53,1.84
2022-11-15 21:18:52.2940,-0.44,-0.82,-1.46,1.73
2022-11-15 21:18:52.3100,-0.43,-0.47,-1.44,1.57
2022-11-15 21:18:52.3110,-0.39,0.0,-1.3,1.35
2022-11-15 21:18:52.3410,-0.45,0.48,-1.01,1.2
2022-11-15 21:18:52.3420,-0.61,0.92,-0.59,1.25
2022-11-15 21:18:52.3640,-0.74,1.25,-0.14,1.45
2022-11-15 21:18:52.3650,-0.76,1.4,0.27,1.61
2022-11-15 21:18:52.3780,-0.69,1.36,0.6,1.63
2022-11-15 21:18:52.3790,-0.56,1.19,0.84,1.56
2022-11-15 21:18:52.3940,-0.42,0.95,0.92,1.38
2022-11-15 21:18:52.3950,-0.34,0.75,0.73,1.1
2022-11-15 21:18:52.4100,-0.22,0.62,0.39,0.76
2022-11-15 21:18:52.4110,-0.1,0.52,0.0,0.52
2022-11-15 21:18:52.4410,-0.01,0.37,-0.38,0.53
2022-11-15 21:18:52.4420,0.12,0.24,-0.68,0.73
2022-11-15 21:18:52.4620,0.27,0.18,-0.93,0.98
2022-11-15 21:18:52.4620,0.37,0.15,-1.07,1.14
2022-11-15 21:18:52.4780,0.35,0.1,-1.01,1.07
2022-11-15 21:18:52.4790,0.19,-0.02,-0.76,0.78
2022-11-15 21:18:52.4940,-0.07,-0.24,-0.45,0.51
2022-11-15 21:18:52.4950,-0.35,-0.47,-0.18,0.61
2022-11-15 21:18:52.5100,-0.67,-0.66,-0.03,0.94
2022-11-15 21:18:52.5110,-0.97,-0.76,0.04,1.23
2022-11-15 21:18:52.5400,-1.2,-0.77,0.04,1.42
2022-11-15 21:18:52.5410,-1.32,-0.71,-0.05,1.49
2022-11-15 21:18:52.5620,-1.28,-0.51,-0.17,1.38
2022-11-15 21:18:52.5620,-1.15,-0.16,-0.17,1.17
2022-11-15 21:18:52.5780,-0.96,0.22,-0.01,0.98
2022-11-15 21:18:52.5790,-0.85,0.52,0.23,1.02
2022-11-15 21:18:52.5930,-0.84,0.69,0.48,1.18
2022-11-15 21:18:52.5940,-0.88,0.73,0.69,1.33
2022-11-15 21:18:52.6100,-0.98,0.68,0.87,1.47
2022-11-15 21:18:52.6110,-1.11,0.6,1.0,1.61
2022-11-15 21:18:52.6400,-1.17,0.55,0.99,1.62
2022-11-15 21:18:52.6400,-1.2,0.51,0.96,1.61
2022-11-15 21:18:52.6620,-1.16,0.53,1.0,1.62
2022-11-15 21:18:52.6630,-1.04,0.6,1.07,1.6
2022-11-15 21:18:52.6780,-1.04,0.65,1.12,1.66
2022-11-15 21:18:52.6780,-1.15,0.7,1.23,1.82
2022-11-15 21:18:52.6930,-1.21,0.8,1.36,1.98
2022-11-15 21:18:52.6940,-1.2,0.94,1.51,2.14
2022-11-15 21:18:52.7100,-1.2,1.09,1.67,2.32
2022-11-15 21:18:52.7110,-1.16,1.18,1.77,2.42
2022-11-15 21:18:52.7400,-1.0,1.19,1.81,2.38
2022-11-15 21:18:52.7410,-0.83,1.02,1.81,2.23
2022-11-15 21:18:52.7620,-0.74,0.64,1.77,2.02
2022-11-15 21:18:52.7630,-0.69,0.12,1.63,1.77
2022-11-15 21:18:52.7770,-0.54,-0.44,1.22,1.4
2022-11-15 21:18:52.7780,-0.33,-0.83,0.71,1.14
2022-11-15 21:18:52.7930,-0.1,-1.04,0.18,1.06
2022-11-15 21:18:52.7940,0.21,-1.12,-0.34,1.18
2022-11-15 21:18:52.8100,0.49,-1.14,-0.8,1.47
2022-11-15 21:18:52.8110,0.62,-1.13,-1.01,1.63
2022-11-15 21:18:52.8410,0.6,-1.13,-1.03,1.64
2022-11-15 21:18:52.8410,0.49,-1.06,-0.87,1.45
2022-11-15 21:18:52.8620,0.42,-0.83,-0.71,1.17
2022-11-15 21:18:52.8630,0.28,-0.52,-0.59,0.83
2022-11-15 21:18:52.8780,0.06,-0.18,-0.45,0.48
2022-11-15 21:18:52.8790,-0.16,0.08,-0.25,0.3
2022-11-15 21:18:52.8930,-0.37,0.22,0.05,0.43
2022-11-15 21:18:52.8940,-0.56,0.23,0.4,0.72
2022-11-15 21:18:52.9100,-0.69,0.17,0.7,0.99
2022-11-15 21:18:52.9110,-0.69,0.06,0.91,1.14
2022-11-15 21:18:52.9400,-0.57,-0.04,1.01,1.16
2022-11-15 21:18:52.9410,-0.37,-0.07,0.98,1.04
2022-11-15 21:18:52.9620,-0.14,0.01,0.92,0.93
2022-11-15 21:18:52.9630,-0.03,0.14,0.87,0.88
2022-11-15 21:18:52.9780,0.04,0.28,0.77,0.82
2022-11-15 21:18:52.9780,0.08,0.38,0.64,0.74
2022-11-15 21:18:52.9930,0.06,0.41,0.5,0.64
2022-11-15 21:18:52.9940,0.05,0.4,0.38,0.55
2022-11-15 21:18:53.0100,0.02,0.31,0.23,0.38
2022-11-15 21:18:53.0110,0.0,0.17,0.06,0.18
2022-11-15 21:18:53.0400,-0.01,0.02,-0.14,0.14
2022-11-15 21:18:53.0410,-0.01,-0.12,-0.31,0.33
2022-11-15 21:18:53.0620,0.02,-0.2,-0.45,0.49
2022-11-15 21:18:53.0630,0.08,-0.23,-0.55,0.6
2022-11-15 21:18:53.0780,0.12,-0.25,-0.6,0.66
2022-11-15 21:18:53.0790,0.09,-0.27,-0.62,0.68
2022-11-15 21:18:53.0920,0.07,-0.28,-0.59,0.65
2022-11-15 21:18:53.0930,0.08,-0.28,-0.55,0.62
2022-11-15 21:18:53.1090,0.1,-0.28,-0.52,0.59
2022-11-15 21:18:53.1100,0.12,-0.28,-0.47,0.56
2022-11-15 21:18:53.1380,0.12,-0.27,-0.39,0.48
2022-11-15 21:18:53.1390,0.12,-0.23,-0.31,0.4
2022-11-15 21:18:53.1420,0.12,-0.16,-0.17,0.26
2022-11-15 21:18:53.1430,0.13,-0.07,-0.03,0.15
2022-11-15 21:18:53.1610,0.13,0.01,0.11,0.17
2022-11-15 21:18:53.1620,0.1,0.06,0.2,0.23
2022-11-15 21:18:53.1770,0.1,0.11,0.24,0.28
2022-11-15 21:18:53.1780,0.08,0.12,0.23,0.27
2022-11-15 21:18:53.1930,0.06,0.11,0.16,0.2
2022-11-15 21:18:53.1940,0.04,0.07,0.06,0.1
2022-11-15 21:18:53.2210,0.03,0.03,-0.04,0.05
2022-11-15 21:18:53.2220,0.03,-0.02,-0.1,0.1
2022-11-15 21:18:53.2280,0.04,-0.06,-0.14,0.15
2022-11-15 21:18:53.2280,0.09,-0.1,-0.2,0.24
2022-11-15 21:18:53.2440,0.09,-0.14,-0.25,0.3
2022-11-15 21:18:53.2450,0.06,-0.18,-0.3,0.35
2022-11-15 21:18:53.2600,0.04,-0.18,-0.31,0.36
2022-11-15 21:18:53.2610,-0.01,-0.19,-0.24,0.3
2022-11-15 21:18:53.2770,-0.07,-0.2,-0.21,0.29
2022-11-15 21:18:53.2780,-0.05,-0.17,-0.26,0.31
2022-11-15 21:18:53.3040,-0.05,-0.13,-0.24,0.27
2022-11-15 21:18:53.3050,-0.03,-0.1,-0.18,0.2
2022-11-15 21:18:53.3100,-0.01,-0.07,-0.09,0.11
2022-11-15 21:18:53.3100,0.02,-0.05,0.01,0.05
2022-11-15 21:18:53.3280,0.02,-0.04,0.06,0.07
2022-11-15 21:18:53.3290,0.02,-0.03,0.08,0.08
2022-11-15 21:18:53.3440,0.02,-0.02,0.06,0.06
2022-11-15 21:18:53.3440,0.02,0.01,0.07,0.07
2022-11-15 21:18:53.3600,0.03,0.04,0.06,0.07
2022-11-15 21:18:53.3610,0.04,0.06,0.05,0.08
2022-11-15 21:18:53.3880,0.05,0.06,0.02,0.08
2022-11-15 21:18:53.3890,0.07,0.05,-0.02,0.08
2022-11-15 21:18:53.3940,0.08,0.06,-0.06,0.11
2022-11-15 21:18:53.3950,0.09,0.04,-0.1,0.14
2022-11-15 21:18:53.4110,0.09,0.01,-0.14,0.16
2022-11-15 21:18:53.4110,0.11,-0.02,-0.16,0.19
2022-11-15 21:18:53.4270,0.1,-0.07,-0.12,0.17
2022-11-15 21:18:53.4270,0.08,-0.12,-0.09,0.17
2022-11-15 21:18:53.4430,0.07,-0.14,-0.05,0.16
2022-11-15 21:18:53.4440,0.05,-0.18,0.03,0.18
2022-11-15 21:18:53.4710,0.02,-0.23,0.12,0.26
2022-11-15 21:18:53.4720,0.03,-0.26,0.16,0.3
2022-11-15 21:18:53.4750,0.04,-0.27,0.17,0.32
2022-11-15 21:18:53.4760,0.06,-0.21,0.18,0.28
2022-11-15 21:18:53.4940,0.09,-0.17,0.17,0.25
2022-11-15 21:18:53.4950,0.1,-0.12,0.1,0.18
2022-11-15 21:18:53.5100,0.05,-0.1,0.04,0.11
2022-11-15 21:18:53.5110,0.0,-0.08,0.0,0.08
2022-11-15 21:18:53.5270,-0.05,-0.07,0.0,0.08
2022-11-15 21:18:53.5270,0.0,-0.04,0.01,0.04
2022-11-15 21:18:53.5550,0.06,-0.02,0.07,0.09
2022-11-15 21:18:53.5560,0.08,-0.01,0.12,0.14
2022-11-15 21:18:53.5600,0.06,-0.01,0.14,0.15
2022-11-15 21:18:53.5600,0.04,-0.01,0.08,0.09
2022-11-15 21:18:53.5770,0.02,0.0,0.02,0.02
2022-11-15 21:18:53.5780,-0.03,-0.01,0.0,0.03
2022-11-15 21:18:53.5930,-0.05,0.01,0.04,0.06
2022-11-15 21:18:53.5940,-0.05,0.03,0.04,0.07
2022-11-15 21:18:53.6100,-0.1,0.03,0.08,0.13
2022-11-15 21:18:53.6110,-0.14,0.05,0.11,0.18
2022-11-15 21:18:53.6380,-0.14,0.06,0.17,0.22
2022-11-15 21:18:53.6390,-0.16,0.05,0.2,0.26
2022-11-15 21:18:53.6440,-0.19,0.03,0.18,0.26
2022-11-15 21:18:53.6440,-0.19,0.03,0.11,0.22
2022-11-15 21:18:53.6600,-0.26,0.04,0.07,0.27
2022-11-15 21:18:53.6610,-0.29,0.03,0.02,0.29
2022-11-15 21:18:53.6770,-0.29,0.04,0.01,0.29
2022-11-15 21:18:53.6770,-0.33,0.03,0.04,0.33
2022-11-15 21:18:53.6930,-0.34,0.01,0.05,0.34
2022-11-15 21:18:53.6940,-0.34,0.01,0.03,0.34
2022-11-15 21:18:53.7210,-0.32,0.04,0.0,0.32
2022-11-15 21:18:53.7210,-0.31,0.07,-0.01,0.31
2022-11-15 21:18:53.7280,-0.32,0.08,0.05,0.33
2022-11-15 21:18:53.7280,-0.33,0.08,0.09,0.35
2022-11-15 21:18:53.7440,-0.32,0.08,0.12,0.35
2022-11-15 21:18:53.7450,-0.31,0.06,0.14,0.34
2022-11-15 21:18:53.7600,-0.29,0.05,0.12,0.31
2022-11-15 21:18:53.7610,-0.25,0.05,0.1,0.27
2022-11-15 21:18:53.7760,-0.22,0.05,0.11,0.25
2022-11-15 21:18:53.7770,-0.21,0.04,0.12,0.24
2022-11-15 21:18:53.8040,-0.21,0.05,0.14,0.25
2022-11-15 21:18:53.8050,-0.2,0.05,0.15,0.25
2022-11-15 21:18:53.8090,-0.17,0.1,0.15,0.24
2022-11-15 21:18:53.8100,-0.16,0.13,0.11,0.23
2022-11-15 21:18:53.8100,-0.16,0.15,0.09,0.23
2022-11-15 21:18:53.8270,-0.19,0.11,0.09,0.23
2022-11-15 21:18:53.8280,-0.18,0.03,0.08,0.19
2022-11-15 21:18:53.8430,-0.14,-0.02,0.06,0.15
2022-11-15 21:18:53.8440,-0.11,-0.06,0.0,0.12
2022-11-15 21:18:53.8600,-0.07,-0.06,-0.01,0.09
2022-11-15 21:18:53.8870,-0.02,-0.06,-0.03,0.06
2022-11-15 21:18:53.8870,0.02,-0.06,-0.02,0.06
2022-11-15 21:18:53.8920,0.07,-0.08,-0.01,0.1
2022-11-15 21:18:53.8920,0.08,-0.09,0.05,0.13
2022-11-15 21:18:53.9110,0.08,-0.12,0.06,0.15
2022-11-15 21:18:53.9120,0.07,-0.12,0.01,0.13
2022-11-15 21:18:53.9260,0.05,-0.12,0.0,0.13
2022-11-15 21:18:53.9270,0.0,-0.16,0.06,0.17
2022-11-15 21:18:53.9430,-0.02,-0.14,0.07,0.15
2022-11-15 21:18:53.9440,-0.04,-0.11,0.03,0.12
2022-11-15 21:18:53.9720,-0.07,-0.07,-0.01,0.09
2022-11-15 21:18:53.9730,-0.06,-0.09,-0.01,0.1
2022-11-15 21:18:53.9750,-0.05,-0.12,0.07,0.14
2022-11-15 21:18:53.9940,0.0,-0.12,0.16,0.2
2022-11-15 21:18:53.9950,0.02,-0.11,0.16,0.19
2022-11-15 21:18:54.0100,0.02,-0.08,0.09,0.12
2022-11-15 21:18:54.0110,0.03,-0.01,0.05,0.05
2022-11-15 21:18:54.0260,0.01,0.01,0.11,0.11
2022-11-15 21:18:54.0270,-0.04,0.01,0.2,0.2
2022-11-15 21:18:54.0430,-0.06,0.02,0.19,0.2
2022-11-15 21:18:54.0730,-0.04,0.01,0.17,0.17
2022-11-15 21:18:54.0730,-0.01,0.02,0.19,0.19
2022-11-15 21:18:54.0750,-0.08,-0.01,0.14,0.16
2022-11-15 21:18:54.0940,-0.04,-0.03,0.07,0.08
2022-11-15 21:18:54.0950,-0.01,-0.05,0.07,0.08
2022-11-15 21:18:54.1100,0.01,-0.05,0.11,0.12
2022-11-15 21:18:54.1110,0.01,-0.06,0.13,0.14
2022-11-15 21:18:54.1110,0.05,-0.07,0.11,0.13
2022-11-15 21:18:54.1260,0.08,-0.09,0.08,0.14
2022-11-15 21:18:54.1270,0.1,-0.12,0.03,0.15
2022-11-15 21:18:54.1540,0.1,-0.14,-0.01,0.17
2022-11-15 21:18:54.1550,0.1,-0.15,-0.01,0.18
2022-11-15 21:18:54.1610,0.1,-0.15,-0.02,0.18
2022-11-15 21:18:54.1610,0.09,-0.16,-0.04,0.18
2022-11-15 21:18:54.1620,0.1,-0.17,-0.06,0.2
2022-11-15 21:18:54.1780,0.1,-0.16,-0.08,0.2
2022-11-15 21:18:54.1780,0.08,-0.15,-0.08,0.18
2022-11-15 21:18:54.1930,0.05,-0.17,-0.06,0.18
2022-11-15 21:18:54.1940,0.06,-0.19,-0.04,0.2
2022-11-15 21:18:54.2100,0.06,-0.21,-0.03,0.22
2022-11-15 21:18:54.2360,0.09,-0.21,-0.05,0.23
2022-11-15 21:18:54.2370,0.13,-0.18,-0.08,0.23
2022-11-15 21:18:54.2450,0.17,-0.14,-0.1,0.24
2022-11-15 21:18:54.2450,0.2,-0.11,-0.11,0.25
2022-11-15 21:18:54.2610,0.22,-0.08,-0.09,0.25
2022-11-15 21:18:54.2610,0.24,-0.09,-0.07,0.26
2022-11-15 21:18:54.2770,0.22,-0.09,-0.04,0.24
2022-11-15 21:18:54.2780,0.22,-0.1,-0.02,0.24
2022-11-15 21:18:54.2930,0.19,-0.1,-0.03,0.21
2022-11-15 21:18:54.2940,0.14,-0.11,-0.05,0.18
2022-11-15 21:18:54.3220,0.08,-0.1,-0.04,0.13
2022-11-15 21:18:54.3220,0.03,-0.1,-0.06,0.12
2022-11-15 21:18:54.3260,0.0,-0.1,-0.06,0.11
2022-11-15 21:18:54.3440,-0.01,-0.1,-0.05,0.11
2022-11-15 21:18:54.3440,-0.02,-0.08,-0.05,0.09
2022-11-15 21:18:54.3600,-0.03,-0.06,-0.07,0.09
2022-11-15 21:18:54.3600,-0.04,-0.03,-0.1,0.11
2022-11-15 21:18:54.3760,-0.03,-0.01,-0.12,0.12
2022-11-15 21:18:54.3770,-0.02,0.01,-0.15,0.15
2022-11-15 21:18:54.3930,0.0,0.02,-0.17,0.17
2022-11-15 21:18:54.4220,0.01,0.02,-0.17,0.17
2022-11-15 21:18:54.4230,0.04,0.01,-0.18,0.18
2022-11-15 21:18:54.4250,0.06,0.0,-0.18,0.18
2022-11-15 21:18:54.4440,0.09,-0.01,-0.16,0.18
2022-11-15 21:18:54.4440,0.09,-0.03,-0.16,0.18
2022-11-15 21:18:54.4600,0.08,-0.04,-0.15,0.17
2022-11-15 21:18:54.4600,0.07,-0.05,-0.17,0.19
2022-11-15 21:18:54.4760,0.08,-0.04,-0.18,0.2
2022-11-15 21:18:54.4770,0.08,0.0,-0.16,0.17
2022-11-15 21:18:54.4930,0.08,0.04,-0.14,0.16
2022-11-15 21:18:54.5230,0.09,0.08,-0.14,0.18
2022-11-15 21:18:54.5240,0.07,0.09,-0.13,0.17
2022-11-15 21:18:54.5450,0.03,0.07,-0.14,0.15
2022-11-15 21:18:54.5460,-0.01,0.03,-0.14,0.14
2022-11-15 21:18:54.5610,-0.09,-0.02,-0.14,0.16
2022-11-15 21:18:54.5620,-0.15,-0.04,-0.13,0.2
2022-11-15 21:18:54.5760,-0.15,-0.05,-0.11,0.19
2022-11-15 21:18:54.5770,-0.19,-0.05,-0.13,0.23
2022-11-15 21:18:54.5930,-0.18,-0.04,-0.13,0.22
2022-11-15 21:18:54.5940,-0.17,-0.03,-0.11,0.2
2022-11-15 21:18:54.6240,-0.18,-0.04,-0.07,0.19
2022-11-15 21:18:54.6240,-0.22,-0.03,-0.1,0.24
2022-11-15 21:18:54.6450,-0.17,0.0,-0.07,0.18
2022-11-15 21:18:54.6460,-0.2,0.03,-0.04,0.2
2022-11-15 21:18:54.6610,-0.23,0.04,-0.03,0.23
2022-11-15 21:18:54.6620,-0.21,0.05,0.0,0.21
2022-11-15 21:18:54.6770,-0.24,0.06,-0.01,0.24
2022-11-15 21:18:54.6780,-0.22,0.09,-0.06,0.24
2022-11-15 21:18:54.6930,-0.2,0.1,-0.03,0.22
2022-11-15 21:18:54.6940,-0.15,0.08,0.02,0.17
2022-11-15 21:18:54.7240,-0.15,0.02,0.1,0.18
2022-11-15 21:18:54.7250,-0.15,-0.04,0.09,0.17
2022-11-15 21:18:54.7450,-0.14,-0.06,0.04,0.15
2022-11-15 21:18:54.7460,-0.13,-0.08,-0.03,0.15
2022-11-15 21:18:54.7610,-0.15,-0.05,-0.12,0.19
2022-11-15 21:18:54.7610,-0.11,-0.01,-0.16,0.19
2022-11-15 21:18:54.7760,-0.08,-0.02,-0.14,0.16
2022-11-15 21:18:54.7770,-0.1,-0.04,-0.05,0.11
2022-11-15 21:18:54.7930,-0.11,-0.06,0.01,0.12
2022-11-15 21:18:54.7940,-0.11,-0.06,0.02,0.12
2022-11-15 21:18:54.8240,-0.12,-0.06,0.02,0.13
2022-11-15 21:18:54.8250,-0.14,-0.06,0.03,0.15
2022-11-15 21:18:54.8250,-0.13,-0.06,0.01,0.14
2022-11-15 21:18:54.8450,-0.16,-0.06,0.02,0.17
2022-11-15 21:18:54.8460,-0.15,-0.06,0.04,0.16
2022-11-15 21:18:54.8610,-0.14,-0.06,0.05,0.16
2022-11-15 21:18:54.8610,-0.15,-0.05,0.06,0.16
2022-11-15 21:18:54.8760,-0.14,-0.04,0.07,0.16
2022-11-15 21:18:54.8770,-0.13,-0.06,0.07,0.15
2022-11-15 21:18:54.8930,-0.11,-0.05,0.05,0.13
2022-11-15 21:18:54.9230,-0.1,-0.03,0.04,0.11
2022-11-15 21:18:54.9240,-0.08,-0.01,0.03,0.08
2022-11-15 21:18:54.9450,-0.07,0.0,0.0,0.07
2022-11-15 21:18:54.9460,-0.08,0.01,-0.01,0.08
2022-11-15 21:18:54.9610,-0.08,0.01,-0.02,0.08
2022-11-15 21:18:54.9610,-0.08,-0.02,-0.01,0.08
2022-11-15 21:18:54.9760,-0.07,-0.04,0.02,0.08
2022-11-15 21:18:54.9770,-0.08,-0.05,0.04,0.1
2022-11-15 21:18:54.9930,-0.08,-0.05,0.07,0.11
2022-11-15 21:18:54.9940,-0.08,-0.03,0.06,0.1
2022-11-15 21:18:55.0230,-0.06,-0.03,0.05,0.08
2022-11-15 21:18:55.0240,-0.04,-0.03,0.04,0.06
2022-11-15 21:18:55.0450,-0.03,-0.04,0.06,0.07
2022-11-15 21:18:55.0460,-0.01,-0.05,0.05,0.07
2022-11-15 21:18:55.0610,-0.03,-0.06,0.04,0.07
2022-11-15 21:18:55.0610,-0.04,-0.07,0.03,0.08
2022-11-15 21:18:55.0770,-0.05,-0.08,0.01,0.09
2022-11-15 21:18:55.0780,-0.04,-0.08,0.0,0.08
2022-11-15 21:18:55.0930,-0.02,-0.07,0.01,0.07
2022-11-15 21:18:55.0940,0.01,-0.06,0.01,0.06
2022-11-15 21:18:55.1240,0.02,-0.05,0.03,0.06
2022-11-15 21:18:55.1250,0.02,-0.05,0.04,0.06
2022-11-15 21:18:55.1250,0.01,-0.06,0.05,0.07
2022-11-15 21:18:55.1450,-0.02,-0.07,0.04,0.08
2022-11-15 21:18:55.1460,-0.04,-0.09,0.04,0.1
2022-11-15 21:18:55.1460,-0.02,-0.11,0.06,0.12
2022-11-15 21:18:55.1610,0.0,-0.11,0.07,0.13
2022-11-15 21:18:55.1610,0.03,-0.1,0.07,0.12
2022-11-15 21:18:55.1760,0.05,-0.08,0.06,0.11
2022-11-15 21:18:55.1770,0.07,-0.05,0.04,0.09
2022-11-15 21:18:55.2040,0.07,-0.02,0.02,0.07
2022-11-15 21:18:55.2050,0.05,-0.01,0.02,0.05
2022-11-15 21:18:55.2100,0.02,-0.02,0.01,0.03
2022-11-15 21:18:55.2110,-0.01,-0.04,0.01,0.04
2022-11-15 21:18:55.2270,-0.03,-0.06,0.01,0.06
2022-11-15 21:18:55.2280,-0.03,-0.08,0.0,0.08
2022-11-15 21:18:55.2430,-0.04,-0.07,-0.01,0.08
2022-11-15 21:18:55.2440,-0.04,-0.05,0.0,0.06
2022-11-15 21:18:55.2600,-0.04,-0.02,0.0,0.04
2022-11-15 21:18:55.2600,-0.04,-0.02,0.02,0.04
2022-11-15 21:18:55.2870,-0.05,-0.03,0.02,0.06
2022-11-15 21:18:55.2870,-0.05,-0.04,0.01,0.06
2022-11-15 21:18:55.2880,-0.03,-0.03,0.01,0.04
2022-11-15 21:18:55.2940,0.0,-0.04,0.02,0.04
2022-11-15 21:18:55.2950,0.0,-0.04,0.02,0.04
2022-11-15 21:18:55.2950,0.01,-0.04,0.02,0.04
2022-11-15 21:18:55.2950,0.0,-0.05,0.01,0.05
2022-11-15 21:18:55.3100,0.01,-0.06,-0.01,0.06
2022-11-15 21:18:55.3110,0.0,-0.05,-0.03,0.05
2022-11-15 21:18:55.3260,-0.01,-0.05,-0.05,0.07
2022-11-15 21:18:55.3520,-0.02,-0.06,-0.06,0.08
2022-11-15 21:18:55.3530,-0.03,-0.05,-0.06,0.08
2022-11-15 21:18:55.3600,-0.02,-0.04,-0.04,0.06
2022-11-15 21:18:55.3610,-0.04,-0.04,-0.04,0.06
2022-11-15 21:18:55.3770,-0.04,-0.03,-0.06,0.07
2022-11-15 21:18:55.3780,-0.05,-0.02,-0.09,0.1
2022-11-15 21:18:55.3790,-0.05,-0.01,-0.08,0.09
2022-11-15 21:18:55.3940,-0.04,-0.04,-0.08,0.09
2022-11-15 21:18:55.3940,-0.03,-0.04,-0.08,0.09
2022-11-15 21:18:55.3950,-0.02,-0.05,-0.06,0.08
2022-11-15 21:18:55.4200,-0.03,-0.04,-0.04,0.06
2022-11-15 21:18:55.4200,0.0,-0.05,-0.03,0.05
2022-11-15 21:18:55.4270,0.0,-0.05,0.0,0.05
2022-11-15 21:18:55.4270,0.0,-0.03,-0.02,0.03
2022-11-15 21:18:55.4440,0.0,-0.02,0.01,0.02
2022-11-15 21:18:55.4440,0.0,-0.01,0.01,0.01
2022-11-15 21:18:55.4450,0.0,-0.01,0.01,0.01
2022-11-15 21:18:55.4450,-0.02,-0.02,0.03,0.04
2022-11-15 21:18:55.4600,-0.01,-0.02,0.04,0.04
2022-11-15 21:18:55.4600,-0.01,-0.04,0.02,0.04
2022-11-15 21:18:55.4850,-0.03,-0.06,0.0,0.06
2022-11-15 21:18:55.4860,-0.03,-0.07,-0.02,0.07
2022-11-15 21:18:55.4930,-0.01,-0.07,-0.02,0.07
2022-11-15 21:18:55.4930,0.0,-0.05,0.01,0.05
2022-11-15 21:18:55.4940,-0.01,-0.04,0.02,0.04
2022-11-15 21:18:55.5110,-0.03,-0.04,0.0,0.05
2022-11-15 21:18:55.5110,-0.02,-0.04,-0.01,0.04
2022-11-15 21:18:55.5260,-0.01,-0.03,0.0,0.03
2022-11-15 21:18:55.5270,0.0,-0.04,0.02,0.04
2022-11-15 21:18:55.5430,0.02,-0.03,0.01,0.03
2022-11-15 21:18:55.5700,0.01,-0.01,0.03,0.03
2022-11-15 21:18:55.5710,0.0,-0.04,0.06,0.07
2022-11-15 21:18:55.5760,-0.02,-0.07,0.07,0.1
2022-11-15 21:18:55.5760,-0.02,-0.09,0.09,0.12
2022-11-15 21:18:55.5940,-0.02,-0.09,0.09,0.12
2022-11-15 21:18:55.5940,-0.04,-0.09,0.09,0.13
2022-11-15 21:18:55.5950,-0.05,-0.09,0.07,0.12
2022-11-15 21:18:55.6100,-0.04,-0.08,0.06,0.1
2022-11-15 21:18:55.6110,-0.02,-0.1,0.07,0.12
2022-11-15 21:18:55.6260,0.0,-0.13,0.07,0.14
2022-11-15 21:18:55.6530,0.01,-0.15,0.03,0.15
2022-11-15 21:18:55.6540,0.03,-0.16,0.0,0.16
2022-11-15 21:18:55.6600,0.03,-0.16,-0.02,0.16
2022-11-15 21:18:55.6600,0.04,-0.13,-0.04,0.14
2022-11-15 21:18:55.6770,0.03,-0.09,-0.02,0.09
2022-11-15 21:18:55.6780,0.02,-0.05,-0.02,0.05
2022-11-15 21:18:55.6780,-0.02,-0.01,-0.03,0.03
2022-11-15 21:18:55.6930,-0.05,0.01,-0.02,0.05
2022-11-15 21:18:55.6940,-0.09,0.03,0.01,0.09
2022-11-15 21:18:55.7100,-0.13,0.04,0.02,0.13
2022-11-15 21:18:55.7350,-0.16,0.03,0.04,0.16
2022-11-15 21:18:55.7360,-0.18,0.03,0.04,0.18
2022-11-15 21:18:55.7430,-0.17,0.04,0.07,0.18
2022-11-15 21:18:55.7440,-0.16,0.04,0.1,0.19
2022-11-15 21:18:55.7610,-0.13,0.04,0.1,0.16
2022-11-15 21:18:55.7610,-0.08,0.04,0.07,0.11
2022-11-15 21:18:55.7760,-0.06,0.03,0.06,0.09
2022-11-15 21:18:55.7770,-0.03,0.02,0.05,0.06
2022-11-15 21:18:55.7930,-0.01,0.0,0.03,0.03
2022-11-15 21:18:55.7940,-0.02,-0.02,0.05,0.05
2022-11-15 21:18:55.8210,0.0,-0.03,0.03,0.04
2022-11-15 21:18:55.8220,0.02,-0.05,0.04,0.06
2022-11-15 21:18:55.8250,0.02,-0.05,0.06,0.08
2022-11-15 21:18:55.8250,0.04,-0.05,0.05,0.08
2022-11-15 21:18:55.8440,0.05,-0.09,0.02,0.1
2022-11-15 21:18:55.8450,0.06,-0.12,-0.01,0.13
2022-11-15 21:18:55.8600,0.05,-0.15,-0.01,0.15
2022-11-15 21:18:55.8600,0.04,-0.16,-0.01,0.16
2022-11-15 21:18:55.8760,0.04,-0.16,-0.02,0.16
2022-11-15 21:18:55.8770,0.08,-0.15,-0.03,0.17
2022-11-15 21:18:55.9030,0.07,-0.14,-0.02,0.15
2022-11-15 21:18:55.9040,0.07,-0.11,0.02,0.13
2022-11-15 21:18:55.9110,0.06,-0.05,0.04,0.08
2022-11-15 21:18:55.9120,0.02,-0.01,0.06,0.06
2022-11-15 21:18:55.9270,-0.01,0.01,0.09,0.09
2022-11-15 21:18:55.9280,0.0,0.02,0.09,0.09
2022-11-15 21:18:55.9430,-0.01,0.0,0.08,0.08
2022-11-15 21:18:55.9440,-0.02,-0.02,0.05,0.05
2022-11-15 21:18:55.9600,-0.02,-0.03,0.06,0.06
2022-11-15 21:18:55.9600,-0.02,-0.04,0.07,0.08
2022-11-15 21:18:55.9870,-0.01,-0.06,0.1,0.11
2022-11-15 21:18:55.9870,0.0,-0.07,0.14,0.15
2022-11-15 21:18:55.9910,0.01,-0.08,0.14,0.16
2022-11-15 21:18:55.9920,0.01,-0.1,0.09,0.13
2022-11-15 21:18:56.0110,0.02,-0.09,0.04,0.1
2022-11-15 21:18:56.0110,0.06,-0.1,0.02,0.11
2022-11-15 21:18:56.0270,0.13,-0.08,0.03,0.15
2022-11-15 21:18:56.0270,0.22,-0.08,0.05,0.23
2022-11-15 21:18:56.0430,0.29,-0.08,0.04,0.3
2022-11-15 21:18:56.0440,0.34,-0.1,0.01,0.35
2022-11-15 21:18:56.0700,0.36,-0.13,-0.02,0.38
2022-11-15 21:18:56.0710,0.38,-0.15,-0.07,0.41
2022-11-15 21:18:56.0750,0.37,-0.17,-0.12,0.42
2022-11-15 21:18:56.0750,0.37,-0.19,-0.14,0.43
2022-11-15 21:18:56.0940,0.34,-0.22,-0.14,0.42
2022-11-15 21:18:56.0950,0.34,-0.24,-0.12,0.43
2022-11-15 21:18:56.1090,0.33,-0.24,-0.12,0.42
2022-11-15 21:18:56.1100,0.29,-0.21,-0.11,0.37
2022-11-15 21:18:56.1260,0.25,-0.18,-0.13,0.33
2022-11-15 21:18:56.1270,0.21,-0.15,-0.13,0.28
2022-11-15 21:18:56.1530,0.17,-0.11,-0.09,0.22
2022-11-15 21:18:56.1540,0.12,-0.08,-0.04,0.14
2022-11-15 21:18:56.1590,0.05,-0.07,-0.01,0.08
2022-11-15 21:18:56.1590,-0.01,-0.06,0.01,0.06
2022-11-15 21:18:56.1770,-0.06,-0.06,0.03,0.09
2022-11-15 21:18:56.1780,-0.11,-0.05,0.01,0.12
2022-11-15 21:18:56.1930,-0.13,-0.04,-0.01,0.13
2022-11-15 21:18:56.1940,-0.15,-0.03,-0.05,0.16
2022-11-15 21:18:56.2100,-0.16,-0.02,-0.07,0.17
2022-11-15 21:18:56.2110,-0.18,0.0,-0.11,0.21
2022-11-15 21:18:56.2370,-0.21,0.02,-0.11,0.23
2022-11-15 21:18:56.2380,-0.26,0.05,-0.13,0.29
2022-11-15 21:18:56.2420,-0.3,0.11,-0.15,0.35
2022-11-15 21:18:56.2430,-0.31,0.15,-0.13,0.36
2022-11-15 21:18:56.2610,-0.33,0.21,-0.1,0.4
2022-11-15 21:18:56.2620,-0.35,0.22,-0.05,0.41
2022-11-15 21:18:56.2760,-0.33,0.2,0.01,0.38
2022-11-15 21:18:56.2770,-0.24,0.17,0.03,0.29
2022-11-15 21:18:56.2930,-0.19,0.12,-0.04,0.22
2022-11-15 21:18:56.2940,-0.19,0.09,-0.01,0.21
2022-11-15 21:18:56.3210,-0.2,0.08,0.03,0.21
2022-11-15 21:18:56.3210,-0.27,0.05,0.04,0.27
2022-11-15 21:18:56.3250,-0.28,0.02,-0.01,0.28
2022-11-15 21:18:56.3250,-0.2,0.02,-0.06,0.2
2022-11-15 21:18:56.3440,-0.16,0.01,-0.08,0.17
2022-11-15 21:18:56.3450,-0.17,0.02,-0.05,0.17
2022-11-15 21:18:56.3600,-0.19,0.03,-0.02,0.19
2022-11-15 21:18:56.3610,-0.21,0.03,0.0,0.21
2022-11-15 21:18:56.3760,-0.23,-0.02,0.0,0.23
2022-11-15 21:18:56.3770,-0.2,-0.03,0.0,0.2
2022-11-15 21:18:56.4030,-0.16,-0.03,0.02,0.16
2022-11-15 21:18:56.4040,-0.13,0.02,0.05,0.14
2022-11-15 21:18:56.4080,-0.11,0.06,0.08,0.14
2022-11-15 21:18:56.4090,-0.08,0.1,0.1,0.16
2022-11-15 21:18:56.4270,-0.07,0.12,0.1,0.17
2022-11-15 21:18:56.4280,-0.05,0.12,0.0,0.13
2022-11-15 21:18:56.4430,-0.02,0.07,-0.08,0.1
2022-11-15 21:18:56.4440,-0.02,-0.05,-0.01,0.05
2022-11-15 21:18:56.4600,-0.05,-0.21,0.06,0.22
2022-11-15 21:18:56.4600,-0.05,-0.34,0.15,0.37
2022-11-15 21:18:56.4870,-0.02,-0.39,0.06,0.39
2022-11-15 21:18:56.4870,0.01,-0.38,-0.01,0.38
2022-11-15 21:18:56.4920,0.02,-0.34,-0.02,0.34
2022-11-15 21:18:56.4920,0.02,-0.29,0.03,0.29
2022-11-15 21:18:56.5110,0.0,-0.27,0.13,0.29
2022-11-15 21:18:56.5110,0.03,-0.2,0.32,0.37
2022-11-15 21:18:56.5270,0.02,-0.08,0.39,0.39
2022-11-15 21:18:56.5270,-0.03,-0.01,0.2,0.2
2022-11-15 21:18:56.5430,-0.06,0.06,0.04,0.09
2022-11-15 21:18:56.5440,-0.08,0.11,-0.03,0.13
2022-11-15 21:18:56.5700,-0.07,0.15,-0.04,0.17
2022-11-15 21:18:56.5710,-0.1,0.13,-0.05,0.17
2022-11-15 21:18:56.5780,-0.12,0.09,0.0,0.15
2022-11-15 21:18:56.5780,-0.13,0.05,0.09,0.16
2022-11-15 21:18:56.5940,-0.13,0.05,0.14,0.19
2022-11-15 21:18:56.5950,-0.15,0.05,0.14,0.21
2022-11-15 21:18:56.6100,-0.18,0.06,0.06,0.19
2022-11-15 21:18:56.6100,-0.15,0.05,-0.02,0.15
2022-11-15 21:18:56.6260,-0.12,0.04,-0.02,0.12
2022-11-15 21:18:56.6270,-0.12,0.02,-0.08,0.14
2022-11-15 21:18:56.6540,-0.07,-0.02,-0.06,0.09
2022-11-15 21:18:56.6540,-0.01,-0.1,0.07,0.12
2022-11-15 21:18:56.6610,0.02,-0.15,0.03,0.15
2022-11-15 21:18:56.6620,0.09,-0.17,-0.03,0.19
2022-11-15 21:18:56.6770,0.16,-0.16,-0.26,0.34
2022-11-15 21:18:56.6780,0.23,-0.13,-0.43,0.5
2022-11-15 21:18:56.6930,0.26,-0.13,-0.37,0.47
2022-11-15 21:18:56.6940,0.3,-0.11,-0.21,0.38
2022-11-15 21:18:56.7100,0.34,-0.13,0.19,0.41
2022-11-15 21:18:56.7110,0.36,-0.15,0.34,0.51
2022-11-15 21:18:56.7370,0.34,-0.23,0.25,0.48
2022-11-15 21:18:56.7370,0.32,-0.3,0.07,0.44
2022-11-15 21:18:56.7420,0.3,-0.32,-0.06,0.44
2022-11-15 21:18:56.7430,0.3,-0.28,-0.17,0.44
2022-11-15 21:18:56.7610,0.34,-0.2,-0.38,0.54
2022-11-15 21:18:56.7620,0.35,-0.18,-0.36,0.53
2022-11-15 21:18:56.7760,0.31,-0.21,-0.06,0.37
2022-11-15 21:18:56.7770,0.34,-0.2,0.26,0.47
2022-11-15 21:18:56.7930,0.35,-0.19,0.51,0.64
2022-11-15 21:18:56.7940,0.37,-0.13,0.44,0.58
2022-11-15 21:18:56.8210,0.42,-0.09,0.37,0.56
2022-11-15 21:18:56.8220,0.43,-0.08,0.34,0.55
2022-11-15 21:18:56.8250,0.42,-0.12,0.44,0.62
2022-11-15 21:18:56.8260,0.48,-0.14,0.59,0.77
2022-11-15 21:18:56.8440,0.52,-0.08,0.54,0.75
2022-11-15 21:18:56.8450,0.42,-0.01,0.06,0.42
2022-11-15 21:18:56.8590,0.3,-0.07,-0.59,0.66
2022-11-15 21:18:56.8590,0.3,-0.13,-0.87,0.92
2022-11-15 21:18:56.8750,0.32,-0.2,-1.09,1.15
2022-11-15 21:18:56.8750,0.32,-0.26,-0.99,1.07
2022-11-15 21:18:56.9020,0.31,-0.34,-0.53,0.7
2022-11-15 21:18:56.9030,0.32,-0.39,-0.09,0.51
2022-11-15 21:18:56.9090,0.33,-0.38,0.12,0.51
2022-11-15 21:18:56.9090,0.35,-0.34,0.12,0.5
2022-11-15 21:18:56.9270,0.37,-0.27,0.01,0.45
2022-11-15 21:18:56.9280,0.38,-0.2,-0.09,0.43
2022-11-15 21:18:56.9430,0.4,-0.15,-0.13,0.44
2022-11-15 21:18:56.9440,0.41,-0.12,-0.11,0.44
2022-11-15 21:18:56.9600,0.4,-0.12,-0.07,0.42
2022-11-15 21:18:56.9610,0.4,-0.13,-0.06,0.42
2022-11-15 21:18:56.9880,0.4,-0.17,-0.09,0.44
2022-11-15 21:18:56.9890,0.39,-0.22,-0.15,0.47
2022-11-15 21:18:56.9910,0.35,-0.26,-0.22,0.48
2022-11-15 21:18:56.9920,0.32,-0.28,-0.27,0.5
2022-11-15 21:18:57.0100,0.27,-0.3,-0.31,0.5
2022-11-15 21:18:57.0110,0.22,-0.31,-0.33,0.5
2022-11-15 21:18:57.0260,0.18,-0.31,-0.38,0.52
2022-11-15 21:18:57.0270,0.12,-0.32,-0.4,0.52
2022-11-15 21:18:57.0430,0.06,-0.3,-0.42,0.51
2022-11-15 21:18:57.0440,0.03,-0.27,-0.44,0.51
2022-11-15 21:18:57.0710,-0.01,-0.25,-0.38,0.45
2022-11-15 21:18:57.0720,-0.04,-0.25,-0.3,0.39
2022-11-15 21:18:57.0750,-0.04,-0.26,-0.18,0.31
2022-11-15 21:18:57.0750,-0.03,-0.3,-0.05,0.3
2022-11-15 21:18:57.0940,-0.01,-0.33,0.08,0.33
2022-11-15 21:18:57.0940,0.02,-0.36,0.21,0.41
2022-11-15 21:18:57.1100,0.0,-0.45,0.29,0.53
2022-11-15 21:18:57.1100,-0.03,-0.54,0.31,0.62
2022-11-15 21:18:57.1260,-0.02,-0.62,0.24,0.66
2022-11-15 21:18:57.1270,0.04,-0.65,0.17,0.67
2022-11-15 21:18:57.1540,0.07,-0.61,0.08,0.61
2022-11-15 21:18:57.1550,0.08,-0.52,-0.04,0.52
2022-11-15 21:18:57.1580,0.06,-0.38,-0.11,0.4
2022-11-15 21:18:57.1590,0.09,-0.21,-0.15,0.27
2022-11-15 21:18:57.1770,0.12,-0.03,-0.18,0.21
2022-11-15 21:18:57.1780,0.11,0.11,-0.17,0.23
2022-11-15 21:18:57.1930,0.04,0.22,-0.14,0.26
2022-11-15 21:18:57.1940,-0.03,0.28,-0.11,0.3
2022-11-15 21:18:57.2100,-0.1,0.34,-0.07,0.36
2022-11-15 21:18:57.2110,-0.12,0.43,-0.05,0.44
2022-11-15 21:18:57.2380,-0.14,0.5,0.03,0.52
2022-11-15 21:18:57.2390,-0.17,0.53,0.17,0.58
2022-11-15 21:18:57.2410,-0.21,0.52,0.3,0.63
2022-11-15 21:18:57.2420,-0.26,0.5,0.41,0.69
2022-11-15 21:18:57.2610,-0.33,0.43,0.45,0.7
2022-11-15 21:18:57.2620,-0.4,0.34,0.4,0.66
2022-11-15 21:18:57.2760,-0.46,0.2,0.29,0.57
2022-11-15 21:18:57.2770,-0.47,0.05,0.15,0.49
2022-11-15 21:18:57.2930,-0.49,-0.12,0.09,0.51
2022-11-15 21:18:57.2940,-0.55,-0.3,0.07,0.63
2022-11-15 21:18:57.3220,-0.62,-0.47,0.04,0.77
2022-11-15 21:18:57.3230,-0.67,-0.62,0.0,0.91
2022-11-15 21:18:57.3250,-0.74,-0.78,-0.11,1.08
2022-11-15 21:18:57.3440,-0.79,-0.88,-0.26,1.21
2022-11-15 21:18:57.3440,-0.77,-0.98,-0.42,1.31
2022-11-15 21:18:57.3600,-0.77,-1.02,-0.49,1.36
2022-11-15 21:18:57.3600,-0.71,-1.0,-0.53,1.33
2022-11-15 21:18:57.3760,-0.62,-0.96,-0.56,1.27
2022-11-15 21:18:57.3770,-0.49,-0.85,-0.58,1.13
2022-11-15 21:18:57.3930,-0.35,-0.68,-0.58,0.95
2022-11-15 21:18:57.4230,-0.26,-0.47,-0.57,0.78
2022-11-15 21:18:57.4240,-0.19,-0.29,-0.52,0.62
2022-11-15 21:18:57.4450,-0.14,-0.1,-0.44,0.47
2022-11-15 21:18:57.4450,-0.06,0.08,-0.33,0.34
2022-11-15 21:18:57.4610,0.04,0.24,-0.19,0.3
2022-11-15 21:18:57.4610,0.15,0.36,-0.14,0.41
2022-11-15 21:18:57.4760,0.22,0.5,-0.15,0.56
2022-11-15 21:18:57.4770,0.29,0.68,-0.14,0.75
2022-11-15 21:18:57.4930,0.38,0.83,-0.11,0.91
2022-11-15 21:18:57.4940,0.4,0.98,0.01,1.05
2022-11-15 21:18:57.5240,0.36,1.1,0.19,1.17
2022-11-15 21:18:57.5250,0.32,1.12,0.43,1.24
2022-11-15 21:18:57.5450,0.24,1.1,0.67,1.31
2022-11-15 21:18:57.5460,0.09,1.05,0.91,1.39
2022-11-15 21:18:57.5610,-0.02,0.99,0.98,1.39
2022-11-15 21:18:57.5620,-0.05,0.93,0.93,1.31
2022-11-15 21:18:57.5760,-0.02,0.89,0.82,1.21
2022-11-15 21:18:57.5770,0.0,0.8,0.64,1.02
2022-11-15 21:18:57.5930,0.0,0.72,0.43,0.83
2022-11-15 21:18:57.5940,-0.01,0.7,0.28,0.75
2022-11-15 21:18:57.6240,0.01,0.72,0.21,0.75
2022-11-15 21:18:57.6250,0.07,0.77,0.2,0.79
2022-11-15 21:18:57.6450,0.1,0.83,0.25,0.87
2022-11-15 21:18:57.6460,0.11,0.93,0.31,0.98
2022-11-15 21:18:57.6600,0.14,1.05,0.37,1.12
2022-11-15 21:18:57.6610,0.18,1.15,0.43,1.24
2022-11-15 21:18:57.6770,0.21,1.2,0.48,1.3
2022-11-15 21:18:57.6770,0.23,1.21,0.53,1.34
2022-11-15 21:18:57.6930,0.28,1.2,0.53,1.34
2022-11-15 21:18:57.6940,0.39,1.12,0.53,1.29
2022-11-15 21:18:57.7240,0.45,0.98,0.51,1.19
2022-11-15 21:18:57.7250,0.48,0.78,0.5,1.04
2022-11-15 21:18:57.7450,0.48,0.6,0.55,0.94
2022-11-15 21:18:57.7450,0.55,0.35,0.66,0.92
2022-11-15 21:18:57.7610,0.66,0.01,0.82,1.05
2022-11-15 21:18:57.7610,0.67,-0.33,1.03,1.27
2022-11-15 21:18:57.7770,0.69,-0.57,1.2,1.49
2022-11-15 21:18:57.7770,0.82,-0.74,1.33,1.72
2022-11-15 21:18:57.7930,0.97,-0.9,1.33,1.87
2022-11-15 21:18:57.7940,1.11,-1.02,1.17,1.9
2022-11-15 21:18:57.8240,1.24,-1.09,0.88,1.87
2022-11-15 21:18:57.8250,1.37,-1.12,0.5,1.83
2022-11-15 21:18:57.8450,1.46,-1.1,0.12,1.83
2022-11-15 21:18:57.8460,1.48,-1.0,-0.25,1.8
2022-11-15 21:18:57.8600,1.39,-0.81,-0.54,1.69
2022-11-15 21:18:57.8610,1.18,-0.62,-0.63,1.47
2022-11-15 21:18:57.8770,0.92,-0.47,-0.51,1.15
2022-11-15 21:18:57.8780,0.7,-0.41,-0.3,0.86
2022-11-15 21:18:57.8930,0.57,-0.42,-0.09,0.71
2022-11-15 21:18:57.8940,0.44,-0.48,0.08,0.65
2022-11-15 21:18:57.9250,0.27,-0.53,0.18,0.62
2022-11-15 21:18:57.9250,0.02,-0.6,0.25,0.65
2022-11-15 21:18:57.9450,-0.23,-0.71,0.29,0.8
2022-11-15 21:18:57.9460,-0.51,-0.8,0.34,1.0
2022-11-15 21:18:57.9610,-0.81,-0.84,0.37,1.22
2022-11-15 21:18:57.9610,-1.09,-0.79,0.41,1.4
2022-11-15 21:18:57.9760,-1.31,-0.64,0.42,1.51
2022-11-15 21:18:57.9770,-1.51,-0.46,0.47,1.64
2022-11-15 21:18:57.9930,-1.72,-0.32,0.58,1.84
2022-11-15 21:18:57.9940,-1.84,-0.25,0.74,1.99
2022-11-15 21:18:58.0240,-1.79,-0.17,0.82,1.97
2022-11-15 21:18:58.0250,-1.7,-0.05,0.84,1.89
2022-11-15 21:18:58.0450,-1.57,0.09,0.77,1.75
2022-11-15 21:18:58.0460,-1.37,0.21,0.64,1.52
2022-11-15 21:18:58.0610,-1.16,0.3,0.48,1.29
2022-11-15 21:18:58.0610,-0.95,0.38,0.3,1.06
2022-11-15 21:18:58.0770,-0.73,0.51,0.15,0.9
2022-11-15 21:18:58.0780,-0.51,0.65,0.04,0.82
2022-11-15 21:18:58.0930,-0.31,0.73,-0.05,0.79
2022-11-15 21:18:58.0940,-0.15,0.76,-0.1,0.78
2022-11-15 21:18:58.1250,0.02,0.71,-0.1,0.71
2022-11-15 21:18:58.1260,0.17,0.61,-0.1,0.64
2022-11-15 21:18:58.1450,0.22,0.48,-0.05,0.53
2022-11-15 21:18:58.1450,0.19,0.3,-0.02,0.35
2022-11-15 21:18:58.1600,0.15,0.11,-0.02,0.18
2022-11-15 21:18:58.1610,0.08,-0.04,-0.05,0.1
2022-11-15 21:18:58.1760,-0.02,-0.14,-0.12,0.18
2022-11-15 21:18:58.1770,-0.08,-0.12,-0.21,0.25
2022-11-15 21:18:58.1930,-0.12,-0.05,-0.25,0.28
2022-11-15 21:18:58.1940,-0.15,0.02,-0.23,0.27
2022-11-15 21:18:58.2240,-0.18,0.05,-0.17,0.25
2022-11-15 21:18:58.2240,-0.19,0.05,-0.12,0.23
2022-11-15 21:18:58.2450,-0.25,0.04,-0.13,0.28
2022-11-15 21:18:58.2460,-0.33,0.0,-0.18,0.37
2022-11-15 21:18:58.2600,-0.35,-0.04,-0.26,0.43
2022-11-15 21:18:58.2610,-0.35,-0.09,-0.34,0.49
2022-11-15 21:18:58.2770,-0.36,-0.16,-0.42,0.57
2022-11-15 21:18:58.2770,-0.36,-0.23,-0.46,0.62
2022-11-15 21:18:58.2930,-0.37,-0.26,-0.48,0.65
2022-11-15 21:18:58.2940,-0.36,-0.26,-0.54,0.69
2022-11-15 21:18:58.3230,-0.33,-0.18,-0.62,0.72
2022-11-15 21:18:58.3240,-0.3,-0.07,-0.74,0.8
2022-11-15 21:18:58.3450,-0.29,0.01,-0.87,0.91
2022-11-15 21:18:58.3460,-0.27,0.1,-1.01,1.05
2022-11-15 21:18:58.3610,-0.28,0.19,-1.13,1.17
2022-11-15 21:18:58.3620,-0.29,0.26,-1.23,1.29
2022-11-15 21:18:58.3760,-0.34,0.3,-1.24,1.32
2022-11-15 21:18:58.3770,-0.39,0.29,-1.17,1.26
2022-11-15 21:18:58.3930,-0.43,0.2,-1.03,1.13
2022-11-15 21:18:58.3940,-0.51,0.08,-0.85,0.99
2022-11-15 21:18:58.4250,-0.52,-0.02,-0.68,0.85
2022-11-15 21:18:58.4260,-0.49,-0.04,-0.55,0.73
2022-11-15 21:18:58.4450,-0.46,-0.02,-0.51,0.68
2022-11-15 21:18:58.4450,-0.4,0.01,-0.52,0.65
2022-11-15 21:18:58.4610,-0.35,0.05,-0.6,0.69
2022-11-15 21:18:58.4610,-0.26,0.09,-0.68,0.73
2022-11-15 21:18:58.4770,-0.17,0.12,-0.75,0.77
2022-11-15 21:18:58.4770,-0.06,0.14,-0.83,0.84
2022-11-15 21:18:58.4930,0.01,0.13,-0.86,0.86
2022-11-15 21:18:58.4940,0.03,0.08,-0.87,0.87
2022-11-15 21:18:58.5240,0.07,0.02,-0.84,0.84
2022-11-15 21:18:58.5250,0.14,-0.03,-0.8,0.81
2022-11-15 21:18:58.5450,0.22,-0.06,-0.76,0.79
2022-11-15 21:18:58.5450,0.3,-0.03,-0.7,0.76
2022-11-15 21:18:58.5610,0.32,0.03,-0.62,0.69
2022-11-15 21:18:58.5620,0.29,0.06,-0.51,0.58
2022-11-15 21:18:58.5770,0.16,0.03,-0.41,0.44
2022-11-15 21:18:58.5780,-0.14,-0.13,-0.43,0.47
2022-11-15 21:18:58.5930,-0.26,-0.38,-0.39,0.6
2022-11-15 21:18:58.5940,-0.15,-0.51,-0.4,0.66
2022-11-15 21:18:58.6250,-0.11,-0.57,-0.43,0.72
2022-11-15 21:18:58.6250,-0.22,-0.54,-0.45,0.73
2022-11-15 21:18:58.6450,-0.28,-0.42,-0.47,0.68
2022-11-15 21:18:58.6460,-0.28,-0.23,-0.37,0.51
2022-11-15 21:18:58.6610,-0.19,-0.04,-0.25,0.31
2022-11-15 21:18:58.6620,-0.12,0.13,-0.31,0.35
2022-11-15 21:18:58.6770,-0.16,0.16,-0.25,0.33
2022-11-15 21:18:58.6770,-0.18,0.09,0.08,0.21
2022-11-15 21:18:58.6930,-0.23,0.02,0.39,0.45
2022-11-15 21:18:58.6940,-0.26,-0.04,0.38,0.46
2022-11-15 21:18:58.7240,-0.19,-0.14,0.19,0.3
2022-11-15 21:18:58.7250,-0.21,-0.19,0.21,0.35
2022-11-15 21:18:58.7450,-0.35,-0.17,0.21,0.44
2022-11-15 21:18:58.7460,-0.38,-0.18,0.07,0.42
2022-11-15 21:18:58.7610,-0.18,-0.08,-0.12,0.23
2022-11-15 21:18:58.7610,-0.03,0.01,-0.23,0.23
2022-11-15 21:18:58.7770,-0.2,0.03,-0.34,0.39
2022-11-15 21:18:58.7770,-0.27,0.04,-0.42,0.5
2022-11-15 21:18:58.7930,-0.22,0.02,-0.3,0.37
2022-11-15 21:18:58.7940,-0.2,-0.02,-0.02,0.2
2022-11-15 21:18:58.8240,-0.21,-0.02,0.23,0.31
2022-11-15 21:18:58.8240,-0.22,0.0,0.32,0.38
2022-11-15 21:18:58.8450,-0.19,0.06,0.33,0.38
2022-11-15 21:18:58.8460,-0.13,0.1,0.31,0.35
2022-11-15 21:18:58.8610,-0.11,0.12,0.34,0.37
2022-11-15 21:18:58.8610,-0.1,0.12,0.41,0.43
2022-11-15 21:18:58.8770,-0.06,0.09,0.47,0.48
2022-11-15 21:18:58.8770,-0.02,0.05,0.47,0.47
2022-11-15 21:18:58.8930,0.05,-0.01,0.43,0.43
2022-11-15 21:18:58.8940,0.17,-0.07,0.36,0.4
2022-11-15 21:18:58.9240,0.25,-0.12,0.31,0.41
2022-11-15 21:18:58.9250,0.3,-0.18,0.31,0.46
2022-11-15 21:18:58.9450,0.32,-0.23,0.33,0.51
2022-11-15 21:18:58.9450,0.38,-0.22,0.34,0.55
2022-11-15 21:18:58.9610,0.4,-0.19,0.33,0.55
2022-11-15 21:18:58.9610,0.4,-0.15,0.29,0.51
2022-11-15 21:18:58.9760,0.4,-0.14,0.26,0.49
2022-11-15 21:18:58.9770,0.4,-0.13,0.27,0.49
2022-11-15 21:18:58.9930,0.41,-0.14,0.3,0.52
2022-11-15 21:18:58.9940,0.46,-0.12,0.36,0.59
2022-11-15 21:18:59.0250,0.48,-0.1,0.38,0.62
2022-11-15 21:18:59.0260,0.47,-0.09,0.38,0.61
2022-11-15 21:18:59.0450,0.45,-0.07,0.38,0.59
2022-11-15 21:18:59.0450,0.4,-0.07,0.39,0.56
2022-11-15 21:18:59.0600,0.37,-0.07,0.4,0.54
2022-11-15 21:18:59.0610,0.36,-0.06,0.42,0.55
2022-11-15 21:18:59.0760,0.29,-0.08,0.46,0.54
2022-11-15 21:18:59.0770,0.14,-0.15,0.5,0.54
2022-11-15 21:18:59.0930,0.03,-0.22,0.47,0.51
2022-11-15 21:18:59.0940,0.02,-0.25,0.4,0.47
2022-11-15 21:18:59.1240,0.03,-0.23,0.3,0.37
2022-11-15 21:18:59.1250,0.02,-0.19,0.21,0.28
2022-11-15 21:18:59.1450,-0.02,-0.15,0.16,0.22
2022-11-15 21:18:59.1460,-0.07,-0.11,0.16,0.2
2022-11-15 21:18:59.1610,-0.09,-0.04,0.17,0.19
2022-11-15 21:18:59.1610,-0.11,0.04,0.18,0.21
2022-11-15 21:18:59.1760,-0.14,0.12,0.17,0.25
2022-11-15 21:18:59.1770,-0.17,0.17,0.18,0.3
2022-11-15 21:18:59.1930,-0.2,0.22,0.21,0.36
2022-11-15 21:18:59.1940,-0.24,0.23,0.23,0.4
2022-11-15 21:18:59.2240,-0.29,0.24,0.23,0.44
2022-11-15 21:18:59.2250,-0.32,0.2,0.22,0.43
2022-11-15 21:18:59.2450,-0.33,0.11,0.2,0.4
2022-11-15 21:18:59.2450,-0.33,0.03,0.16,0.36
2022-11-15 21:18:59.2610,-0.32,-0.01,0.11,0.33
2022-11-15 21:18:59.2610,-0.28,-0.01,0.07,0.28
2022-11-15 21:18:59.2760,-0.26,0.02,0.03,0.26
2022-11-15 21:18:59.2770,-0.27,0.01,0.02,0.27
2022-11-15 21:18:59.2930,-0.28,0.01,0.02,0.28
2022-11-15 21:18:59.2940,-0.26,0.01,0.06,0.26
2022-11-15 21:18:59.3250,-0.25,0.02,0.1,0.26
2022-11-15 21:18:59.3250,-0.21,0.04,0.13,0.25
2022-11-15 21:18:59.3450,-0.15,0.08,0.14,0.22
2022-11-15 21:18:59.3450,-0.09,0.11,0.14,0.19
2022-11-15 21:18:59.3600,-0.02,0.13,0.13,0.18
2022-11-15 21:18:59.3610,0.08,0.12,0.15,0.2
2022-11-15 21:18:59.3760,0.13,0.07,0.2,0.24
2022-11-15 21:18:59.3770,0.16,0.0,0.24,0.28
2022-11-15 21:18:59.3930,0.21,-0.04,0.21,0.29
2022-11-15 21:18:59.3940,0.29,-0.04,0.16,0.33
2022-11-15 21:18:59.4240,0.39,0.01,0.16,0.42
2022-11-15 21:18:59.4250,0.43,0.09,0.21,0.48
2022-11-15 21:18:59.4450,0.45,0.18,0.31,0.57
2022-11-15 21:18:59.4450,0.49,0.28,0.45,0.72
2022-11-15 21:18:59.4600,0.47,0.36,0.64,0.87
2022-11-15 21:18:59.4610,0.38,0.37,0.86,1.01
2022-11-15 21:18:59.4760,0.21,0.27,1.07,1.12
2022-11-15 21:18:59.4770,0.09,0.04,1.18,1.18
2022-11-15 21:18:59.4930,0.02,-0.27,1.23,1.25
2022-11-15 21:18:59.4940,0.05,-0.58,1.19,1.32
2022-11-15 21:18:59.5250,0.08,-0.84,1.09,1.37
2022-11-15 21:18:59.5250,0.07,-1.0,0.97,1.39
2022-11-15 21:18:59.5450,0.09,-1.01,0.84,1.31
2022-11-15 21:18:59.5450,0.11,-0.88,0.67,1.11
2022-11-15 21:18:59.5610,0.15,-0.62,0.48,0.79
2022-11-15 21:18:59.5610,0.17,-0.29,0.3,0.45
2022-11-15 21:18:59.5760,0.1,0.02,0.16,0.18
2022-11-15 21:18:59.5770,0.0,0.28,0.14,0.31
2022-11-15 21:18:59.5930,-0.12,0.45,0.21,0.51
2022-11-15 21:18:59.5940,-0.25,0.53,0.35,0.68
2022-11-15 21:18:59.6250,-0.36,0.51,0.54,0.82
2022-11-15 21:18:59.6260,-0.45,0.44,0.67,0.91
2022-11-15 21:18:59.6450,-0.47,0.35,0.7,0.91
2022-11-15 21:18:59.6450,-0.42,0.26,0.67,0.83
2022-11-15 21:18:59.6600,-0.34,0.18,0.65,0.75
2022-11-15 21:18:59.6610,-0.3,0.14,0.62,0.7
2022-11-15 21:18:59.6760,-0.28,0.11,0.48,0.56
2022-11-15 21:18:59.6770,-0.31,0.06,0.31,0.44
2022-11-15 21:18:59.6930,-0.35,0.0,0.15,0.38
2022-11-15 21:18:59.6940,-0.37,-0.05,0.01,0.37
2022-11-15 21:18:59.7250,-0.34,-0.05,-0.07,0.35
2022-11-15 21:18:59.7250,-0.37,-0.04,-0.12,0.39
2022-11-15 21:18:59.7450,-0.45,-0.02,-0.15,0.47
2022-11-15 21:18:59.7450,-0.49,0.01,-0.14,0.5
2022-11-15 21:18:59.7610,-0.51,0.04,-0.09,0.51
2022-11-15 21:18:59.7610,-0.5,0.04,-0.06,0.5
2022-11-15 21:18:59.7760,-0.47,0.08,-0.07,0.48
2022-11-15 21:18:59.7770,-0.43,0.1,-0.1,0.45
2022-11-15 21:18:59.7930,-0.37,0.1,-0.18,0.42
2022-11-15 21:18:59.7940,-0.28,0.11,-0.24,0.38
2022-11-15 21:18:59.8250,-0.21,0.13,-0.31,0.39
2022-11-15 21:18:59.8260,-0.14,0.14,-0.33,0.38
2022-11-15 21:18:59.8450,-0.08,0.12,-0.33,0.36
2022-11-15 21:18:59.8450,-0.02,0.1,-0.34,0.35
2022-11-15 21:18:59.8600,0.01,0.06,-0.38,0.38
2022-11-15 21:18:59.8610,0.0,0.04,-0.43,0.43
2022-11-15 21:18:59.8760,-0.01,-0.01,-0.48,0.48
2022-11-15 21:18:59.8770,-0.05,-0.07,-0.49,0.49
2022-11-15 21:18:59.8930,-0.1,-0.13,-0.5,0.52
2022-11-15 21:18:59.8940,-0.16,-0.18,-0.48,0.53
2022-11-15 21:18:59.9250,-0.17,-0.23,-0.46,0.54
2022-11-15 21:18:59.9260,-0.15,-0.22,-0.42,0.49
2022-11-15 21:18:59.9450,-0.12,-0.18,-0.37,0.42
2022-11-15 21:18:59.9450,-0.1,-0.13,-0.35,0.38
2022-11-15 21:18:59.9610,-0.05,-0.11,-0.36,0.37
2022-11-15 21:18:59.9620,0.07,-0.11,-0.39,0.41
2022-11-15 21:18:59.9760,0.2,-0.11,-0.45,0.5
2022-11-15 21:18:59.9770,0.26,-0.1,-0.54,0.6
2022-11-15 21:18:59.9930,0.31,-0.11,-0.61,0.69
2022-11-15 21:18:59.9940,0.35,-0.12,-0.68,0.77
2022-11-15 21:19:00.0240,0.32,-0.17,-0.75,0.83
2022-11-15 21:19:00.0250,0.25,-0.23,-0.8,0.86
2022-11-15 21:19:00.0450,0.16,-0.26,-0.82,0.87
2022-11-15 21:19:00.0460,0.06,-0.28,-0.85,0.89
2022-11-15 21:19:00.0610,-0.03,-0.25,-0.85,0.88
2022-11-15 21:19:00.0610,-0.1,-0.17,-0.83,0.85
2022-11-15 21:19:00.0760,-0.18,-0.04,-0.75,0.77
2022-11-15 21:19:00.0770,-0.24,0.07,-0.65,0.69
2022-11-15 21:19:00.0930,-0.28,0.18,-0.52,0.61
2022-11-15 21:19:00.0940,-0.34,0.26,-0.35,0.55
2022-11-15 21:19:00.1250,-0.44,0.25,-0.18,0.53
2022-11-15 21:19:00.1260,-0.5,0.22,-0.03,0.54
2022-11-15 21:19:00.1450,-0.52,0.19,0.11,0.56
2022-11-15 21:19:00.1450,-0.48,0.16,0.22,0.55
2022-11-15 21:19:00.1600,-0.42,0.16,0.3,0.54
2022-11-15 21:19:00.1610,-0.36,0.14,0.34,0.51
2022-11-15 21:19:00.1760,-0.3,0.07,0.34,0.45
2022-11-15 21:19:00.1770,-0.21,-0.05,0.33,0.39
2022-11-15 21:19:00.1930,-0.1,-0.18,0.29,0.35
2022-11-15 21:19:00.1940,0.02,-0.31,0.2,0.36
2022-11-15 21:19:00.2270,0.13,-0.42,0.09,0.44
2022-11-15 21:19:00.2270,0.23,-0.52,-0.04,0.57
2022-11-15 21:19:00.2450,0.33,-0.61,-0.17,0.71
2022-11-15 21:19:00.2450,0.48,-0.7,-0.33,0.91
2022-11-15 21:19:00.2600,0.6,-0.73,-0.52,1.07
2022-11-15 21:19:00.2610,0.72,-0.69,-0.74,1.24
2022-11-15 21:19:00.2760,0.79,-0.61,-0.93,1.36
2022-11-15 21:19:00.2770,0.77,-0.5,-1.01,1.36
2022-11-15 21:19:00.2930,0.66,-0.41,-0.93,1.21
2022-11-15 21:19:00.2940,0.52,-0.27,-0.72,0.92
2022-11-15 21:19:00.3260,0.34,-0.11,-0.49,0.6
2022-11-15 21:19:00.3260,0.13,0.0,-0.25,0.28
2022-11-15 21:19:00.3450,-0.04,0.06,-0.03,0.07
2022-11-15 21:19:00.3450,-0.2,0.09,0.13,0.25
2022-11-15 21:19:00.3600,-0.31,0.13,0.22,0.4
2022-11-15 21:19:00.3610,-0.4,0.2,0.27,0.52
2022-11-15 21:19:00.3760,-0.46,0.25,0.27,0.58
2022-11-15 21:19:00.3770,-0.5,0.28,0.27,0.63
2022-11-15 21:19:00.3930,-0.49,0.34,0.23,0.63
2022-11-15 21:19:00.3940,-0.46,0.38,0.17,0.62
2022-11-15 21:19:00.4250,-0.39,0.39,0.14,0.56
2022-11-15 21:19:00.4260,-0.33,0.35,0.1,0.49
2022-11-15 21:19:00.4440,-0.27,0.28,0.08,0.39
2022-11-15 21:19:00.4450,-0.22,0.17,0.1,0.29
2022-11-15 21:19:00.4610,-0.11,0.05,0.05,0.13
2022-11-15 21:19:00.4610,-0.02,-0.06,0.01,0.06
2022-11-15 21:19:00.4760,0.04,-0.17,-0.06,0.18
2022-11-15 21:19:00.4770,0.1,-0.28,-0.13,0.32
2022-11-15 21:19:00.4930,0.17,-0.35,-0.18,0.42
2022-11-15 21:19:00.4940,0.25,-0.38,-0.21,0.5
2022-11-15 21:19:00.5270,0.31,-0.37,-0.22,0.53
2022-11-15 21:19:00.5280,0.39,-0.34,-0.25,0.57
2022-11-15 21:19:00.5440,0.45,-0.29,-0.25,0.59
2022-11-15 21:19:00.5450,0.49,-0.23,-0.22,0.58
2022-11-15 21:19:00.5600,0.51,-0.18,-0.19,0.57
2022-11-15 21:19:00.5610,0.53,-0.14,-0.21,0.58
2022-11-15 21:19:00.5770,0.52,-0.08,-0.24,0.57
2022-11-15 21:19:00.5770,0.52,-0.02,-0.29,0.59
2022-11-15 21:19:00.5930,0.49,0.05,-0.3,0.57
2022-11-15 21:19:00.5940,0.42,0.1,-0.29,0.52
2022-11-15 21:19:00.6260,0.31,0.11,-0.24,0.4
2022-11-15 21:19:00.6270,0.17,0.09,-0.14,0.23
2022-11-15 21:19:00.6440,0.04,0.04,-0.02,0.06
2022-11-15 21:19:00.6450,-0.06,0.0,0.11,0.12
2022-11-15 21:19:00.6610,-0.13,-0.06,0.23,0.27
2022-11-15 21:19:00.6610,-0.18,-0.13,0.31,0.38
2022-11-15 21:19:00.6760,-0.2,-0.19,0.29,0.4
2022-11-15 21:19:00.6770,-0.15,-0.22,0.19,0.32
2022-11-15 21:19:00.6930,-0.1,-0.21,0.08,0.24
2022-11-15 21:19:00.6940,-0.03,-0.16,-0.04,0.16
2022-11-15 21:19:00.7260,0.07,-0.07,-0.15,0.17
2022-11-15 21:19:00.7270,0.15,0.02,-0.2,0.25
2022-11-15 21:19:00.7440,0.2,0.09,-0.2,0.29
2022-11-15 21:19:00.7450,0.2,0.11,-0.19,0.29
2022-11-15 21:19:00.7600,0.13,0.14,-0.14,0.23
2022-11-15 21:19:00.7610,0.04,0.17,-0.1,0.2
2022-11-15 21:19:00.7760,-0.07,0.22,-0.11,0.25
2022-11-15 21:19:00.7770,-0.13,0.29,-0.04,0.32
2022-11-15 21:19:00.7930,-0.15,0.31,0.21,0.4
2022-11-15 21:19:00.7940,-0.19,0.18,0.36,0.44
2022-11-15 21:19:00.8250,-0.27,-0.03,0.38,0.46
2022-11-15 21:19:00.8260,-0.27,-0.19,0.39,0.51
2022-11-15 21:19:00.8450,-0.22,-0.27,0.33,0.47
2022-11-15 21:19:00.8450,-0.09,-0.3,0.19,0.36
2022-11-15 21:19:00.8600,0.05,-0.31,0.06,0.31
2022-11-15 21:19:00.8610,0.14,-0.26,-0.04,0.29
2022-11-15 21:19:00.8760,0.26,-0.18,-0.1,0.33
2022-11-15 21:19:00.8770,0.33,-0.1,-0.15,0.37
2022-11-15 21:19:00.8930,0.3,-0.03,-0.18,0.35
2022-11-15 21:19:00.8940,0.22,0.01,-0.19,0.29
2022-11-15 21:19:00.9250,0.12,0.03,-0.17,0.21
2022-11-15 21:19:00.9260,0.04,0.02,-0.13,0.13
2022-11-15 21:19:00.9450,-0.03,-0.01,-0.1,0.1
2022-11-15 21:19:00.9460,-0.07,-0.04,-0.05,0.09
2022-11-15 21:19:00.9600,-0.09,-0.04,0.02,0.1
2022-11-15 21:19:00.9610,-0.1,-0.05,0.08,0.13
2022-11-15 21:19:00.9760,-0.11,-0.04,0.1,0.15
2022-11-15 21:19:00.9770,-0.12,0.0,0.1,0.15
2022-11-15 21:19:00.9930,-0.16,0.05,0.12,0.2
2022-11-15 21:19:00.9940,-0.19,0.12,0.14,0.26
2022-11-15 21:19:01.0250,-0.18,0.16,0.21,0.31
2022-11-15 21:19:01.0260,-0.19,0.13,0.27,0.35
2022-11-15 21:19:01.0450,-0.2,0.07,0.29,0.35
2022-11-15 21:19:01.0460,-0.21,0.01,0.26,0.33
2022-11-15 21:19:01.0610,-0.21,-0.03,0.19,0.28
2022-11-15 21:19:01.0610,-0.18,-0.05,0.14,0.23
2022-11-15 21:19:01.0760,-0.13,-0.04,0.07,0.15
2022-11-15 21:19:01.0770,-0.08,-0.03,0.02,0.08
2022-11-15 21:19:01.0930,-0.03,-0.04,-0.03,0.05
2022-11-15 21:19:01.0940,-0.02,-0.03,-0.08,0.08
2022-11-15 21:19:01.1250,-0.03,-0.03,-0.12,0.12
2022-11-15 21:19:01.1260,-0.05,-0.02,-0.12,0.13
2022-11-15 21:19:01.1450,-0.08,-0.01,-0.09,0.12
2022-11-15 21:19:01.1460,-0.1,0.01,0.0,0.1
2022-11-15 21:19:01.1600,-0.08,0.02,0.09,0.12
2022-11-15 21:19:01.1610,-0.03,-0.01,0.17,0.17
