time,ax,ay,az,atotal
2022-11-15 21:18:35.8700,0.2,0.04,0.29,0.35
2022-11-15 21:18:35.8700,0.32,0.14,0.27,0.44
2022-11-15 21:18:35.8710,0.43,0.32,0.2,0.57
2022-11-15 21:18:35.8740,0.46,0.5,0.02,0.67
2022-11-15 21:18:35.8760,0.26,0.17,-0.22,0.38
2022-11-15 21:18:35.8770,0.32,0.07,-0.12,0.34
2022-11-15 21:18:35.8960,0.24,0.07,-0.09,0.26
2022-11-15 21:18:35.8970,0.13,0.08,-0.33,0.36
2022-11-15 21:18:35.9020,0.17,0.09,-0.33,0.38
2022-11-15 21:18:35.9120,0.18,0.09,-0.19,0.27
2022-11-15 21:18:35.9690,0.16,0.07,-0.18,0.25
2022-11-15 21:18:35.9700,0.17,0.07,-0.14,0.23
2022-11-15 21:18:35.9710,0.17,0.06,-0.06,0.19
2022-11-15 21:18:35.9720,0.2,0.09,0.03,0.22
2022-11-15 21:18:35.9750,0.21,0.12,-0.03,0.24
2022-11-15 21:18:35.9770,0.22,0.15,-0.09,0.28
2022-11-15 21:18:35.9820,0.24,0.14,-0.12,0.3
2022-11-15 21:18:35.9950,0.26,0.13,-0.12,0.31
2022-11-15 21:18:36.0020,0.27,0.09,-0.12,0.3
2022-11-15 21:18:36.0120,0.26,0.04,-0.12,0.28
2022-11-15 21:18:36.0690,0.26,0.0,-0.07,0.26
2022-11-15 21:18:36.0700,0.24,0.0,-0.1,0.26
2022-11-15 21:18:36.0710,0.22,0.05,-0.11,0.25
2022-11-15 21:18:36.0710,0.17,0.03,-0.04,0.17
2022-11-15 21:18:36.0730,0.13,-0.02,-0.01,0.13
2022-11-15 21:18:36.0750,0.09,-0.06,-0.02,0.1
2022-11-15 21:18:36.0820,0.04,-0.08,-0.05,0.1
2022-11-15 21:18:36.0930,0.01,-0.08,-0.06,0.1
2022-11-15 21:18:36.1030,-0.06,-0.04,-0.1,0.12
2022-11-15 21:18:36.1130,-0.12,0.0,-0.15,0.19
2022-11-15 21:18:36.1690,-0.15,0.05,-0.12,0.19
2022-11-15 21:18:36.1700,-0.17,0.08,-0.07,0.2
2022-11-15 21:18:36.1710,-0.18,0.1,-0.06,0.21
2022-11-15 21:18:36.1730,-0.17,0.14,-0.03,0.22
2022-11-15 21:18:36.1750,-0.16,0.14,-0.01,0.21
2022-11-15 21:18:36.1760,-0.14,0.11,0.04,0.18
2022-11-15 21:18:36.1830,-0.1,0.06,0.09,0.14
2022-11-15 21:18:36.1930,-0.04,0.07,0.04,0.09
2022-11-15 21:18:36.2030,0.0,0.07,0.03,0.07
2022-11-15 21:18:36.2130,0.06,0.05,0.03,0.08
2022-11-15 21:18:36.2690,0.13,0.05,0.02,0.14
2022-11-15 21:18:36.2700,0.09,0.01,-0.03,0.09
2022-11-15 21:18:36.2710,0.01,-0.01,-0.12,0.12
2022-11-15 21:18:36.2730,0.0,0.01,-0.14,0.14
2022-11-15 21:18:36.2760,0.0,0.02,-0.19,0.19
2022-11-15 21:18:36.2760,0.02,0.0,-0.18,0.18
2022-11-15 21:18:36.2830,0.07,-0.03,-0.13,0.15
2022-11-15 21:18:36.2930,0.07,-0.04,-0.09,0.12
2022-11-15 21:18:36.3030,0.06,-0.01,-0.06,0.08
2022-11-15 21:18:36.3140,0.03,0.03,-0.05,0.06
2022-11-15 21:18:36.3700,-0.02,0.06,-0.01,0.06
2022-11-15 21:18:36.3710,-0.04,0.08,0.01,0.09
2022-11-15 21:18:36.3720,-0.06,0.1,-0.01,0.11
2022-11-15 21:18:36.3740,-0.08,0.12,-0.05,0.15
2022-11-15 21:18:36.3760,-0.08,0.15,-0.06,0.18
2022-11-15 21:18:36.3770,-0.08,0.14,-0.04,0.16
2022-11-15 21:18:36.3950,-0.11,0.11,0.01,0.15
2022-11-15 21:18:36.3960,-0.12,0.09,0.08,0.17
2022-11-15 21:18:36.4030,-0.15,0.04,0.12,0.19
2022-11-15 21:18:36.4140,-0.16,0.0,0.06,0.17
2022-11-15 21:18:36.4710,-0.19,-0.02,0.04,0.19
2022-11-15 21:18:36.4720,-0.21,-0.04,0.01,0.21
2022-11-15 21:18:36.4720,-0.24,-0.04,0.0,0.24
2022-11-15 21:18:36.4740,-0.25,-0.04,0.03,0.25
2022-11-15 21:18:36.4760,-0.26,-0.04,0.01,0.26
2022-11-15 21:18:36.4770,-0.29,-0.02,-0.06,0.29
2022-11-15 21:18:36.4950,-0.31,0.0,-0.07,0.31
2022-11-15 21:18:36.4960,-0.31,0.03,-0.06,0.31
2022-11-15 21:18:36.5040,-0.3,0.01,-0.03,0.3
2022-11-15 21:18:36.5140,-0.29,0.0,-0.01,0.29
2022-11-15 21:18:36.5700,-0.26,0.02,0.02,0.26
2022-11-15 21:18:36.5710,-0.23,0.02,0.05,0.23
2022-11-15 21:18:36.5720,-0.21,0.02,0.07,0.22
2022-11-15 21:18:36.5740,-0.19,0.02,0.09,0.21
2022-11-15 21:18:36.5760,-0.19,0.0,0.07,0.2
2022-11-15 21:18:36.5770,-0.17,0.01,-0.01,0.17
2022-11-15 21:18:36.5960,-0.13,0.01,-0.06,0.14
2022-11-15 21:18:36.5970,-0.11,0.02,-0.04,0.11
2022-11-15 21:18:36.6040,-0.07,0.0,-0.06,0.09
2022-11-15 21:18:36.6140,-0.04,0.0,-0.07,0.08
2022-11-15 21:18:36.6700,-0.02,0.01,-0.08,0.08
2022-11-15 21:18:36.6700,-0.01,0.03,-0.11,0.11
2022-11-15 21:18:36.6710,0.02,0.05,-0.08,0.09
2022-11-15 21:18:36.6730,0.07,0.05,-0.01,0.08
2022-11-15 21:18:36.6750,0.12,0.05,0.02,0.13
2022-11-15 21:18:36.6760,0.11,0.05,0.02,0.12
2022-11-15 21:18:36.6840,0.12,0.06,0.03,0.13
2022-11-15 21:18:36.6940,0.13,0.07,0.03,0.15
2022-11-15 21:18:36.7040,0.11,0.08,0.02,0.13
2022-11-15 21:18:36.7140,0.09,0.07,0.02,0.11
2022-11-15 21:18:36.7700,0.09,0.06,0.01,0.1
2022-11-15 21:18:36.7710,0.08,0.05,-0.01,0.09
2022-11-15 21:18:36.7720,0.07,0.08,-0.04,0.11
2022-11-15 21:18:36.7740,0.08,0.09,-0.03,0.12
2022-11-15 21:18:36.7760,0.08,0.08,0.01,0.11
2022-11-15 21:18:36.7770,0.08,0.07,0.04,0.11
2022-11-15 21:18:36.7950,0.1,0.06,0.04,0.12
2022-11-15 21:18:36.7960,0.11,0.05,0.04,0.12
2022-11-15 21:18:36.8050,0.11,0.06,0.04,0.13
2022-11-15 21:18:36.8150,0.13,0.06,0.04,0.14
2022-11-15 21:18:36.8710,0.12,0.05,0.01,0.13
2022-11-15 21:18:36.8720,0.1,0.06,-0.04,0.12
2022-11-15 21:18:36.8720,0.09,0.04,-0.07,0.12
2022-11-15 21:18:36.8740,0.12,0.04,-0.05,0.13
2022-11-15 21:18:36.8760,0.12,0.02,-0.02,0.12
2022-11-15 21:18:36.8780,0.12,-0.01,-0.02,0.12
2022-11-15 21:18:36.8850,0.1,0.0,-0.03,0.1
2022-11-15 21:18:36.8950,0.07,0.04,-0.05,0.09
2022-11-15 21:18:36.9050,0.08,0.07,-0.02,0.1
2022-11-15 21:18:36.9150,0.05,0.06,0.02,0.08
2022-11-15 21:18:36.9700,0.04,0.06,0.03,0.07
2022-11-15 21:18:36.9710,0.03,0.04,-0.01,0.05
2022-11-15 21:18:36.9720,0.01,0.03,-0.04,0.05
2022-11-15 21:18:36.9740,-0.01,0.04,-0.07,0.08
2022-11-15 21:18:36.9760,0.01,0.03,-0.04,0.05
2022-11-15 21:18:36.9770,0.06,0.02,0.01,0.06
2022-11-15 21:18:36.9950,0.07,0.03,0.01,0.07
2022-11-15 21:18:36.9960,0.05,0.05,0.0,0.07
2022-11-15 21:18:37.0050,0.07,0.07,-0.02,0.1
2022-11-15 21:18:37.0150,0.04,0.08,-0.02,0.09
2022-11-15 21:18:37.0700,0.01,0.08,-0.02,0.08
2022-11-15 21:18:37.0700,0.01,0.07,-0.01,0.07
2022-11-15 21:18:37.0730,-0.02,0.07,0.02,0.07
2022-11-15 21:18:37.0740,-0.01,0.06,0.1,0.11
2022-11-15 21:18:37.0750,-0.01,0.05,0.12,0.13
2022-11-15 21:18:37.0760,-0.01,0.05,0.1,0.11
2022-11-15 21:18:37.0860,0.0,0.02,0.1,0.1
2022-11-15 21:18:37.0960,0.0,0.01,0.1,0.1
2022-11-15 21:18:37.1060,-0.02,-0.01,0.07,0.07
2022-11-15 21:18:37.1160,-0.05,0.0,0.02,0.05
2022-11-15 21:18:37.1700,-0.09,0.02,-0.03,0.09
2022-11-15 21:18:37.1710,-0.12,0.04,-0.08,0.14
2022-11-15 21:18:37.1720,-0.13,0.05,-0.09,0.16
2022-11-15 21:18:37.1740,-0.14,0.06,-0.07,0.16
2022-11-15 21:18:37.1760,-0.13,0.06,-0.06,0.15
2022-11-15 21:18:37.1780,-0.11,0.05,-0.02,0.12
2022-11-15 21:18:37.1950,-0.06,0.04,0.02,0.07
2022-11-15 21:18:37.1960,-0.03,0.06,0.03,0.07
2022-11-15 21:18:37.2060,-0.01,0.07,0.04,0.08
2022-11-15 21:18:37.2160,0.0,0.08,0.03,0.08
2022-11-15 21:18:37.2700,0.01,0.07,0.01,0.07
2022-11-15 21:18:37.2710,0.01,0.08,0.0,0.08
2022-11-15 21:18:37.2730,0.02,0.08,0.01,0.08
2022-11-15 21:18:37.2750,0.02,0.08,0.02,0.08
2022-11-15 21:18:37.2760,0.03,0.05,0.04,0.07
2022-11-15 21:18:37.2770,0.04,0.05,0.03,0.07
2022-11-15 21:18:37.2950,0.04,0.06,0.03,0.07
2022-11-15 21:18:37.2960,0.03,0.06,0.06,0.09
2022-11-15 21:18:37.3060,0.04,0.05,0.06,0.08
2022-11-15 21:18:37.3160,0.03,0.05,0.07,0.09
2022-11-15 21:18:37.3700,0.0,0.05,0.07,0.08
2022-11-15 21:18:37.3720,0.0,0.06,0.05,0.07
2022-11-15 21:18:37.3720,-0.04,0.05,0.05,0.08
2022-11-15 21:18:37.3730,-0.06,0.06,0.06,0.1
2022-11-15 21:18:37.3740,-0.07,0.07,0.08,0.12
2022-11-15 21:18:37.3770,-0.1,0.07,0.04,0.12
2022-11-15 21:18:37.3860,-0.1,0.07,0.02,0.12
2022-11-15 21:18:37.3960,-0.11,0.06,0.03,0.12
2022-11-15 21:18:37.4060,-0.1,0.03,0.04,0.11
2022-11-15 21:18:37.4170,-0.09,0.01,0.03,0.09
2022-11-15 21:18:37.4700,-0.09,0.02,0.02,0.09
2022-11-15 21:18:37.4720,-0.08,0.01,0.06,0.1
2022-11-15 21:18:37.4730,-0.06,0.0,0.09,0.1
2022-11-15 21:18:37.4730,-0.01,0.0,0.08,0.08
2022-11-15 21:18:37.4740,-0.01,0.02,0.03,0.03
2022-11-15 21:18:37.4770,0.01,0.04,0.01,0.04
2022-11-15 21:18:37.4860,0.04,0.07,0.03,0.08
2022-11-15 21:18:37.4970,0.03,0.07,0.04,0.08
2022-11-15 21:18:37.5070,0.04,0.07,0.05,0.09
2022-11-15 21:18:37.5170,0.07,0.07,0.1,0.14
2022-11-15 21:18:37.5710,0.07,0.04,0.11,0.13
2022-11-15 21:18:37.5720,0.07,0.06,0.1,0.13
2022-11-15 21:18:37.5730,0.06,0.08,0.06,0.11
2022-11-15 21:18:37.5740,0.02,0.09,0.01,0.09
2022-11-15 21:18:37.5760,-0.05,0.1,-0.01,0.11
2022-11-15 21:18:37.5770,-0.12,0.02,0.26,0.28
2022-11-15 21:18:37.5950,0.08,0.09,-0.04,0.12
2022-11-15 21:18:37.5970,-0.06,0.04,-0.17,0.18
2022-11-15 21:18:37.6070,-0.04,-0.01,-0.09,0.09
2022-11-15 21:18:37.6170,0.01,0.1,-0.02,0.1
2022-11-15 21:18:37.6700,0.01,0.07,-0.02,0.07
2022-11-15 21:18:37.6720,0.04,0.06,-0.03,0.07
2022-11-15 21:18:37.6730,0.04,0.05,0.01,0.06
2022-11-15 21:18:37.6730,0.03,0.05,0.02,0.06
2022-11-15 21:18:37.6740,0.03,0.05,0.03,0.06
2022-11-15 21:18:37.6950,0.02,0.05,0.04,0.06
2022-11-15 21:18:37.6960,0.01,0.04,0.03,0.05
2022-11-15 21:18:37.6970,0.01,0.04,0.04,0.05
2022-11-15 21:18:37.7070,0.0,0.02,0.05,0.05
2022-11-15 21:18:37.7180,-0.01,0.01,0.02,0.02
2022-11-15 21:18:37.7710,-0.03,0.0,0.01,0.03
2022-11-15 21:18:37.7730,-0.03,-0.01,0.0,0.03
2022-11-15 21:18:37.7730,-0.03,0.0,0.0,0.03
2022-11-15 21:18:37.7740,-0.04,0.01,0.0,0.04
2022-11-15 21:18:37.7760,-0.06,0.04,0.02,0.07
2022-11-15 21:18:37.7770,-0.06,0.06,0.0,0.08
2022-11-15 21:18:37.7950,-0.05,0.07,-0.02,0.08
2022-11-15 21:18:37.7980,-0.05,0.06,0.0,0.07
2022-11-15 21:18:37.8080,-0.05,0.05,-0.01,0.07
2022-11-15 21:18:37.8180,-0.05,0.06,-0.04,0.08
2022-11-15 21:18:37.8720,-0.04,0.05,-0.05,0.08
2022-11-15 21:18:37.8740,-0.03,0.04,-0.04,0.06
2022-11-15 21:18:37.8740,-0.04,0.03,-0.05,0.07
2022-11-15 21:18:37.8750,-0.03,0.03,-0.04,0.05
2022-11-15 21:18:37.8950,-0.01,0.04,-0.03,0.05
2022-11-15 21:18:37.8960,-0.01,0.05,-0.03,0.05
2022-11-15 21:18:37.8970,-0.01,0.04,0.0,0.04
2022-11-15 21:18:37.8990,-0.01,0.02,0.04,0.04
2022-11-15 21:18:37.9080,-0.01,0.01,0.04,0.04
2022-11-15 21:18:37.9180,-0.01,0.0,0.03,0.03
2022-11-15 21:18:37.9740,-0.03,-0.03,0.0,0.04
2022-11-15 21:18:37.9750,-0.04,-0.05,-0.03,0.07
2022-11-15 21:18:37.9760,-0.02,-0.08,-0.06,0.1
2022-11-15 21:18:37.9770,-0.03,-0.13,-0.12,0.17
2022-11-15 21:18:37.9780,-0.07,-0.16,-0.16,0.23
2022-11-15 21:18:37.9950,-0.06,-0.21,-0.19,0.28
2022-11-15 21:18:37.9960,-0.03,-0.24,-0.21,0.32
2022-11-15 21:18:37.9980,-0.05,-0.29,-0.2,0.35
2022-11-15 21:18:38.0080,-0.06,-0.39,-0.16,0.42
2022-11-15 21:18:38.0180,-0.04,-0.48,-0.11,0.49
2022-11-15 21:18:38.0720,-0.09,-0.47,-0.15,0.5
2022-11-15 21:18:38.0740,-0.24,-0.4,-0.18,0.5
2022-11-15 21:18:38.0750,-0.4,-0.32,-0.23,0.56
2022-11-15 21:18:38.0760,-0.56,-0.18,-0.29,0.65
2022-11-15 21:18:38.0950,-0.76,0.01,-0.28,0.81
2022-11-15 21:18:38.0960,-0.91,0.25,-0.2,0.96
2022-11-15 21:18:38.0980,-0.93,0.42,-0.08,1.02
2022-11-15 21:18:38.1010,-1.04,0.38,-0.01,1.1
2022-11-15 21:18:38.1080,-1.13,0.44,0.12,1.21
2022-11-15 21:18:38.1190,-1.23,0.51,0.16,1.34
2022-11-15 21:18:38.1730,-1.4,0.53,0.21,1.51
2022-11-15 21:18:38.1740,-1.55,0.54,0.29,1.66
2022-11-15 21:18:38.1750,-1.7,0.51,0.39,1.81
2022-11-15 21:18:38.1760,-1.8,0.42,0.45,1.9
2022-11-15 21:18:38.1950,-1.89,0.3,0.55,1.99
2022-11-15 21:18:38.1960,-1.96,0.16,0.62,2.06
2022-11-15 21:18:38.1970,-2.0,0.0,0.7,2.11
2022-11-15 21:18:38.1990,-2.02,-0.18,0.78,2.17
2022-11-15 21:18:38.2090,-2.02,-0.39,0.83,2.21
2022-11-15 21:18:38.2190,-2.01,-0.6,0.82,2.25
2022-11-15 21:18:38.2680,-2.03,-0.72,0.69,2.26
2022-11-15 21:18:38.2690,-1.95,-0.71,0.49,2.13
2022-11-15 21:18:38.2700,-1.82,-0.52,0.27,1.91
2022-11-15 21:18:38.2710,-1.63,-0.24,0.17,1.65
2022-11-15 21:18:38.2710,-1.43,-0.03,0.17,1.44
2022-11-15 21:18:38.2790,-1.19,0.06,0.07,1.19
2022-11-15 21:18:38.2890,-0.91,0.11,-0.06,0.91
2022-11-15 21:18:38.2990,-0.61,0.23,-0.19,0.67
2022-11-15 21:18:38.3090,-0.31,0.34,-0.3,0.54
2022-11-15 21:18:38.3190,-0.05,0.39,-0.43,0.58
2022-11-15 21:18:38.3690,0.2,0.4,-0.57,0.72
2022-11-15 21:18:38.3710,0.43,0.39,-0.65,0.87
2022-11-15 21:18:38.3710,0.66,0.39,-0.64,0.99
2022-11-15 21:18:38.3720,0.91,0.35,-0.58,1.13
2022-11-15 21:18:38.3740,1.18,0.22,-0.52,1.3
2022-11-15 21:18:38.3790,1.45,-0.23,-0.4,1.52
2022-11-15 21:18:38.3890,1.68,-0.75,-0.19,1.84
2022-11-15 21:18:38.3990,1.9,-1.12,-0.06,2.2
2022-11-15 21:18:38.4090,2.07,-1.29,-0.01,2.43
2022-11-15 21:18:38.4200,2.22,-1.47,0.01,2.66
2022-11-15 21:18:38.4670,2.04,-1.77,0.08,2.7
2022-11-15 21:18:38.4690,1.65,-1.91,-0.08,2.52
2022-11-15 21:18:38.4700,1.4,-1.76,-0.28,2.26
2022-11-15 21:18:38.4710,1.13,-1.74,-0.23,2.08
2022-11-15 21:18:38.4710,0.99,-1.43,-0.16,1.74
2022-11-15 21:18:38.4800,1.11,-1.14,0.15,1.59
2022-11-15 21:18:38.4900,1.39,-0.66,0.56,1.63
2022-11-15 21:18:38.5000,1.47,-0.07,0.9,1.72
2022-11-15 21:18:38.5100,1.19,0.22,0.91,1.51
2022-11-15 21:18:38.5200,1.1,0.82,0.53,1.47
2022-11-15 21:18:38.5680,0.78,1.06,0.25,1.33
2022-11-15 21:18:38.5700,0.48,1.12,0.15,1.22
2022-11-15 21:18:38.5710,-0.28,0.97,0.5,1.12
2022-11-15 21:18:38.5710,-0.61,0.51,0.66,1.03
2022-11-15 21:18:38.5720,-0.51,0.43,0.72,0.98
2022-11-15 21:18:38.5800,-0.47,0.5,0.87,1.1
2022-11-15 21:18:38.5900,-0.5,0.57,0.95,1.21
2022-11-15 21:18:38.6000,-0.78,0.6,0.94,1.36
2022-11-15 21:18:38.6100,-1.32,0.65,0.85,1.69
2022-11-15 21:18:38.6200,-1.7,0.74,0.63,1.95
2022-11-15 21:18:38.6690,-1.75,0.9,0.34,1.99
2022-11-15 21:18:38.6700,-1.52,1.23,0.08,1.95
2022-11-15 21:18:38.6710,-1.27,1.79,-0.12,2.19
2022-11-15 21:18:38.6720,-1.17,2.38,-0.28,2.66
2022-11-15 21:18:38.6730,-0.96,2.78,-0.41,2.96
2022-11-15 21:18:38.6800,-0.69,2.92,-0.33,3.01
2022-11-15 21:18:38.6900,-0.65,2.87,-0.09,2.94
2022-11-15 21:18:38.7000,-0.74,2.77,0.15,2.87
2022-11-15 21:18:38.7100,-0.82,2.58,0.32,2.72
2022-11-15 21:18:38.7200,-0.81,2.29,0.4,2.46
2022-11-15 21:18:38.7700,-0.92,1.86,0.52,2.13
2022-11-15 21:18:38.7720,-1.1,1.42,0.79,1.96
2022-11-15 21:18:38.7730,-1.2,1.07,1.22,2.01
2022-11-15 21:18:38.7740,-1.34,0.7,1.65,2.23
2022-11-15 21:18:38.7740,-1.67,0.34,1.97,2.6
2022-11-15 21:18:38.7810,-1.97,0.03,2.03,2.82
2022-11-15 21:18:38.7900,-2.25,-0.31,1.9,2.96
2022-11-15 21:18:38.8010,-2.49,-0.66,1.78,3.13
2022-11-15 21:18:38.8110,-2.68,-0.96,1.66,3.29
2022-11-15 21:18:38.8210,-2.78,-1.07,1.58,3.37
2022-11-15 21:18:38.8660,-2.75,-1.01,1.57,3.32
2022-11-15 21:18:38.8680,-2.52,-0.83,1.59,3.09
2022-11-15 21:18:38.8680,-2.13,-0.6,1.69,2.78
2022-11-15 21:18:38.8690,-1.85,-0.5,1.85,2.66
2022-11-15 21:18:38.8710,-1.66,-0.46,1.97,2.61
2022-11-15 21:18:38.8810,-1.34,-0.44,1.97,2.42
2022-11-15 21:18:38.8910,-0.7,-0.55,1.76,1.97
2022-11-15 21:18:38.9010,0.09,-0.88,1.43,1.68
2022-11-15 21:18:38.9110,0.56,-1.5,1.31,2.06
2022-11-15 21:18:38.9210,0.19,-2.39,1.57,2.86
2022-11-15 21:18:38.9670,-1.0,-3.17,1.79,3.77
2022-11-15 21:18:38.9690,-1.66,-3.57,1.95,4.39
2022-11-15 21:18:38.9690,-1.54,-3.41,1.85,4.17
2022-11-15 21:18:38.9700,-1.15,-3.02,1.42,3.52
2022-11-15 21:18:38.9710,-0.59,-2.3,0.88,2.53
2022-11-15 21:18:38.9810,-0.26,-1.57,0.58,1.69
2022-11-15 21:18:38.9910,0.0,-0.9,0.38,0.97
2022-11-15 21:18:39.0010,0.24,-0.4,0.07,0.47
2022-11-15 21:18:39.0110,0.52,-0.18,-0.2,0.58
2022-11-15 21:18:39.0210,0.74,0.14,-0.2,0.77
2022-11-15 21:18:39.0670,0.77,0.46,-0.06,0.89
2022-11-15 21:18:39.0690,0.81,0.63,0.03,1.02
2022-11-15 21:18:39.0700,0.74,0.64,-0.03,0.97
2022-11-15 21:18:39.0720,0.63,0.63,-0.14,0.9
2022-11-15 21:18:39.0740,0.59,0.59,-0.26,0.87
2022-11-15 21:18:39.0810,0.62,0.54,-0.23,0.85
2022-11-15 21:18:39.0910,0.62,0.52,0.01,0.8
2022-11-15 21:18:39.1020,0.57,0.52,0.29,0.82
2022-11-15 21:18:39.1110,0.58,0.58,0.34,0.88
2022-11-15 21:18:39.1220,0.6,0.69,0.2,0.93
2022-11-15 21:18:39.1680,0.59,0.82,-0.03,1.01
2022-11-15 21:18:39.1690,0.5,0.91,-0.37,1.1
2022-11-15 21:18:39.1700,0.19,1.0,-0.76,1.27
2022-11-15 21:18:39.1710,-0.08,1.19,-1.12,1.63
2022-11-15 21:18:39.1720,-0.25,1.45,-1.44,2.05
2022-11-15 21:18:39.1820,-0.4,1.66,-1.66,2.38
2022-11-15 21:18:39.1920,-0.48,1.83,-1.81,2.61
2022-11-15 21:18:39.2020,-0.57,1.95,-1.85,2.74
2022-11-15 21:18:39.2120,-0.56,2.11,-1.88,2.88
2022-11-15 21:18:39.2220,-0.71,2.15,-1.85,2.92
2022-11-15 21:18:39.2670,-1.07,1.88,-1.81,2.82
2022-11-15 21:18:39.2690,-1.48,1.33,-1.69,2.61
2022-11-15 21:18:39.2700,-1.68,0.66,-1.68,2.46
2022-11-15 21:18:39.2700,-1.43,0.19,-1.79,2.29
2022-11-15 21:18:39.2720,-1.07,-0.06,-1.31,1.69
2022-11-15 21:18:39.2820,-0.6,0.04,-0.92,1.09
2022-11-15 21:18:39.2920,-0.28,0.2,-0.89,0.95
2022-11-15 21:18:39.3020,0.12,0.37,-0.96,1.03
2022-11-15 21:18:39.3120,0.38,0.4,-0.68,0.87
2022-11-15 21:18:39.3220,0.52,0.4,-0.3,0.72
2022-11-15 21:18:39.3680,0.59,0.4,0.16,0.73
2022-11-15 21:18:39.3690,0.6,0.22,0.59,0.86
2022-11-15 21:18:39.3700,0.6,-0.03,0.88,1.06
2022-11-15 21:18:39.3710,0.51,-0.26,1.13,1.26
2022-11-15 21:18:39.3730,0.3,-0.5,1.3,1.42
2022-11-15 21:18:39.3830,0.06,-0.57,1.35,1.46
2022-11-15 21:18:39.3920,-0.23,-0.38,1.27,1.34
2022-11-15 21:18:39.4030,-0.53,-0.05,1.23,1.34
2022-11-15 21:18:39.4130,-0.74,0.25,1.23,1.45
2022-11-15 21:18:39.4230,-0.8,0.43,1.15,1.46
2022-11-15 21:18:39.4690,-0.95,0.53,1.14,1.57
2022-11-15 21:18:39.4700,-1.02,0.43,1.05,1.52
2022-11-15 21:18:39.4710,-1.06,0.3,0.93,1.44
2022-11-15 21:18:39.4760,-1.03,0.18,0.85,1.34
2022-11-15 21:18:39.4770,-0.94,0.01,0.83,1.25
2022-11-15 21:18:39.4830,-0.78,-0.14,0.82,1.14
2022-11-15 21:18:39.4920,-0.63,-0.41,0.77,1.07
2022-11-15 21:18:39.5030,-0.57,-0.63,0.63,1.05
2022-11-15 21:18:39.5130,-0.54,-0.68,0.42,0.96
2022-11-15 21:18:39.5230,-0.74,-0.69,0.23,1.03
2022-11-15 21:18:39.5680,-1.06,-0.63,0.05,1.23
2022-11-15 21:18:39.5700,-1.42,-0.48,-0.04,1.49
2022-11-15 21:18:39.5710,-1.73,-0.15,-0.1,1.73
2022-11-15 21:18:39.5760,-1.94,0.25,-0.18,1.96
2022-11-15 21:18:39.5770,-2.09,0.46,-0.42,2.18
2022-11-15 21:18:39.5830,-1.91,0.27,-0.75,2.06
2022-11-15 21:18:39.5930,-1.27,-0.52,-0.5,1.46
2022-11-15 21:18:39.6030,-0.69,-1.6,-0.37,1.78
2022-11-15 21:18:39.6130,-0.14,-2.43,-0.95,2.61
2022-11-15 21:18:39.6230,0.49,-2.69,-1.42,3.08
2022-11-15 21:18:39.6700,0.64,-2.43,-1.03,2.71
2022-11-15 21:18:39.6720,0.5,-1.99,-0.36,2.08
2022-11-15 21:18:39.6730,0.49,-1.66,-0.23,1.74
2022-11-15 21:18:39.6760,0.4,-1.87,-0.46,1.96
2022-11-15 21:18:39.6770,0.48,-2.57,-0.72,2.71
2022-11-15 21:18:39.6830,0.8,-3.04,-0.91,3.27
2022-11-15 21:18:39.6930,0.97,-3.08,-0.92,3.35
2022-11-15 21:18:39.7040,0.98,-2.77,-0.81,3.04
2022-11-15 21:18:39.7140,0.93,-2.12,-0.76,2.43
2022-11-15 21:18:39.7230,0.94,-1.07,-0.77,1.61
2022-11-15 21:18:39.7690,0.96,0.07,-0.76,1.22
2022-11-15 21:18:39.7710,1.02,0.94,-0.74,1.57
2022-11-15 21:18:39.7720,1.13,1.51,-0.67,2.0
2022-11-15 21:18:39.7720,1.3,1.82,-0.71,2.34
2022-11-15 21:18:39.7730,1.38,1.92,-0.82,2.5
2022-11-15 21:18:39.7840,1.44,1.9,-0.92,2.55
2022-11-15 21:18:39.7930,1.41,1.92,-0.91,2.55
2022-11-15 21:18:39.8040,1.26,1.77,-0.96,2.37
2022-11-15 21:18:39.8140,1.11,1.7,-0.94,2.23
2022-11-15 21:18:39.8240,0.85,1.15,-0.72,1.6
2022-11-15 21:18:39.8710,0.6,0.22,-0.58,0.86
2022-11-15 21:18:39.8720,0.56,-0.33,-0.46,0.79
2022-11-15 21:18:39.8740,0.58,-0.57,-0.05,0.81
2022-11-15 21:18:39.8770,0.61,-0.91,0.43,1.17
2022-11-15 21:18:39.8770,0.77,-0.93,0.76,1.42
2022-11-15 21:18:39.8950,0.92,-0.65,0.9,1.44
2022-11-15 21:18:39.8950,0.84,-0.32,0.88,1.25
2022-11-15 21:18:39.9040,0.75,0.05,0.74,1.05
2022-11-15 21:18:39.9140,0.71,0.51,0.45,0.98
2022-11-15 21:18:39.9240,0.55,0.89,0.18,1.06
2022-11-15 21:18:39.9690,0.16,1.19,0.05,1.2
2022-11-15 21:18:39.9700,-0.15,1.47,-0.05,1.47
2022-11-15 21:18:39.9720,-0.4,1.76,-0.01,1.8
2022-11-15 21:18:39.9750,-0.53,2.11,0.16,2.18
2022-11-15 21:18:39.9770,-0.47,2.41,0.45,2.49
2022-11-15 21:18:39.9840,-0.54,2.56,0.79,2.73
2022-11-15 21:18:39.9950,-0.87,2.74,0.95,3.02
2022-11-15 21:18:40.0040,-1.2,2.94,0.83,3.28
2022-11-15 21:18:40.0140,-1.43,3.08,0.53,3.43
2022-11-15 21:18:40.0240,-1.59,3.1,0.19,3.48
2022-11-15 21:18:40.0710,-1.72,2.87,-0.07,3.34
2022-11-15 21:18:40.0720,-1.82,2.38,-0.24,3.0
2022-11-15 21:18:40.0740,-1.87,1.88,-0.05,2.65
2022-11-15 21:18:40.0760,-1.94,1.47,0.4,2.46
2022-11-15 21:18:40.0770,-1.8,1.02,0.75,2.2
2022-11-15 21:18:40.0940,-1.66,0.56,0.95,1.99
2022-11-15 21:18:40.0950,-1.68,0.13,1.1,2.01
2022-11-15 21:18:40.1040,-1.71,-0.4,1.27,2.16
2022-11-15 21:18:40.1140,-1.7,-0.98,1.42,2.42
2022-11-15 21:18:40.1250,-1.82,-1.45,1.53,2.78
2022-11-15 21:18:40.1700,-1.9,-1.53,1.6,2.91
2022-11-15 21:18:40.1710,-1.73,-1.47,1.68,2.82
2022-11-15 21:18:40.1730,-1.46,-1.46,1.67,2.65
2022-11-15 21:18:40.1760,-1.24,-1.43,1.61,2.48
2022-11-15 21:18:40.1770,-1.12,-1.35,1.61,2.38
2022-11-15 21:18:40.1950,-1.18,-0.98,1.74,2.31
2022-11-15 21:18:40.1960,-1.09,-0.34,2.0,2.3
2022-11-15 21:18:40.2050,-0.34,0.1,2.37,2.39
2022-11-15 21:18:40.2150,1.42,-0.07,2.52,2.89
2022-11-15 21:18:40.2250,2.88,-0.99,1.99,3.63
2022-11-15 21:18:40.2700,2.42,-2.48,0.59,3.51
2022-11-15 21:18:40.2710,0.78,-4.27,-0.59,4.38
2022-11-15 21:18:40.2730,0.31,-5.79,-0.73,5.84
2022-11-15 21:18:40.2750,0.83,-6.32,-0.89,6.43
2022-11-15 21:18:40.2760,1.53,-5.16,-1.4,5.56
2022-11-15 21:18:40.2850,1.79,-3.23,-1.64,4.04
2022-11-15 21:18:40.2950,2.04,-1.55,-1.46,2.94
2022-11-15 21:18:40.3050,2.44,-0.39,-1.14,2.72
2022-11-15 21:18:40.3150,2.69,0.24,-0.96,2.86
2022-11-15 21:18:40.3250,2.69,0.7,-1.17,3.01
2022-11-15 21:18:40.3700,2.49,1.29,-1.55,3.2
2022-11-15 21:18:40.3710,2.18,1.82,-1.82,3.37
2022-11-15 21:18:40.3730,1.85,2.17,-1.85,3.39
2022-11-15 21:18:40.3760,1.54,2.39,-1.72,3.32
2022-11-15 21:18:40.3770,1.29,2.44,-1.55,3.16
2022-11-15 21:18:40.3950,1.14,2.39,-1.29,2.94
2022-11-15 21:18:40.3960,0.96,2.25,-0.96,2.62
2022-11-15 21:18:40.4050,0.77,2.04,-0.65,2.27
2022-11-15 21:18:40.4160,0.74,1.89,-0.63,2.12
2022-11-15 21:18:40.4250,0.85,1.9,-0.84,2.24
2022-11-15 21:18:40.4720,0.54,1.97,-0.85,2.21
2022-11-15 21:18:40.4740,0.4,1.79,-1.22,2.2
2022-11-15 21:18:40.4750,0.18,1.52,-1.54,2.17
2022-11-15 21:18:40.4760,-0.04,1.18,-1.81,2.16
2022-11-15 21:18:40.4950,-0.05,0.77,-2.09,2.22
2022-11-15 21:18:40.4960,0.02,0.43,-2.23,2.27
2022-11-15 21:18:40.4970,0.18,0.25,-2.22,2.24
2022-11-15 21:18:40.5060,0.35,0.14,-1.8,1.83
2022-11-15 21:18:40.5160,0.56,-0.13,-1.63,1.72
2022-11-15 21:18:40.5260,0.65,-0.44,-1.62,1.8
2022-11-15 21:18:40.5710,0.6,-0.56,-1.33,1.56
2022-11-15 21:18:40.5730,0.56,-0.44,-1.07,1.28
2022-11-15 21:18:40.5730,0.5,-0.2,-0.62,0.82
2022-11-15 21:18:40.5740,0.52,0.12,-0.17,0.56
2022-11-15 21:18:40.5760,0.48,0.45,0.23,0.69
2022-11-15 21:18:40.5950,0.37,0.78,0.47,0.98
2022-11-15 21:18:40.5960,0.19,0.98,0.5,1.11
2022-11-15 21:18:40.6060,-0.13,0.94,0.52,1.08
2022-11-15 21:18:40.6160,-0.48,0.85,0.54,1.11
2022-11-15 21:18:40.6260,-0.77,0.73,0.56,1.19
2022-11-15 21:18:40.6720,-0.92,0.5,0.53,1.17
2022-11-15 21:18:40.6730,-0.98,0.3,0.52,1.14
2022-11-15 21:18:40.6750,-1.01,0.18,0.48,1.13
2022-11-15 21:18:40.6760,-1.01,0.08,0.47,1.11
2022-11-15 21:18:40.6780,-1.02,0.0,0.47,1.12
2022-11-15 21:18:40.6860,-1.07,-0.09,0.4,1.14
2022-11-15 21:18:40.6960,-1.06,-0.2,0.26,1.1
2022-11-15 21:18:40.7060,-1.0,-0.24,0.24,1.05
2022-11-15 21:18:40.7160,-0.95,-0.22,0.35,1.03
2022-11-15 21:18:40.7260,-0.85,-0.1,0.42,0.95
2022-11-15 21:18:40.7710,-0.67,0.13,0.42,0.8
2022-11-15 21:18:40.7720,-0.44,0.36,0.47,0.73
2022-11-15 21:18:40.7730,-0.26,0.49,0.57,0.79
2022-11-15 21:18:40.7750,-0.11,0.55,0.65,0.85
2022-11-15 21:18:40.7760,0.06,0.56,0.69,0.89
2022-11-15 21:18:40.7870,0.15,0.51,0.81,0.96
2022-11-15 21:18:40.7970,0.09,0.51,0.89,1.02
2022-11-15 21:18:40.8070,-0.15,0.66,0.89,1.11
2022-11-15 21:18:40.8170,-0.49,0.73,0.93,1.27
2022-11-15 21:18:40.8270,-0.85,0.75,1.12,1.59
2022-11-15 21:18:40.8720,-1.17,0.74,1.32,1.91
2022-11-15 21:18:40.8730,-1.49,0.58,1.36,2.09
2022-11-15 21:18:40.8730,-1.79,0.24,1.31,2.23
2022-11-15 21:18:40.8760,-1.94,-0.15,1.14,2.25
2022-11-15 21:18:40.8950,-1.96,-0.54,0.74,2.16
2022-11-15 21:18:40.8960,-1.91,-1.06,0.18,2.19
2022-11-15 21:18:40.8970,-1.9,-1.87,-0.12,2.66
2022-11-15 21:18:40.9070,-1.91,-2.73,-0.43,3.35
2022-11-15 21:18:40.9170,-1.73,-3.3,-0.91,3.83
2022-11-15 21:18:40.9270,-1.53,-3.48,-1.08,3.95
2022-11-15 21:18:40.9710,-1.34,-3.42,-0.85,3.77
2022-11-15 21:18:40.9720,-1.14,-3.19,-0.69,3.45
2022-11-15 21:18:40.9730,-0.87,-3.09,-0.56,3.25
2022-11-15 21:18:40.9750,-0.28,-3.1,-0.49,3.15
2022-11-15 21:18:40.9770,0.37,-3.13,-0.51,3.19
2022-11-15 21:18:40.9870,0.99,-3.05,-0.45,3.23
2022-11-15 21:18:40.9970,1.37,-2.74,-0.4,3.08
2022-11-15 21:18:41.0070,1.49,-2.21,-0.48,2.7
2022-11-15 21:18:41.0170,1.7,-1.51,-0.62,2.35
2022-11-15 21:18:41.0270,1.77,-0.59,-0.7,1.99
2022-11-15 21:18:41.0720,1.53,0.37,-0.78,1.75
2022-11-15 21:18:41.0730,0.99,1.02,-0.69,1.58
2022-11-15 21:18:41.0730,0.73,1.58,-0.65,1.85
2022-11-15 21:18:41.0760,0.81,2.14,-0.58,2.36
2022-11-15 21:18:41.0770,0.93,2.25,-0.45,2.47
2022-11-15 21:18:41.0940,1.01,1.95,-0.41,2.23
2022-11-15 21:18:41.0970,1.14,1.52,-0.47,1.95
2022-11-15 21:18:41.1080,1.2,1.15,-0.59,1.76
2022-11-15 21:18:41.1170,1.14,0.85,-0.73,1.59
2022-11-15 21:18:41.1280,1.0,0.5,-0.81,1.38
2022-11-15 21:18:41.1720,0.89,0.11,-0.83,1.22
2022-11-15 21:18:41.1730,0.86,-0.43,-0.73,1.2
2022-11-15 21:18:41.1730,0.82,-0.92,-0.45,1.31
2022-11-15 21:18:41.1760,0.68,-1.38,-0.22,1.55
2022-11-15 21:18:41.1780,0.53,-1.43,-0.29,1.55
2022-11-15 21:18:41.1880,0.47,-1.13,-0.35,1.27
2022-11-15 21:18:41.1980,0.66,-0.74,-0.22,1.01
2022-11-15 21:18:41.2080,0.78,-0.08,-0.06,0.78
2022-11-15 21:18:41.2180,0.62,0.43,0.08,0.75
2022-11-15 21:18:41.2280,0.45,0.89,-0.12,1.0
2022-11-15 21:18:41.2730,0.23,1.3,-0.36,1.36
2022-11-15 21:18:41.2740,0.05,1.51,-0.45,1.57
2022-11-15 21:18:41.2740,-0.01,1.53,-0.44,1.59
2022-11-15 21:18:41.2760,0.02,1.44,-0.33,1.47
2022-11-15 21:18:41.2950,0.01,1.38,-0.25,1.4
2022-11-15 21:18:41.2960,0.02,1.38,-0.25,1.4
2022-11-15 21:18:41.2980,-0.1,1.48,-0.05,1.48
2022-11-15 21:18:41.3080,-0.32,1.43,0.08,1.46
2022-11-15 21:18:41.3180,-0.44,1.45,0.12,1.52
2022-11-15 21:18:41.3280,-0.55,1.63,0.04,1.72
2022-11-15 21:18:41.3730,-0.64,1.88,-0.09,1.98
2022-11-15 21:18:41.3730,-0.67,2.08,-0.16,2.19
2022-11-15 21:18:41.3740,-0.75,2.35,-0.11,2.46
2022-11-15 21:18:41.3760,-0.9,2.39,-0.04,2.55
2022-11-15 21:18:41.3950,-1.05,2.24,-0.22,2.48
2022-11-15 21:18:41.3960,-1.09,2.07,-0.48,2.38
2022-11-15 21:18:41.3980,-1.22,2.0,-0.53,2.4
2022-11-15 21:18:41.4080,-1.4,1.84,-0.27,2.32
2022-11-15 21:18:41.4190,-1.56,1.68,0.24,2.3
2022-11-15 21:18:41.4280,-1.45,1.46,0.65,2.15
2022-11-15 21:18:41.4730,-1.09,1.1,0.85,1.76
2022-11-15 21:18:41.4740,-0.8,0.55,0.89,1.31
2022-11-15 21:18:41.4750,-0.72,-0.1,0.89,1.14
2022-11-15 21:18:41.4770,-0.85,-0.66,0.96,1.44
2022-11-15 21:18:41.4790,-1.2,-1.07,0.95,1.86
2022-11-15 21:18:41.4890,-1.61,-1.19,0.97,2.22
2022-11-15 21:18:41.4990,-1.75,-1.28,1.11,2.43
2022-11-15 21:18:41.5090,-1.58,-1.4,1.36,2.51
2022-11-15 21:18:41.5190,-1.27,-1.44,1.65,2.53
2022-11-15 21:18:41.5290,-1.03,-1.44,2.02,2.68
2022-11-15 21:18:41.5730,-0.78,-1.31,2.44,2.87
2022-11-15 21:18:41.5740,-0.16,-1.12,2.93,3.14
2022-11-15 21:18:41.5750,0.89,-1.41,3.47,3.84
2022-11-15 21:18:41.5760,1.9,-2.43,3.53,4.68
2022-11-15 21:18:41.5950,1.5,-3.59,2.59,4.67
2022-11-15 21:18:41.5960,-0.14,-4.55,0.85,4.63
2022-11-15 21:18:41.5990,-0.65,-5.18,-0.29,5.22
2022-11-15 21:18:41.6090,-0.08,-5.22,-1.2,5.35
2022-11-15 21:18:41.6190,0.3,-4.32,-2.01,4.77
2022-11-15 21:18:41.6290,0.45,-2.73,-2.12,3.48
2022-11-15 21:18:41.6730,0.86,-1.18,-1.94,2.42
2022-11-15 21:18:41.6740,1.75,0.15,-1.64,2.4
2022-11-15 21:18:41.6750,2.45,1.04,-1.31,2.96
2022-11-15 21:18:41.6770,2.62,1.45,-1.23,3.23
2022-11-15 21:18:41.6800,2.46,1.66,-1.33,3.25
2022-11-15 21:18:41.6890,2.2,1.87,-1.42,3.21
2022-11-15 21:18:41.6990,1.88,2.1,-1.41,3.15
2022-11-15 21:18:41.7090,1.46,2.15,-1.39,2.94
2022-11-15 21:18:41.7190,1.12,2.0,-1.38,2.67
2022-11-15 21:18:41.7300,1.03,1.81,-1.28,2.44
2022-11-15 21:18:41.7740,0.92,1.77,-1.0,2.23
2022-11-15 21:18:41.7750,0.7,1.76,-0.57,1.97
2022-11-15 21:18:41.7760,0.51,1.8,-0.26,1.88
2022-11-15 21:18:41.7780,0.43,1.78,-0.25,1.84
2022-11-15 21:18:41.7800,0.55,1.75,-0.63,1.93
2022-11-15 21:18:41.7900,0.36,1.67,-0.88,1.92
2022-11-15 21:18:41.8000,0.24,1.16,-1.63,2.01
2022-11-15 21:18:41.8100,0.27,0.74,-2.12,2.26
2022-11-15 21:18:41.8200,0.2,0.33,-2.09,2.12
2022-11-15 21:18:41.8300,0.13,0.08,-1.98,1.98
2022-11-15 21:18:41.8760,0.13,0.03,-1.81,1.81
2022-11-15 21:18:41.8770,0.22,-0.09,-1.89,1.9
2022-11-15 21:18:41.8770,0.18,-0.27,-1.81,1.83
2022-11-15 21:18:41.8790,0.2,-0.38,-1.49,1.55
2022-11-15 21:18:41.8810,0.19,-0.37,-1.22,1.28
2022-11-15 21:18:41.8900,0.1,-0.32,-1.01,1.06
2022-11-15 21:18:41.9000,0.0,-0.14,-0.75,0.76
2022-11-15 21:18:41.9100,-0.04,0.15,-0.4,0.42
2022-11-15 21:18:41.9200,0.01,0.51,-0.08,0.51
2022-11-15 21:18:41.9300,0.13,0.9,0.18,0.92
2022-11-15 21:18:41.9750,0.24,1.18,0.41,1.27
2022-11-15 21:18:41.9760,0.24,1.26,0.57,1.4
2022-11-15 21:18:41.9770,0.19,1.32,0.67,1.49
2022-11-15 21:18:41.9790,0.03,1.18,0.71,1.37
2022-11-15 21:18:41.9810,-0.21,1.11,0.67,1.31
2022-11-15 21:18:41.9900,-0.4,0.87,0.74,1.21
2022-11-15 21:18:42.0000,-0.54,0.6,0.84,1.16
2022-11-15 21:18:42.0100,-0.55,0.42,0.87,1.11
2022-11-15 21:18:42.0200,-0.58,0.26,0.97,1.15
2022-11-15 21:18:42.0300,-0.64,-0.09,0.89,1.09
2022-11-15 21:18:42.0750,-0.62,-0.33,0.62,0.93
2022-11-15 21:18:42.0760,-0.65,-0.5,0.36,0.89
2022-11-15 21:18:42.0770,-0.77,-0.57,0.21,0.98
2022-11-15 21:18:42.0790,-0.83,-0.44,0.21,0.96
2022-11-15 21:18:42.0810,-0.8,-0.24,0.36,0.9
2022-11-15 21:18:42.0900,-0.66,0.0,0.5,0.82
2022-11-15 21:18:42.1010,-0.54,0.31,0.69,0.92
2022-11-15 21:18:42.1110,-0.41,0.54,0.76,1.01
2022-11-15 21:18:42.1200,-0.29,0.62,0.79,1.04
2022-11-15 21:18:42.1310,-0.21,0.61,0.78,1.01
2022-11-15 21:18:42.1760,-0.28,0.66,0.73,1.02
2022-11-15 21:18:42.1760,-0.43,0.69,0.66,1.04
2022-11-15 21:18:42.1770,-0.64,0.69,0.69,1.16
2022-11-15 21:18:42.1790,-0.9,0.75,0.73,1.38
2022-11-15 21:18:42.1810,-1.13,0.8,0.84,1.61
2022-11-15 21:18:42.1910,-1.32,0.7,0.96,1.77
2022-11-15 21:18:42.2010,-1.4,0.47,0.66,1.61
2022-11-15 21:18:42.2110,-1.21,-0.04,0.09,1.21
2022-11-15 21:18:42.2210,-0.84,-1.18,0.13,1.45
2022-11-15 21:18:42.2310,-0.86,-2.59,-0.07,2.72
2022-11-15 21:18:42.2770,-0.99,-3.66,-1.09,3.94
2022-11-15 21:18:42.2780,-0.69,-3.77,-1.77,4.22
2022-11-15 21:18:42.2790,-0.37,-3.07,-1.28,3.34
2022-11-15 21:18:42.2810,-0.34,-2.44,-0.58,2.53
2022-11-15 21:18:42.2830,-0.24,-2.13,-0.61,2.22
2022-11-15 21:18:42.2910,-0.09,-2.26,-0.94,2.44
2022-11-15 21:18:42.3010,0.25,-2.89,-1.06,3.08
2022-11-15 21:18:42.3110,0.71,-3.42,-0.92,3.61
2022-11-15 21:18:42.3210,1.37,-3.47,-0.75,3.8
2022-11-15 21:18:42.3310,1.74,-3.19,-0.55,3.67
2022-11-15 21:18:42.3760,1.7,-2.8,-0.52,3.31
2022-11-15 21:18:42.3770,1.53,-2.11,-0.7,2.69
2022-11-15 21:18:42.3780,1.28,-1.11,-0.83,1.88
2022-11-15 21:18:42.3800,1.05,0.0,-0.89,1.37
2022-11-15 21:18:42.3830,0.86,0.93,-0.79,1.49
2022-11-15 21:18:42.3910,0.77,1.67,-0.67,1.95
2022-11-15 21:18:42.4020,0.76,2.07,-0.68,2.3
2022-11-15 21:18:42.4110,0.86,2.15,-0.79,2.44
2022-11-15 21:18:42.4210,0.9,2.04,-0.88,2.39
2022-11-15 21:18:42.4320,0.79,1.86,-0.98,2.24
2022-11-15 21:18:42.4760,0.74,1.75,-1.07,2.18
2022-11-15 21:18:42.4770,0.8,1.56,-1.09,2.06
2022-11-15 21:18:42.4780,0.97,1.51,-0.93,2.02
2022-11-15 21:18:42.4800,1.08,1.2,-0.72,1.76
2022-11-15 21:18:42.4830,1.05,0.18,-0.61,1.22
2022-11-15 21:18:42.4920,1.13,-0.53,-0.35,1.29
2022-11-15 21:18:42.5020,1.28,-0.69,-0.15,1.46
2022-11-15 21:18:42.5120,1.27,-0.66,0.25,1.45
2022-11-15 21:18:42.5220,1.05,-0.66,0.58,1.36
2022-11-15 21:18:42.5320,0.83,-0.45,0.73,1.19
2022-11-15 21:18:42.5770,0.68,-0.15,0.67,0.96
2022-11-15 21:18:42.5780,0.72,0.07,0.38,0.81
2022-11-15 21:18:42.5790,0.75,0.47,0.04,0.88
2022-11-15 21:18:42.5810,0.69,0.72,-0.24,1.02
2022-11-15 21:18:42.5830,0.6,0.93,-0.38,1.17
2022-11-15 21:18:42.5920,0.53,1.14,-0.4,1.31
2022-11-15 21:18:42.6020,0.44,1.24,-0.43,1.38
2022-11-15 21:18:42.6120,0.34,1.35,-0.38,1.44
2022-11-15 21:18:42.6220,0.26,1.48,-0.24,1.52
2022-11-15 21:18:42.6320,0.19,1.62,-0.15,1.63
2022-11-15 21:18:42.6770,0.08,1.86,0.01,1.86
2022-11-15 21:18:42.6780,-0.17,2.03,0.1,2.03
2022-11-15 21:18:42.6810,-0.45,2.16,0.0,2.2
2022-11-15 21:18:42.6830,-0.59,2.47,-0.06,2.54
2022-11-15 21:18:42.6850,-0.7,2.7,0.17,2.79
2022-11-15 21:18:42.6920,-0.89,2.6,0.39,2.77
2022-11-15 21:18:42.7020,-0.84,2.33,0.3,2.49
2022-11-15 21:18:42.7120,-0.73,1.93,0.12,2.06
2022-11-15 21:18:42.7220,-0.86,1.61,0.19,1.83
2022-11-15 21:18:42.7320,-1.02,1.37,0.44,1.76
2022-11-15 21:18:42.7780,-1.16,1.09,0.71,1.74
2022-11-15 21:18:42.7800,-1.25,0.88,1.01,1.83
2022-11-15 21:18:42.7810,-1.32,0.66,1.22,1.91
2022-11-15 21:18:42.7820,-1.16,0.45,1.31,1.8
2022-11-15 21:18:42.7820,-1.0,0.13,1.38,1.7
2022-11-15 21:18:42.7950,-0.99,-0.23,1.43,1.75
2022-11-15 21:18:42.8030,-1.17,-0.46,1.44,1.91
2022-11-15 21:18:42.8130,-1.45,-0.66,1.4,2.12
2022-11-15 21:18:42.8230,-1.72,-0.83,1.28,2.29
2022-11-15 21:18:42.8330,-1.95,-0.96,1.14,2.45
2022-11-15 21:18:42.8780,-2.08,-0.97,1.16,2.57
2022-11-15 21:18:42.8800,-1.92,-1.0,1.32,2.53
2022-11-15 21:18:42.8810,-1.45,-0.98,1.65,2.4
2022-11-15 21:18:42.8820,-0.95,-0.93,2.03,2.42
2022-11-15 21:18:42.8830,-0.55,-0.86,2.47,2.67
2022-11-15 21:18:42.8950,0.01,-0.96,2.81,2.96
2022-11-15 21:18:42.9030,0.8,-1.49,3.13,3.55
2022-11-15 21:18:42.9130,1.29,-2.5,2.94,4.06
2022-11-15 21:18:42.9230,0.9,-3.74,2.05,4.35
2022-11-15 21:18:42.9330,0.02,-4.72,0.82,4.79
2022-11-15 21:18:42.9770,-0.45,-5.11,-0.31,5.13
2022-11-15 21:18:42.9780,-0.43,-4.72,-0.73,4.79
2022-11-15 21:18:42.9790,-0.02,-3.49,-0.53,3.53
2022-11-15 21:18:42.9800,0.6,-1.93,-0.59,2.1
2022-11-15 21:18:42.9830,1.5,-0.64,-0.89,1.85
2022-11-15 21:18:42.9930,2.76,0.2,-1.18,3.0
2022-11-15 21:18:43.0030,3.79,0.75,-1.28,4.07
2022-11-15 21:18:43.0130,4.22,1.13,-1.15,4.51
2022-11-15 21:18:43.0230,3.87,1.49,-1.19,4.31
2022-11-15 21:18:43.0330,3.13,1.77,-1.28,3.81
2022-11-15 21:18:43.0800,2.71,1.89,-1.3,3.55
2022-11-15 21:18:43.0810,2.42,1.85,-1.26,3.29
2022-11-15 21:18:43.0840,2.19,1.75,-1.21,3.05
2022-11-15 21:18:43.0860,2.06,1.73,-1.11,2.91
2022-11-15 21:18:43.0880,2.08,1.65,-1.01,2.84
2022-11-15 21:18:43.0940,2.11,1.61,-0.84,2.78
2022-11-15 21:18:43.1040,2.09,1.65,-0.72,2.75
2022-11-15 21:18:43.1140,2.13,1.69,-0.8,2.83
2022-11-15 21:18:43.1230,2.08,1.8,-1.01,2.93
2022-11-15 21:18:43.1330,1.83,1.86,-1.22,2.88
2022-11-15 21:18:43.1780,1.63,1.66,-1.59,2.81
2022-11-15 21:18:43.1790,1.62,1.44,-2.01,2.95
2022-11-15 21:18:43.1800,1.54,1.28,-2.24,3.0
2022-11-15 21:18:43.1810,1.51,1.09,-2.45,3.07
2022-11-15 21:18:43.1830,1.44,0.92,-2.64,3.14
2022-11-15 21:18:43.1940,1.35,0.68,-2.92,3.28
2022-11-15 21:18:43.2040,1.0,0.34,-3.02,3.19
2022-11-15 21:18:43.2140,0.67,0.03,-2.87,2.94
2022-11-15 21:18:43.2240,0.73,-0.45,-2.7,2.83
2022-11-15 21:18:43.2340,1.04,-0.86,-2.3,2.66
2022-11-15 21:18:43.2790,1.32,-0.9,-1.63,2.28
2022-11-15 21:18:43.2810,1.39,-0.85,-1.02,1.92
2022-11-15 21:18:43.2820,1.43,-0.75,-0.47,1.68
2022-11-15 21:18:43.2830,1.52,-0.35,-0.17,1.56
2022-11-15 21:18:43.2840,1.34,0.02,0.1,1.34
2022-11-15 21:18:43.2940,1.33,0.51,0.26,1.44
2022-11-15 21:18:43.3040,1.34,0.72,0.43,1.58
2022-11-15 21:18:43.3140,1.05,0.61,0.52,1.32
2022-11-15 21:18:43.3240,0.46,0.44,0.61,0.88
2022-11-15 21:18:43.3340,-0.02,0.38,0.75,0.84
2022-11-15 21:18:43.3780,-0.29,0.28,0.76,0.86
2022-11-15 21:18:43.3800,-0.47,0.13,0.75,0.89
2022-11-15 21:18:43.3810,-0.79,-0.01,0.66,1.02
2022-11-15 21:18:43.3810,-1.01,-0.15,0.68,1.22
2022-11-15 21:18:43.3840,-1.16,-0.23,0.62,1.33
2022-11-15 21:18:43.3940,-1.31,-0.35,0.4,1.41
2022-11-15 21:18:43.4040,-1.34,-0.37,0.26,1.41
2022-11-15 21:18:43.4140,-1.24,-0.3,0.18,1.28
2022-11-15 21:18:43.4240,-1.11,-0.19,0.21,1.14
2022-11-15 21:18:43.4340,-0.99,-0.07,0.38,1.06
2022-11-15 21:18:43.4790,-0.88,0.08,0.58,1.05
2022-11-15 21:18:43.4810,-0.72,0.29,0.68,1.03
2022-11-15 21:18:43.4820,-0.53,0.46,0.74,1.01
2022-11-15 21:18:43.4830,-0.34,0.48,0.69,0.9
2022-11-15 21:18:43.4840,-0.16,0.47,0.63,0.8
2022-11-15 21:18:43.4950,-0.03,0.44,0.57,0.72
2022-11-15 21:18:43.5050,0.07,0.44,0.63,0.77
2022-11-15 21:18:43.5150,0.08,0.46,0.76,0.89
2022-11-15 21:18:43.5250,-0.01,0.44,0.92,1.01
2022-11-15 21:18:43.5350,-0.14,0.36,1.04,1.1
2022-11-15 21:18:43.5790,-0.33,0.31,1.18,1.26
2022-11-15 21:18:43.5810,-0.56,0.3,1.28,1.42
2022-11-15 21:18:43.5810,-0.83,0.25,1.31,1.57
2022-11-15 21:18:43.5820,-1.05,0.21,1.32,1.69
2022-11-15 21:18:43.5850,-1.27,0.11,1.29,1.81
2022-11-15 21:18:43.5950,-1.43,-0.07,1.27,1.91
2022-11-15 21:18:43.6050,-1.46,-0.34,1.09,1.85
2022-11-15 21:18:43.6150,-1.31,-0.71,0.63,1.61
2022-11-15 21:18:43.6250,-1.15,-1.26,0.24,1.72
2022-11-15 21:18:43.6350,-1.06,-1.82,-0.03,2.1
2022-11-15 21:18:43.6800,-0.83,-2.24,-0.38,2.41
2022-11-15 21:18:43.6810,-0.19,-2.37,-0.51,2.43
2022-11-15 21:18:43.6820,0.59,-2.29,-0.26,2.37
2022-11-15 21:18:43.6830,1.35,-2.11,-0.2,2.51
2022-11-15 21:18:43.6850,1.85,-1.98,-0.46,2.74
2022-11-15 21:18:43.6950,2.12,-1.79,-0.83,2.89
2022-11-15 21:18:43.7050,2.26,-1.59,-1.19,3.0
2022-11-15 21:18:43.7160,2.27,-1.32,-1.43,2.99
2022-11-15 21:18:43.7250,2.24,-1.1,-1.58,2.95
2022-11-15 21:18:43.7360,2.09,-0.86,-1.71,2.83
2022-11-15 21:18:43.7800,1.78,-0.64,-1.66,2.51
2022-11-15 21:18:43.7820,1.43,-0.35,-1.6,2.17
2022-11-15 21:18:43.7820,1.14,0.13,-1.54,1.92
2022-11-15 21:18:43.7830,0.93,0.74,-1.46,1.88
2022-11-15 21:18:43.7850,0.79,1.31,-1.32,2.02
2022-11-15 21:18:43.7960,0.79,1.43,-1.28,2.07
2022-11-15 21:18:43.8060,0.83,1.51,-1.21,2.1
2022-11-15 21:18:43.8160,0.99,1.52,-1.01,2.07
2022-11-15 21:18:43.8260,1.18,1.01,-0.62,1.67
2022-11-15 21:18:43.8360,1.45,0.67,-0.19,1.6
2022-11-15 21:18:43.8800,1.54,0.29,-0.01,1.56
2022-11-15 21:18:43.8820,1.62,-0.4,0.02,1.66
2022-11-15 21:18:43.8830,1.42,-1.0,0.11,1.74
2022-11-15 21:18:43.8840,0.95,-1.41,0.17,1.7
2022-11-15 21:18:43.8860,0.54,-1.51,0.08,1.6
2022-11-15 21:18:43.8960,0.29,-1.13,-0.23,1.18
2022-11-15 21:18:43.9060,0.13,-0.38,-0.5,0.64
2022-11-15 21:18:43.9160,0.02,0.14,-0.56,0.57
2022-11-15 21:18:43.9260,0.06,0.62,-0.52,0.81
2022-11-15 21:18:43.9360,0.23,1.16,-0.49,1.28
2022-11-15 21:18:43.9800,0.32,1.42,-0.42,1.51
2022-11-15 21:18:43.9820,0.28,1.68,-0.11,1.7
2022-11-15 21:18:43.9830,0.15,1.77,0.26,1.79
2022-11-15 21:18:43.9840,0.22,1.82,0.51,1.9
2022-11-15 21:18:43.9860,0.29,1.98,0.69,2.11
2022-11-15 21:18:43.9960,0.33,2.23,0.89,2.42
2022-11-15 21:18:44.0060,0.28,2.36,1.06,2.6
2022-11-15 21:18:44.0160,-0.08,2.18,1.21,2.49
2022-11-15 21:18:44.0260,-0.37,2.0,1.1,2.31
2022-11-15 21:18:44.0360,-0.55,1.94,0.9,2.2
2022-11-15 21:18:44.0820,-0.81,1.78,0.79,2.1
2022-11-15 21:18:44.0830,-1.06,1.6,0.63,2.02
2022-11-15 21:18:44.0840,-1.21,1.37,0.4,1.87
2022-11-15 21:18:44.0850,-1.36,1.15,0.21,1.79
2022-11-15 21:18:44.0860,-1.57,1.05,0.16,1.89
2022-11-15 21:18:44.0970,-1.79,1.08,0.34,2.11
2022-11-15 21:18:44.1060,-1.9,1.18,0.62,2.32
2022-11-15 21:18:44.1170,-1.89,1.26,0.89,2.43
2022-11-15 21:18:44.1270,-1.85,1.34,1.17,2.56
2022-11-15 21:18:44.1370,-1.86,1.39,1.43,2.72
2022-11-15 21:18:44.1810,-1.85,1.42,1.63,2.84
2022-11-15 21:18:44.1820,-2.05,1.36,1.65,2.96
2022-11-15 21:18:44.1830,-2.46,1.18,1.57,3.14
2022-11-15 21:18:44.1840,-2.77,0.9,1.49,3.27
2022-11-15 21:18:44.1860,-2.94,0.49,1.35,3.27
2022-11-15 21:18:44.1970,-3.06,0.03,1.15,3.26
2022-11-15 21:18:44.2070,-3.12,-0.42,1.01,3.3
2022-11-15 21:18:44.2170,-3.03,-0.9,1.16,3.36
2022-11-15 21:18:44.2270,-2.75,-1.33,1.62,3.45
2022-11-15 21:18:44.2370,-2.29,-1.67,2.22,3.6
2022-11-15 21:18:44.2850,-1.78,-1.88,2.88,3.87
2022-11-15 21:18:44.2870,-1.18,-1.96,3.33,4.04
2022-11-15 21:18:44.2880,-0.2,-1.98,3.38,3.92
2022-11-15 21:18:44.2890,1.1,-2.27,3.15,4.03
2022-11-15 21:18:44.2890,2.04,-3.02,2.72,4.54
2022-11-15 21:18:44.2970,1.65,-3.9,2.2,4.77
2022-11-15 21:18:44.3070,0.86,-4.42,1.81,4.85
2022-11-15 21:18:44.3170,1.06,-4.55,1.68,4.96
2022-11-15 21:18:44.3270,1.56,-4.17,1.46,4.68
2022-11-15 21:18:44.3370,1.84,-3.14,1.02,3.77
2022-11-15 21:18:44.3830,2.13,-1.84,0.45,2.85
2022-11-15 21:18:44.3850,2.33,-0.39,-0.04,2.36
2022-11-15 21:18:44.3850,2.64,0.88,-0.43,2.81
2022-11-15 21:18:44.3860,3.17,1.74,-0.71,3.68
2022-11-15 21:18:44.3870,3.54,2.23,-0.61,4.22
2022-11-15 21:18:44.3970,3.68,2.52,-0.35,4.47
2022-11-15 21:18:44.4070,3.81,2.62,-0.26,4.63
2022-11-15 21:18:44.4180,3.75,2.44,-0.32,4.48
2022-11-15 21:18:44.4270,3.48,2.06,-0.4,4.06
2022-11-15 21:18:44.4380,3.1,1.71,-0.43,3.56
2022-11-15 21:18:44.4830,2.75,1.41,-0.41,3.11
2022-11-15 21:18:44.4850,2.43,1.14,-0.35,2.7
2022-11-15 21:18:44.4860,2.11,0.86,-0.29,2.29
2022-11-15 21:18:44.4860,1.91,0.65,-0.24,2.03
2022-11-15 21:18:44.4870,1.78,0.44,-0.17,1.84
2022-11-15 21:18:44.4980,1.67,0.24,-0.05,1.68
2022-11-15 21:18:44.5080,1.57,0.19,-0.04,1.58
2022-11-15 21:18:44.5180,1.38,0.24,-0.25,1.42
2022-11-15 21:18:44.5280,1.21,0.36,-0.64,1.41
2022-11-15 21:18:44.5380,1.08,0.55,-1.06,1.61
2022-11-15 21:18:44.5830,0.91,0.54,-1.56,1.88
2022-11-15 21:18:44.5850,0.61,0.34,-2.04,2.15
2022-11-15 21:18:44.5860,0.33,0.31,-2.28,2.32
2022-11-15 21:18:44.5870,-0.03,0.35,-2.1,2.12
2022-11-15 21:18:44.5880,-0.33,0.23,-1.79,1.83
2022-11-15 21:18:44.5980,-0.39,0.02,-1.52,1.56
2022-11-15 21:18:44.6080,-0.32,-0.17,-1.3,1.34
2022-11-15 21:18:44.6180,-0.13,-0.24,-1.17,1.2
2022-11-15 21:18:44.6280,0.07,-0.29,-1.28,1.31
2022-11-15 21:18:44.6380,0.16,-0.25,-1.3,1.33
2022-11-15 21:18:44.6830,0.1,-0.14,-1.05,1.06
2022-11-15 21:18:44.6840,-0.03,0.05,-0.71,0.71
2022-11-15 21:18:44.6850,-0.2,0.26,-0.35,0.47
2022-11-15 21:18:44.6950,-0.45,0.45,-0.05,0.63
2022-11-15 21:18:44.6960,-0.67,0.64,0.16,0.94
2022-11-15 21:18:44.6980,-0.85,0.85,0.4,1.26
2022-11-15 21:18:44.7080,-1.08,1.01,0.62,1.6
2022-11-15 21:18:44.7180,-1.32,1.0,0.75,1.81
2022-11-15 21:18:44.7280,-1.45,0.9,0.79,1.88
2022-11-15 21:18:44.7380,-1.55,0.74,0.84,1.91
2022-11-15 21:18:44.7850,-1.6,0.58,0.85,1.9
2022-11-15 21:18:44.7870,-1.67,0.49,0.96,1.98
2022-11-15 21:18:44.7880,-1.76,0.41,1.11,2.12
2022-11-15 21:18:44.7890,-1.75,0.26,1.24,2.16
2022-11-15 21:18:44.7890,-1.55,0.08,1.32,2.03
2022-11-15 21:18:44.7990,-1.33,0.16,1.58,2.07
2022-11-15 21:18:44.8080,-1.07,0.15,1.8,2.09
2022-11-15 21:18:44.8190,-0.93,-0.21,1.68,1.93
2022-11-15 21:18:44.8290,-0.87,-0.59,1.56,1.88
2022-11-15 21:18:44.8390,-0.78,-0.85,1.53,1.91
2022-11-15 21:18:44.8840,-0.59,-1.11,1.47,1.93
2022-11-15 21:18:44.8860,-0.58,-1.18,1.48,1.97
2022-11-15 21:18:44.8870,-0.62,-1.0,1.48,1.89
2022-11-15 21:18:44.8930,-0.59,-0.73,1.5,1.76
2022-11-15 21:18:44.8930,-0.62,-0.37,1.58,1.73
2022-11-15 21:18:44.8990,-0.7,0.08,1.6,1.74
2022-11-15 21:18:44.9090,-0.82,0.52,1.55,1.82
2022-11-15 21:18:44.9190,-0.97,0.86,1.42,1.92
2022-11-15 21:18:44.9290,-1.0,1.2,1.31,2.03
2022-11-15 21:18:44.9390,-0.96,1.59,1.32,2.27
2022-11-15 21:18:44.9840,-0.93,1.82,1.35,2.44
2022-11-15 21:18:44.9860,-0.91,1.67,1.33,2.32
2022-11-15 21:18:44.9870,-0.77,1.34,1.26,1.99
2022-11-15 21:18:44.9940,-0.63,0.9,1.08,1.54
2022-11-15 21:18:44.9950,-0.51,0.14,0.66,0.84
2022-11-15 21:18:44.9990,-0.37,-0.81,0.01,0.89
2022-11-15 21:18:45.0090,-0.16,-1.95,-0.34,1.98
2022-11-15 21:18:45.0190,0.05,-3.25,-0.69,3.32
2022-11-15 21:18:45.0290,0.36,-4.32,-1.2,4.49
2022-11-15 21:18:45.0390,0.99,-4.47,-1.03,4.69
2022-11-15 21:18:45.0840,1.37,-3.73,-0.15,3.97
2022-11-15 21:18:45.0850,1.03,-3.11,0.31,3.29
2022-11-15 21:18:45.0870,0.68,-2.83,-0.1,2.91
2022-11-15 21:18:45.0900,0.44,-2.8,-0.74,2.92
2022-11-15 21:18:45.0920,0.26,-2.84,-1.2,3.09
2022-11-15 21:18:45.0990,0.27,-2.59,-1.43,2.97
2022-11-15 21:18:45.1090,0.45,-2.05,-1.52,2.59
2022-11-15 21:18:45.1200,0.55,-1.42,-1.48,2.12
2022-11-15 21:18:45.1290,0.49,-0.65,-1.33,1.55
2022-11-15 21:18:45.1390,0.42,0.17,-1.11,1.19
2022-11-15 21:18:45.1850,0.45,0.91,-0.88,1.34
2022-11-15 21:18:45.1860,0.51,1.51,-0.7,1.74
2022-11-15 21:18:45.1880,0.59,1.88,-0.58,2.05
2022-11-15 21:18:45.1900,0.71,2.05,-0.45,2.21
2022-11-15 21:18:45.1920,0.77,1.84,-0.29,2.01
2022-11-15 21:18:45.2000,0.65,1.33,-0.19,1.49
2022-11-15 21:18:45.2120,0.49,0.99,-0.22,1.12
2022-11-15 21:18:45.2200,0.37,0.87,-0.26,0.98
2022-11-15 21:18:45.2300,0.32,0.37,-0.33,0.59
2022-11-15 21:18:45.2400,0.35,-0.05,-0.42,0.54
2022-11-15 21:18:45.2860,0.35,-0.29,-0.39,0.59
2022-11-15 21:18:45.2870,0.3,-0.27,-0.31,0.5
2022-11-15 21:18:45.2890,0.24,-0.17,-0.13,0.32
2022-11-15 21:18:45.2910,0.33,0.16,0.14,0.39
2022-11-15 21:18:45.2920,0.56,0.59,0.28,0.86
2022-11-15 21:18:45.3000,0.65,0.82,0.5,1.15
2022-11-15 21:18:45.3100,0.68,1.09,0.6,1.41
2022-11-15 21:18:45.3200,0.78,1.33,0.53,1.63
2022-11-15 21:18:45.3300,0.79,1.53,0.35,1.75
2022-11-15 21:18:45.3400,0.61,1.51,0.12,1.63
2022-11-15 21:18:45.3850,0.39,1.47,0.1,1.52
2022-11-15 21:18:45.3860,0.12,1.4,0.14,1.41
2022-11-15 21:18:45.3880,-0.16,1.29,0.19,1.31
2022-11-15 21:18:45.3910,-0.41,1.21,0.33,1.31
2022-11-15 21:18:45.3930,-0.66,1.12,0.51,1.39
2022-11-15 21:18:45.4000,-0.83,1.07,0.71,1.52
2022-11-15 21:18:45.4110,-1.06,1.11,0.9,1.77
2022-11-15 21:18:45.4200,-1.35,1.19,0.92,2.02
2022-11-15 21:18:45.4300,-1.68,1.33,0.87,2.31
2022-11-15 21:18:45.4410,-1.92,1.42,0.77,2.5
2022-11-15 21:18:45.4870,-2.02,1.42,0.58,2.53
2022-11-15 21:18:45.4880,-2.07,1.37,0.4,2.51
2022-11-15 21:18:45.4900,-2.17,1.28,0.35,2.54
2022-11-15 21:18:45.4920,-2.29,1.22,0.49,2.64
2022-11-15 21:18:45.4930,-2.4,1.2,0.83,2.8
2022-11-15 21:18:45.5110,-2.47,1.18,1.06,2.93
2022-11-15 21:18:45.5120,-2.39,1.04,1.08,2.82
2022-11-15 21:18:45.5210,-2.33,0.79,0.98,2.64
2022-11-15 21:18:45.5310,-2.32,0.69,0.68,2.51
2022-11-15 21:18:45.5410,-2.16,0.76,0.43,2.32
2022-11-15 21:18:45.5850,-1.9,0.58,0.53,2.05
2022-11-15 21:18:45.5860,-1.56,0.27,0.79,1.76
2022-11-15 21:18:45.5890,-1.28,0.0,0.91,1.57
2022-11-15 21:18:45.5910,-1.05,-0.24,1.01,1.47
2022-11-15 21:18:45.5930,-0.93,-0.55,1.22,1.62
2022-11-15 21:18:45.6010,-0.87,-0.97,1.57,2.04
2022-11-15 21:18:45.6110,-0.76,-1.38,2.05,2.58
2022-11-15 21:18:45.6210,-0.69,-1.62,2.54,3.09
2022-11-15 21:18:45.6310,-0.86,-1.65,2.73,3.3
2022-11-15 21:18:45.6410,-1.08,-1.42,2.55,3.11
2022-11-15 21:18:45.6870,-1.16,-0.98,2.19,2.66
2022-11-15 21:18:45.6880,-1.29,-0.36,1.93,2.34
2022-11-15 21:18:45.6900,-1.5,0.21,1.78,2.33
2022-11-15 21:18:45.6920,-1.7,0.78,1.81,2.6
2022-11-15 21:18:45.6930,-1.81,1.33,2.0,3.0
2022-11-15 21:18:45.7100,-1.65,1.63,2.15,3.16
2022-11-15 21:18:45.7110,-1.01,1.59,2.41,3.05
2022-11-15 21:18:45.7210,-0.17,0.9,2.21,2.39
2022-11-15 21:18:45.7310,0.07,-0.46,1.01,1.11
2022-11-15 21:18:45.7410,-0.58,-2.27,-0.54,2.4
2022-11-15 21:18:45.7880,-1.18,-4.28,-1.27,4.61
2022-11-15 21:18:45.7880,-1.01,-6.53,-1.66,6.81
2022-11-15 21:18:45.7910,-0.44,-8.46,-2.29,8.77
2022-11-15 21:18:45.7930,0.33,-8.29,-2.58,8.68
2022-11-15 21:18:45.7940,1.26,-5.38,-1.88,5.83
2022-11-15 21:18:45.8110,2.24,-1.96,-1.37,3.27
2022-11-15 21:18:45.8120,3.1,0.3,-1.7,3.54
2022-11-15 21:18:45.8220,3.27,1.52,-2.26,4.25
2022-11-15 21:18:45.8320,2.76,1.97,-2.45,4.18
2022-11-15 21:18:45.8420,2.01,2.19,-2.47,3.86
2022-11-15 21:18:45.8870,1.52,2.64,-2.43,3.89
2022-11-15 21:18:45.8880,1.04,3.09,-2.34,4.01
2022-11-15 21:18:45.8910,0.69,3.47,-2.14,4.13
2022-11-15 21:18:45.8930,0.61,3.65,-1.83,4.12
2022-11-15 21:18:45.8940,0.74,3.58,-1.49,3.94
2022-11-15 21:18:45.9110,0.77,3.39,-1.11,3.64
2022-11-15 21:18:45.9120,0.56,2.77,-0.68,2.9
2022-11-15 21:18:45.9220,0.45,2.04,-0.45,2.13
2022-11-15 21:18:45.9320,0.32,1.26,-0.44,1.37
2022-11-15 21:18:45.9420,0.19,0.23,-0.54,0.61
2022-11-15 21:18:45.9890,0.38,-0.86,-0.81,1.24
2022-11-15 21:18:45.9900,0.61,-1.77,-1.45,2.36
2022-11-15 21:18:45.9920,0.74,-2.05,-2.18,3.08
2022-11-15 21:18:45.9930,0.96,-1.54,-2.44,3.04
2022-11-15 21:18:46.0110,1.49,-0.5,-2.26,2.75
2022-11-15 21:18:46.0120,1.82,0.34,-2.32,2.96
2022-11-15 21:18:46.0150,1.95,0.91,-2.29,3.14
2022-11-15 21:18:46.0220,1.8,1.29,-2.06,3.02
2022-11-15 21:18:46.0320,1.55,1.54,-1.81,2.83
2022-11-15 21:18:46.0430,1.35,1.6,-1.46,2.55
2022-11-15 21:18:46.0910,1.09,1.38,-1.19,2.12
2022-11-15 21:18:46.0920,0.86,1.05,-0.98,1.67
2022-11-15 21:18:46.0920,0.49,0.85,-0.66,1.18
2022-11-15 21:18:46.0940,-0.1,0.82,-0.31,0.88
2022-11-15 21:18:46.0970,-0.7,0.99,-0.2,1.22
2022-11-15 21:18:46.1020,-1.31,1.14,-0.14,1.74
2022-11-15 21:18:46.1120,-1.88,1.16,0.04,2.2
2022-11-15 21:18:46.1220,-2.27,0.97,0.14,2.47
2022-11-15 21:18:46.1320,-2.47,0.5,0.06,2.52
2022-11-15 21:18:46.1430,-2.65,-0.2,-0.02,2.65
2022-11-15 21:18:46.1900,-2.76,-0.76,-0.09,2.86
2022-11-15 21:18:46.1910,-2.61,-0.78,-0.36,2.74
2022-11-15 21:18:46.1920,-2.43,-0.51,-0.64,2.56
2022-11-15 21:18:46.1940,-2.15,-0.19,-0.71,2.27
2022-11-15 21:18:46.1960,-1.8,0.08,-0.49,1.86
2022-11-15 21:18:46.2030,-1.33,0.17,-0.2,1.35
2022-11-15 21:18:46.2130,-0.83,0.12,0.2,0.86
2022-11-15 21:18:46.2230,-0.31,0.14,0.5,0.6
2022-11-15 21:18:46.2330,0.25,0.29,0.8,0.88
2022-11-15 21:18:46.2430,0.65,0.47,1.21,1.45
2022-11-15 21:18:46.2900,0.83,0.49,1.58,1.85
2022-11-15 21:18:46.2910,0.86,0.37,1.83,2.05
2022-11-15 21:18:46.2920,0.78,0.3,2.06,2.22
2022-11-15 21:18:46.2940,0.58,0.2,2.3,2.38
2022-11-15 21:18:46.2960,0.23,0.09,2.28,2.29
2022-11-15 21:18:46.3030,-0.21,-0.01,2.05,2.06
2022-11-15 21:18:46.3130,-0.65,-0.1,1.79,1.9
2022-11-15 21:18:46.3230,-1.03,-0.35,1.44,1.8
2022-11-15 21:18:46.3330,-1.23,-0.6,1.15,1.78
2022-11-15 21:18:46.3430,-1.37,-0.76,1.05,1.88
2022-11-15 21:18:46.3920,-1.54,-0.85,1.16,2.1
2022-11-15 21:18:46.3930,-1.7,-0.84,1.24,2.26
2022-11-15 21:18:46.3930,-1.75,-0.68,1.21,2.23
2022-11-15 21:18:46.3950,-1.74,-0.46,1.1,2.1
2022-11-15 21:18:46.3980,-1.66,-0.32,0.55,1.77
2022-11-15 21:18:46.4030,-1.32,-0.55,-0.17,1.44
2022-11-15 21:18:46.4140,-0.78,-1.39,-0.51,1.67
2022-11-15 21:18:46.4230,-0.85,-2.56,-0.81,2.81
2022-11-15 21:18:46.4340,-0.87,-3.6,-1.36,3.94
2022-11-15 21:18:46.4440,-0.42,-3.68,-1.74,4.09
2022-11-15 21:18:46.4930,-0.33,-2.77,-1.78,3.3
2022-11-15 21:18:46.4940,-0.57,-1.6,-1.76,2.44
2022-11-15 21:18:46.4950,-0.91,-0.6,-1.85,2.14
2022-11-15 21:18:46.4970,-1.09,-0.23,-1.87,2.17
2022-11-15 21:18:46.4990,-0.88,-0.46,-1.62,1.9
2022-11-15 21:18:46.5030,-0.42,-0.65,-1.32,1.53
2022-11-15 21:18:46.5140,0.1,-0.79,-1.1,1.35
2022-11-15 21:18:46.5240,0.65,-0.98,-0.9,1.48
2022-11-15 21:18:46.5340,1.1,-0.98,-0.7,1.63
2022-11-15 21:18:46.5440,1.24,-0.78,-0.61,1.58
2022-11-15 21:18:46.5930,1.06,-0.65,-0.58,1.37
2022-11-15 21:18:46.5940,0.95,-0.38,-0.43,1.1
2022-11-15 21:18:46.5950,0.97,0.13,-0.18,0.99
2022-11-15 21:18:46.5970,1.06,0.71,-0.04,1.27
2022-11-15 21:18:46.5990,1.17,1.16,0.05,1.64
2022-11-15 21:18:46.6040,1.17,1.48,0.01,1.88
2022-11-15 21:18:46.6140,1.12,1.61,-0.1,1.96
2022-11-15 21:18:46.6240,1.08,1.62,-0.27,1.96
2022-11-15 21:18:46.6340,1.14,1.43,-0.46,1.88
2022-11-15 21:18:46.6450,1.19,1.11,-0.62,1.74
2022-11-15 21:18:46.6920,1.28,0.87,-0.55,1.64
2022-11-15 21:18:46.6930,1.23,0.73,-0.53,1.52
2022-11-15 21:18:46.6940,0.89,0.22,-0.42,1.0
2022-11-15 21:18:46.6960,0.76,-0.04,-0.3,0.81
2022-11-15 21:18:46.6980,0.63,-0.35,0.03,0.72
2022-11-15 21:18:46.7040,0.61,-0.47,0.42,0.87
2022-11-15 21:18:46.7140,0.64,-0.45,0.83,1.14
2022-11-15 21:18:46.7240,0.81,-0.29,0.81,1.18
2022-11-15 21:18:46.7340,0.98,0.06,0.52,1.11
2022-11-15 21:18:46.7440,0.94,0.25,0.33,1.02
2022-11-15 21:18:46.7930,0.74,0.35,0.2,0.84
2022-11-15 21:18:46.7940,0.37,0.34,0.18,0.53
2022-11-15 21:18:46.7950,0.03,0.43,0.13,0.45
2022-11-15 21:18:46.7970,-0.17,0.71,0.0,0.73
2022-11-15 21:18:46.7990,-0.38,0.93,-0.12,1.01
2022-11-15 21:18:46.8040,-0.67,1.12,-0.15,1.31
2022-11-15 21:18:46.8150,-1.02,1.24,-0.06,1.6
2022-11-15 21:18:46.8240,-1.22,1.36,0.0,1.82
2022-11-15 21:18:46.8350,-1.36,1.6,0.06,2.1
2022-11-15 21:18:46.8450,-1.43,1.96,0.09,2.42
2022-11-15 21:18:46.8940,-1.47,2.21,0.07,2.65
2022-11-15 21:18:46.8950,-1.49,2.31,0.03,2.74
2022-11-15 21:18:46.8960,-1.42,2.34,0.12,2.73
2022-11-15 21:18:46.8980,-1.32,2.22,0.3,2.6
2022-11-15 21:18:46.9000,-1.31,1.99,0.49,2.43
2022-11-15 21:18:46.9050,-1.37,1.68,0.69,2.27
2022-11-15 21:18:46.9150,-1.47,1.47,0.98,2.29
2022-11-15 21:18:46.9250,-1.51,1.25,1.24,2.31
2022-11-15 21:18:46.9350,-1.51,0.99,1.49,2.34
2022-11-15 21:18:46.9450,-1.33,0.71,1.65,2.23
2022-11-15 21:18:46.9950,-1.11,0.36,1.7,2.06
2022-11-15 21:18:46.9960,-0.98,-0.01,1.63,1.9
2022-11-15 21:18:46.9960,-0.96,-0.27,1.41,1.72
2022-11-15 21:18:46.9980,-1.07,-0.55,1.1,1.63
2022-11-15 21:18:47.0010,-1.29,-0.87,0.74,1.72
2022-11-15 21:18:47.0050,-1.35,-1.07,0.67,1.84
2022-11-15 21:18:47.0150,-0.96,-1.3,0.87,1.83
2022-11-15 21:18:47.0250,-0.34,-1.43,1.26,1.93
2022-11-15 21:18:47.0350,0.34,-1.56,1.57,2.23
2022-11-15 21:18:47.0450,1.14,-1.8,1.88,2.84
2022-11-15 21:18:47.0950,2.02,-2.29,2.38,3.87
2022-11-15 21:18:47.0960,2.67,-3.3,2.89,5.13
2022-11-15 21:18:47.0970,2.43,-4.56,3.0,5.97
2022-11-15 21:18:47.0990,1.39,-5.38,2.28,6.0
2022-11-15 21:18:47.1010,0.86,-5.24,1.35,5.47
2022-11-15 21:18:47.1050,1.04,-4.35,0.43,4.49
2022-11-15 21:18:47.1150,1.12,-2.99,-0.43,3.22
2022-11-15 21:18:47.1250,0.98,-1.41,-1.09,2.03
2022-11-15 21:18:47.1350,1.26,0.18,-1.46,1.93
2022-11-15 21:18:47.1460,1.89,1.22,-1.42,2.66
2022-11-15 21:18:47.1960,2.5,1.62,-1.06,3.16
2022-11-15 21:18:47.1970,3.0,1.57,-0.88,3.49
2022-11-15 21:18:47.1980,3.32,1.36,-0.88,3.69
2022-11-15 21:18:47.2000,3.28,1.18,-0.8,3.57
2022-11-15 21:18:47.2020,3.02,1.13,-0.61,3.28
2022-11-15 21:18:47.2060,2.61,1.07,-0.55,2.87
2022-11-15 21:18:47.2160,2.31,0.96,-0.78,2.62
2022-11-15 21:18:47.2260,1.97,0.98,-0.95,2.39
2022-11-15 21:18:47.2360,1.56,1.09,-1.02,2.15
2022-11-15 21:18:47.2460,1.31,1.23,-1.01,2.06
2022-11-15 21:18:47.2960,1.27,1.31,-0.93,2.04
2022-11-15 21:18:47.2970,1.21,1.4,-0.91,2.06
2022-11-15 21:18:47.2980,1.14,1.42,-0.97,2.06
2022-11-15 21:18:47.3000,1.2,1.39,-1.15,2.16
2022-11-15 21:18:47.3020,1.25,1.28,-1.36,2.24
2022-11-15 21:18:47.3060,1.15,1.02,-1.42,2.09
2022-11-15 21:18:47.3160,1.03,0.69,-1.67,2.07
2022-11-15 21:18:47.3260,0.95,0.49,-2.07,2.32
2022-11-15 21:18:47.3360,0.77,0.35,-2.31,2.45
2022-11-15 21:18:47.3460,0.54,0.32,-2.31,2.39
2022-11-15 21:18:47.3970,0.23,0.48,-2.07,2.13
2022-11-15 21:18:47.3980,0.06,0.6,-1.81,1.9
2022-11-15 21:18:47.3990,0.01,0.51,-1.55,1.63
2022-11-15 21:18:47.4010,0.04,0.25,-1.35,1.37
2022-11-15 21:18:47.4040,0.17,-0.17,-1.11,1.13
2022-11-15 21:18:47.4060,0.48,-0.37,-0.76,0.97
2022-11-15 21:18:47.4160,0.65,-0.12,-0.48,0.81
2022-11-15 21:18:47.4260,0.65,0.19,-0.29,0.73
2022-11-15 21:18:47.4360,0.6,0.43,0.03,0.73
2022-11-15 21:18:47.4470,0.43,0.59,0.4,0.83
2022-11-15 21:18:47.4980,0.28,0.65,0.65,0.96
2022-11-15 21:18:47.4990,0.1,0.69,0.8,1.06
2022-11-15 21:18:47.5000,-0.09,0.63,0.87,1.07
2022-11-15 21:18:47.5020,-0.31,0.53,0.83,1.03
2022-11-15 21:18:47.5040,-0.49,0.42,0.73,0.97
2022-11-15 21:18:47.5070,-0.65,0.26,0.68,0.97
2022-11-15 21:18:47.5170,-0.8,-0.02,0.56,0.97
2022-11-15 21:18:47.5270,-1.02,-0.34,0.46,1.16
2022-11-15 21:18:47.5370,-1.15,-0.38,0.31,1.25
2022-11-15 21:18:47.5470,-1.28,-0.32,0.21,1.33
2022-11-15 21:18:47.5980,-1.41,-0.17,0.17,1.43
2022-11-15 21:18:47.5990,-1.53,0.06,0.18,1.54
2022-11-15 21:18:47.6000,-1.54,0.23,0.23,1.57
2022-11-15 21:18:47.6020,-1.43,0.26,0.42,1.51
2022-11-15 21:18:47.6040,-1.17,0.24,0.7,1.38
2022-11-15 21:18:47.6070,-0.87,0.23,0.98,1.33
2022-11-15 21:18:47.6170,-0.68,0.24,1.16,1.36
2022-11-15 21:18:47.6270,-0.55,0.29,1.19,1.34
2022-11-15 21:18:47.6370,-0.41,0.29,1.15,1.25
2022-11-15 21:18:47.6470,-0.32,0.26,1.08,1.15
2022-11-15 21:18:47.6990,-0.24,0.23,1.02,1.07
2022-11-15 21:18:47.7000,-0.19,0.2,0.91,0.95
2022-11-15 21:18:47.7010,-0.19,0.29,0.75,0.82
2022-11-15 21:18:47.7030,-0.2,0.41,0.7,0.83
2022-11-15 21:18:47.7050,-0.28,0.52,0.7,0.91
2022-11-15 21:18:47.7070,-0.5,0.61,0.75,1.08
2022-11-15 21:18:47.7170,-0.83,0.59,0.83,1.31
2022-11-15 21:18:47.7270,-1.14,0.51,0.85,1.51
2022-11-15 21:18:47.7370,-1.37,0.41,0.81,1.64
2022-11-15 21:18:47.7470,-1.57,0.16,0.7,1.72
2022-11-15 21:18:47.7990,-1.69,-0.25,0.52,1.78
2022-11-15 21:18:47.8000,-1.71,-0.78,0.35,1.91
2022-11-15 21:18:47.8010,-1.57,-1.37,0.27,2.1
2022-11-15 21:18:47.8030,-1.25,-1.77,0.3,2.18
2022-11-15 21:18:47.8050,-0.83,-1.92,0.34,2.11
2022-11-15 21:18:47.8080,-0.34,-1.89,0.55,1.99
2022-11-15 21:18:47.8180,0.08,-1.86,0.82,2.03
2022-11-15 21:18:47.8280,0.18,-2.06,0.73,2.19
2022-11-15 21:18:47.8380,0.19,-2.37,0.31,2.39
2022-11-15 21:18:47.8480,0.36,-2.76,-0.14,2.78
2022-11-15 21:18:47.9010,0.63,-3.04,-0.52,3.14
2022-11-15 21:18:47.9020,0.82,-2.91,-0.88,3.14
2022-11-15 21:18:47.9030,1.0,-2.3,-1.18,2.77
2022-11-15 21:18:47.9050,1.14,-1.61,-1.31,2.36
2022-11-15 21:18:47.9070,1.13,-1.12,-1.31,2.06
2022-11-15 21:18:47.9090,0.97,-0.92,-1.37,1.91
2022-11-15 21:18:47.9180,0.74,-0.79,-1.5,1.84
2022-11-15 21:18:47.9280,0.71,-0.45,-1.57,1.78
2022-11-15 21:18:47.9380,0.69,0.05,-1.54,1.68
2022-11-15 21:18:47.9480,0.73,0.62,-1.49,1.77
2022-11-15 21:18:48.0000,0.87,1.06,-1.35,1.92
2022-11-15 21:18:48.0010,0.99,1.17,-1.17,1.92
2022-11-15 21:18:48.0030,1.16,1.13,-1.06,1.93
2022-11-15 21:18:48.0050,1.3,1.08,-1.07,2.0
2022-11-15 21:18:48.0070,1.4,1.09,-0.93,2.0
2022-11-15 21:18:48.0080,1.64,1.27,-0.52,2.13
2022-11-15 21:18:48.0180,1.91,1.46,-0.07,2.4
2022-11-15 21:18:48.0280,1.79,1.05,0.31,2.09
2022-11-15 21:18:48.0380,1.49,-0.1,0.44,1.55
2022-11-15 21:18:48.0480,1.42,-0.44,0.43,1.54
2022-11-15 21:18:48.1010,1.14,-0.29,0.44,1.25
2022-11-15 21:18:48.1020,0.65,-0.14,0.45,0.8
2022-11-15 21:18:48.1030,0.29,0.24,0.32,0.49
2022-11-15 21:18:48.1050,-0.08,0.53,0.14,0.55
2022-11-15 21:18:48.1070,-0.18,0.9,-0.27,0.95
2022-11-15 21:18:48.1090,0.05,1.49,-0.69,1.64
2022-11-15 21:18:48.1180,0.12,1.99,-0.8,2.14
2022-11-15 21:18:48.1280,0.12,2.39,-0.85,2.53
2022-11-15 21:18:48.1380,0.06,2.67,-0.81,2.79
2022-11-15 21:18:48.1490,-0.08,2.81,-0.58,2.87
2022-11-15 21:18:48.2020,-0.15,2.74,-0.42,2.77
2022-11-15 21:18:48.2030,-0.18,2.5,-0.25,2.51
2022-11-15 21:18:48.2060,-0.19,2.02,-0.06,2.02
2022-11-15 21:18:48.2080,-0.23,1.65,0.29,1.69
2022-11-15 21:18:48.2090,-0.39,1.24,0.61,1.43
2022-11-15 21:18:48.2110,-0.63,0.91,0.87,1.4
2022-11-15 21:18:48.2180,-0.94,0.71,1.08,1.59
2022-11-15 21:18:48.2290,-1.29,0.63,1.19,1.86
2022-11-15 21:18:48.2390,-1.62,0.64,1.14,2.08
2022-11-15 21:18:48.2490,-1.89,0.76,0.98,2.26
2022-11-15 21:18:48.3030,-2.07,0.95,0.81,2.41
2022-11-15 21:18:48.3050,-2.14,1.02,0.78,2.49
2022-11-15 21:18:48.3050,-2.1,0.97,1.01,2.52
2022-11-15 21:18:48.3060,-2.07,0.98,1.44,2.7
2022-11-15 21:18:48.3070,-2.13,1.06,1.84,3.0
2022-11-15 21:18:48.3090,-2.21,1.0,2.1,3.2
2022-11-15 21:18:48.3190,-2.27,0.82,2.24,3.29
2022-11-15 21:18:48.3290,-2.38,0.49,2.41,3.42
2022-11-15 21:18:48.3390,-2.5,-0.04,2.56,3.57
2022-11-15 21:18:48.3490,-2.6,-0.79,2.61,3.76
2022-11-15 21:18:48.4040,-2.8,-1.55,2.41,4.0
2022-11-15 21:18:48.4050,-3.07,-2.12,1.96,4.21
2022-11-15 21:18:48.4060,-3.16,-2.37,1.48,4.21
2022-11-15 21:18:48.4070,-2.34,-2.3,1.24,3.5
2022-11-15 21:18:48.4090,-1.55,-1.96,1.62,2.97
2022-11-15 21:18:48.4280,-1.13,-1.72,2.08,2.92
2022-11-15 21:18:48.4290,-0.36,-1.64,2.47,2.98
2022-11-15 21:18:48.4320,0.69,-1.96,2.77,3.46
2022-11-15 21:18:48.4390,1.75,-2.89,2.56,4.23
2022-11-15 21:18:48.4500,2.29,-4.05,1.78,4.98
2022-11-15 21:18:48.5040,2.13,-4.84,0.75,5.34
2022-11-15 21:18:48.5060,1.89,-5.01,-0.23,5.35
2022-11-15 21:18:48.5070,1.8,-4.61,-0.92,5.03
2022-11-15 21:18:48.5070,1.64,-3.62,-0.88,4.07
2022-11-15 21:18:48.5090,1.38,-1.9,-0.46,2.39
2022-11-15 21:18:48.5120,1.67,-0.08,-0.53,1.75
2022-11-15 21:18:48.5200,2.5,1.42,-0.89,3.0
2022-11-15 21:18:48.5300,3.47,2.46,-1.08,4.38
2022-11-15 21:18:48.5400,4.15,3.0,-1.11,5.23
2022-11-15 21:18:48.5500,4.19,3.21,-0.85,5.34
2022-11-15 21:18:48.6050,3.53,3.11,-0.58,4.74
2022-11-15 21:18:48.6070,2.88,2.65,-0.73,3.98
2022-11-15 21:18:48.6080,2.77,2.33,-0.83,3.71
2022-11-15 21:18:48.6080,2.78,2.17,-0.88,3.63
2022-11-15 21:18:48.6280,2.79,2.23,-0.91,3.68
2022-11-15 21:18:48.6290,2.59,2.39,-0.88,3.63
2022-11-15 21:18:48.6310,2.14,2.42,-0.74,3.31
2022-11-15 21:18:48.6330,1.86,2.33,-0.6,3.04
2022-11-15 21:18:48.6400,1.8,2.14,-0.64,2.86
2022-11-15 21:18:48.6500,1.5,1.82,-0.59,2.43
2022-11-15 21:18:48.7060,0.97,1.38,-0.56,1.77
2022-11-15 21:18:48.7080,0.62,0.8,-0.95,1.38
2022-11-15 21:18:48.7090,0.51,0.24,-1.64,1.73
2022-11-15 21:18:48.7100,0.35,-0.09,-1.96,1.99
2022-11-15 21:18:48.7100,0.17,-0.08,-2.07,2.07
2022-11-15 21:18:48.7280,0.09,0.0,-1.99,1.99
2022-11-15 21:18:48.7290,0.09,-0.17,-1.72,1.73
2022-11-15 21:18:48.7310,0.21,-0.58,-1.4,1.52
2022-11-15 21:18:48.7400,0.53,-1.17,-0.93,1.58
2022-11-15 21:18:48.7500,0.85,-1.45,-0.64,1.79
2022-11-15 21:18:48.8050,0.94,-1.34,-0.77,1.8
2022-11-15 21:18:48.8070,0.88,-0.98,-0.81,1.54
2022-11-15 21:18:48.8080,0.76,-0.62,-0.61,1.15
2022-11-15 21:18:48.8090,0.61,-0.33,-0.37,0.78
2022-11-15 21:18:48.8280,0.5,-0.07,-0.21,0.54
2022-11-15 21:18:48.8290,0.31,0.19,-0.12,0.38
2022-11-15 21:18:48.8310,0.05,0.51,-0.11,0.52
2022-11-15 21:18:48.8330,-0.22,0.77,-0.16,0.81
2022-11-15 21:18:48.8400,-0.41,0.98,-0.21,1.08
2022-11-15 21:18:48.8510,-0.43,1.07,-0.16,1.16
2022-11-15 21:18:48.9070,-0.39,1.0,-0.15,1.08
2022-11-15 21:18:48.9090,-0.38,0.85,-0.14,0.94
2022-11-15 21:18:48.9100,-0.38,0.66,-0.11,0.76
2022-11-15 21:18:48.9100,-0.32,0.53,-0.12,0.63
2022-11-15 21:18:48.9120,-0.27,0.42,-0.01,0.49
2022-11-15 21:18:48.9150,-0.22,0.27,0.18,0.39
2022-11-15 21:18:48.9210,-0.12,0.11,0.25,0.29
2022-11-15 21:18:48.9310,-0.01,-0.13,0.27,0.29
2022-11-15 21:18:48.9410,0.06,-0.36,0.24,0.43
2022-11-15 21:18:48.9510,0.06,-0.56,0.32,0.64
2022-11-15 21:18:49.0080,0.09,-0.66,0.48,0.82
2022-11-15 21:18:49.0100,0.13,-0.65,0.61,0.9
2022-11-15 21:18:49.0100,0.14,-0.59,0.64,0.88
2022-11-15 21:18:49.0110,0.17,-0.43,0.61,0.76
2022-11-15 21:18:49.0120,0.2,-0.23,0.52,0.6
2022-11-15 21:18:49.0270,0.14,-0.04,0.36,0.38
2022-11-15 21:18:49.0280,-0.08,0.07,0.21,0.23
2022-11-15 21:18:49.0310,-0.37,0.13,0.16,0.42
2022-11-15 21:18:49.0410,-0.72,0.15,0.22,0.76
2022-11-15 21:18:49.0520,-1.07,0.01,0.27,1.1
2022-11-15 21:18:49.1080,-1.35,-0.14,0.23,1.37
2022-11-15 21:18:49.1100,-1.59,-0.27,0.12,1.61
2022-11-15 21:18:49.1110,-1.77,-0.49,-0.1,1.83
2022-11-15 21:18:49.1120,-1.86,-0.67,-0.37,2.01
2022-11-15 21:18:49.1120,-1.9,-0.81,-0.66,2.16
2022-11-15 21:18:49.1300,-1.71,-0.95,-0.82,2.12
2022-11-15 21:18:49.1310,-1.19,-1.06,-0.68,1.73
2022-11-15 21:18:49.1310,-0.58,-1.07,-0.39,1.27
2022-11-15 21:18:49.1410,0.05,-0.94,-0.23,0.96
2022-11-15 21:18:49.1520,0.5,-0.79,-0.21,0.95
2022-11-15 21:18:49.2090,0.89,-0.69,-0.32,1.17
2022-11-15 21:18:49.2100,1.09,-0.6,-0.57,1.36
2022-11-15 21:18:49.2110,1.13,-0.66,-0.85,1.56
2022-11-15 21:18:49.2120,1.11,-0.78,-1.01,1.69
2022-11-15 21:18:49.2130,1.02,-0.85,-1.09,1.71
2022-11-15 21:18:49.2280,1.08,-0.82,-1.1,1.74
2022-11-15 21:18:49.2290,1.21,-0.6,-1.06,1.71
2022-11-15 21:18:49.2320,1.24,-0.48,-1.02,1.67
2022-11-15 21:18:49.2420,1.22,-0.44,-1.12,1.71
2022-11-15 21:18:49.2520,1.12,-0.33,-1.18,1.66
2022-11-15 21:18:49.3090,0.95,-0.16,-0.98,1.37
2022-11-15 21:18:49.3110,0.81,0.05,-0.8,1.13
2022-11-15 21:18:49.3120,0.72,0.34,-0.68,1.04
2022-11-15 21:18:49.3130,0.59,0.53,-0.53,0.95
2022-11-15 21:18:49.3130,0.48,0.76,-0.36,0.96
2022-11-15 21:18:49.3280,0.44,0.87,-0.1,0.98
2022-11-15 21:18:49.3290,0.49,0.65,0.17,0.83
2022-11-15 21:18:49.3320,0.67,0.4,0.44,0.89
2022-11-15 21:18:49.3420,0.77,0.23,0.72,1.07
2022-11-15 21:18:49.3520,0.72,0.1,0.7,1.0
2022-11-15 21:18:49.4100,0.56,-0.03,0.43,0.7
2022-11-15 21:18:49.4120,0.48,-0.13,0.1,0.5
2022-11-15 21:18:49.4130,0.44,0.12,0.06,0.46
2022-11-15 21:18:49.4140,0.2,0.33,0.18,0.42
2022-11-15 21:18:49.4140,0.01,0.56,0.16,0.58
2022-11-15 21:18:49.4280,-0.02,0.79,0.09,0.79
2022-11-15 21:18:49.4280,0.05,1.16,0.17,1.17
2022-11-15 21:18:49.4320,0.1,1.48,0.22,1.49
2022-11-15 21:18:49.4420,0.06,1.68,0.17,1.68
2022-11-15 21:18:49.4530,-0.05,1.91,0.18,1.91
2022-11-15 21:18:49.5110,-0.13,2.06,0.26,2.08
2022-11-15 21:18:49.5130,-0.29,2.23,0.37,2.27
2022-11-15 21:18:49.5140,-0.55,2.24,0.49,2.35
2022-11-15 21:18:49.5140,-0.78,2.12,0.68,2.35
2022-11-15 21:18:49.5150,-1.01,1.87,0.87,2.29
2022-11-15 21:18:49.5280,-1.16,1.63,0.98,2.22
2022-11-15 21:18:49.5280,-1.26,1.4,1.01,2.13
2022-11-15 21:18:49.5330,-1.45,1.14,1.0,2.09
2022-11-15 21:18:49.5430,-1.64,0.92,1.02,2.13
2022-11-15 21:18:49.5530,-1.82,0.75,1.08,2.24
2022-11-15 21:18:49.6120,-1.97,0.62,1.14,2.35
2022-11-15 21:18:49.6130,-2.12,0.56,1.24,2.51
2022-11-15 21:18:49.6140,-2.3,0.48,1.25,2.66
2022-11-15 21:18:49.6150,-2.25,0.48,1.18,2.58
2022-11-15 21:18:49.6160,-2.05,0.47,1.18,2.41
2022-11-15 21:18:49.6280,-1.98,0.46,1.29,2.4
2022-11-15 21:18:49.6280,-1.98,0.41,1.4,2.45
2022-11-15 21:18:49.6330,-1.93,0.25,1.46,2.43
2022-11-15 21:18:49.6430,-1.94,0.02,1.61,2.52
2022-11-15 21:18:49.6530,-1.98,-0.17,1.81,2.68
2022-11-15 21:18:49.7130,-1.9,-0.37,2.05,2.81
2022-11-15 21:18:49.7150,-1.73,-0.73,2.42,3.06
2022-11-15 21:18:49.7160,-1.61,-1.19,2.87,3.49
2022-11-15 21:18:49.7170,-1.59,-1.56,3.35,4.02
2022-11-15 21:18:49.7170,-1.67,-1.87,3.67,4.44
2022-11-15 21:18:49.7280,-1.76,-2.2,3.64,4.6
2022-11-15 21:18:49.7280,-1.68,-2.5,3.32,4.48
2022-11-15 21:18:49.7340,-1.23,-2.76,2.7,4.05
2022-11-15 21:18:49.7440,-0.62,-3.14,1.92,3.73
2022-11-15 21:18:49.7540,0.06,-3.61,1.2,3.8
2022-11-15 21:18:49.8130,0.57,-3.9,0.8,4.02
2022-11-15 21:18:49.8140,0.9,-3.83,0.63,3.98
2022-11-15 21:18:49.8150,1.18,-3.39,0.48,3.62
2022-11-15 21:18:49.8160,1.57,-2.59,0.24,3.03
2022-11-15 21:18:49.8170,2.02,-1.66,-0.04,2.61
2022-11-15 21:18:49.8270,2.6,-0.78,-0.27,2.72
2022-11-15 21:18:49.8280,3.26,0.06,-0.39,3.28
2022-11-15 21:18:49.8340,3.85,0.91,-0.41,3.97
2022-11-15 21:18:49.8440,4.13,1.79,-0.42,4.52
2022-11-15 21:18:49.8540,4.05,2.54,-0.54,4.81
2022-11-15 21:18:49.9140,3.71,3.0,-0.69,4.82
2022-11-15 21:18:49.9160,3.3,3.17,-0.82,4.64
2022-11-15 21:18:49.9170,3.07,3.18,-0.92,4.51
2022-11-15 21:18:49.9180,3.0,3.24,-0.97,4.52
2022-11-15 21:18:49.9180,2.88,3.18,-0.99,4.4
2022-11-15 21:18:49.9280,2.67,2.93,-0.99,4.08
2022-11-15 21:18:49.9280,2.43,2.55,-0.99,3.65
2022-11-15 21:18:49.9340,2.19,2.06,-0.97,3.15
2022-11-15 21:18:49.9440,1.87,1.57,-0.95,2.61
2022-11-15 21:18:49.9540,1.67,1.04,-1.12,2.26
2022-11-15 21:18:50.0140,1.44,0.44,-1.28,1.97
2022-11-15 21:18:50.0160,1.27,-0.27,-1.5,1.98
2022-11-15 21:18:50.0170,1.22,-0.89,-1.8,2.34
2022-11-15 21:18:50.0180,1.21,-1.31,-2.03,2.7
2022-11-15 21:18:50.0180,1.29,-1.47,-2.12,2.88
2022-11-15 21:18:50.0280,1.4,-1.51,-2.0,2.87
2022-11-15 21:18:50.0280,1.46,-1.49,-1.81,2.76
2022-11-15 21:18:50.0340,1.45,-1.37,-1.67,2.6
2022-11-15 21:18:50.0440,1.41,-0.96,-1.46,2.24
2022-11-15 21:18:50.0540,1.36,-0.47,-1.2,1.87
2022-11-15 21:18:50.1160,1.2,-0.08,-0.87,1.48
2022-11-15 21:18:50.1180,0.98,0.12,-0.64,1.17
2022-11-15 21:18:50.1190,0.77,0.2,-0.43,0.9
2022-11-15 21:18:50.1200,0.55,0.29,-0.24,0.66
2022-11-15 21:18:50.1200,0.35,0.37,-0.19,0.54
2022-11-15 21:18:50.1280,0.12,0.46,-0.21,0.51
2022-11-15 21:18:50.1280,-0.15,0.5,-0.21,0.56
2022-11-15 21:18:50.1340,-0.39,0.49,-0.18,0.65
2022-11-15 21:18:50.1440,-0.57,0.57,-0.18,0.82
2022-11-15 21:18:50.1550,-0.74,0.68,-0.23,1.03
2022-11-15 21:18:50.2170,-0.83,0.65,-0.3,1.09
2022-11-15 21:18:50.2190,-0.92,0.57,-0.32,1.12
2022-11-15 21:18:50.2200,-0.93,0.35,-0.35,1.05
2022-11-15 21:18:50.2200,-0.82,0.03,-0.3,0.87
2022-11-15 21:18:50.2210,-0.7,-0.25,-0.12,0.75
2022-11-15 21:18:50.2260,-0.58,-0.4,0.1,0.71
2022-11-15 21:18:50.2260,-0.55,-0.49,0.29,0.79
2022-11-15 21:18:50.2350,-0.49,-0.62,0.43,0.89
2022-11-15 21:18:50.2450,-0.46,-0.57,0.53,0.9
2022-11-15 21:18:50.2550,-0.5,-0.42,0.59,0.88
2022-11-15 21:18:50.3160,-0.53,-0.25,0.63,0.86
2022-11-15 21:18:50.3180,-0.57,0.02,0.71,0.91
2022-11-15 21:18:50.3190,-0.61,0.28,0.81,1.05
2022-11-15 21:18:50.3200,-0.56,0.46,0.87,1.13
2022-11-15 21:18:50.3200,-0.57,0.61,0.89,1.22
2022-11-15 21:18:50.3270,-0.54,0.73,0.94,1.3
2022-11-15 21:18:50.3280,-0.52,0.7,0.94,1.28
2022-11-15 21:18:50.3350,-0.5,0.46,0.92,1.14
2022-11-15 21:18:50.3450,-0.54,0.14,0.79,0.96
2022-11-15 21:18:50.3550,-0.74,-0.12,0.58,0.94
2022-11-15 21:18:50.4180,-1.04,-0.22,0.3,1.1
2022-11-15 21:18:50.4190,-1.27,-0.2,0.01,1.28
2022-11-15 21:18:50.4220,-1.34,-0.15,-0.26,1.37
2022-11-15 21:18:50.4240,-1.21,-0.1,-0.49,1.3
2022-11-15 21:18:50.4260,-0.98,-0.03,-0.67,1.18
2022-11-15 21:18:50.4270,-0.68,0.09,-0.75,1.01
2022-11-15 21:18:50.4440,-0.27,0.25,-0.68,0.77
2022-11-15 21:18:50.4450,0.23,0.45,-0.53,0.73
2022-11-15 21:18:50.4480,0.7,0.73,-0.3,1.05
2022-11-15 21:18:50.4550,1.1,0.91,-0.12,1.43
2022-11-15 21:18:50.5190,1.26,0.91,-0.11,1.55
2022-11-15 21:18:50.5200,1.16,0.64,-0.16,1.33
2022-11-15 21:18:50.5210,1.02,0.09,-0.25,1.05
2022-11-15 21:18:50.5260,0.82,-0.54,-0.4,1.06
2022-11-15 21:18:50.5270,0.67,-1.0,-0.54,1.31
2022-11-15 21:18:50.5280,0.62,-1.15,-0.61,1.44
2022-11-15 21:18:50.5290,0.5,-1.18,-0.64,1.43
2022-11-15 21:18:50.5440,0.28,-1.23,-0.79,1.48
2022-11-15 21:18:50.5460,0.07,-1.31,-1.04,1.67
2022-11-15 21:18:50.5560,-0.01,-1.39,-1.33,1.92
2022-11-15 21:18:50.6190,-0.09,-1.45,-1.63,2.18
2022-11-15 21:18:50.6200,-0.13,-1.36,-1.81,2.26
2022-11-15 21:18:50.6220,-0.07,-1.16,-1.88,2.21
2022-11-15 21:18:50.6240,0.14,-0.97,-1.88,2.12
2022-11-15 21:18:50.6250,0.45,-0.62,-1.71,1.87
2022-11-15 21:18:50.6270,0.7,-0.27,-1.43,1.61
2022-11-15 21:18:50.6290,0.91,-0.1,-1.1,1.43
2022-11-15 21:18:50.6360,1.15,0.18,-0.8,1.41
2022-11-15 21:18:50.6460,1.22,0.33,-0.45,1.34
2022-11-15 21:18:50.6560,1.35,0.21,-0.14,1.37
2022-11-15 21:18:50.7190,1.54,0.08,0.21,1.55
2022-11-15 21:18:50.7200,1.66,0.01,0.6,1.76
2022-11-15 21:18:50.7230,1.71,0.03,0.89,1.92
2022-11-15 21:18:50.7250,1.69,0.19,1.01,1.97
2022-11-15 21:18:50.7260,1.44,0.44,0.94,1.77
2022-11-15 21:18:50.7440,1.01,0.49,0.69,1.31
2022-11-15 21:18:50.7450,0.55,0.61,0.59,1.01
2022-11-15 21:18:50.7470,0.09,0.47,0.55,0.72
2022-11-15 21:18:50.7500,-0.23,0.04,0.37,0.43
2022-11-15 21:18:50.7560,-0.48,-0.29,0.23,0.6
2022-11-15 21:18:50.8200,-0.66,-0.47,0.05,0.81
2022-11-15 21:18:50.8210,-0.73,-0.5,0.03,0.88
2022-11-15 21:18:50.8230,-0.82,-0.3,0.02,0.87
2022-11-15 21:18:50.8250,-0.94,0.15,0.03,0.95
2022-11-15 21:18:50.8260,-1.01,0.6,0.05,1.17
2022-11-15 21:18:50.8440,-0.8,1.23,-0.09,1.47
2022-11-15 21:18:50.8450,-0.68,1.9,-0.25,2.03
2022-11-15 21:18:50.8480,-0.66,2.35,-0.33,2.46
2022-11-15 21:18:50.8500,-0.74,2.56,-0.3,2.68
2022-11-15 21:18:50.8560,-0.83,2.64,-0.2,2.77
2022-11-15 21:18:50.9210,-0.98,2.63,-0.07,2.8
2022-11-15 21:18:50.9220,-1.13,2.59,0.08,2.82
2022-11-15 21:18:50.9240,-1.28,2.57,0.29,2.88
2022-11-15 21:18:50.9250,-1.44,2.55,0.51,2.97
2022-11-15 21:18:50.9270,-1.65,2.55,0.69,3.11
2022-11-15 21:18:50.9290,-1.86,2.58,0.8,3.27
2022-11-15 21:18:50.9310,-2.05,2.5,0.88,3.35
2022-11-15 21:18:50.9370,-2.17,2.26,0.94,3.27
2022-11-15 21:18:50.9470,-2.31,1.97,0.99,3.19
2022-11-15 21:18:50.9570,-2.46,1.69,1.16,3.2
2022-11-15 21:18:51.0210,-2.62,1.22,1.37,3.19
2022-11-15 21:18:51.0220,-2.74,0.5,1.65,3.23
2022-11-15 21:18:51.0240,-2.76,-0.24,2.06,3.45
2022-11-15 21:18:51.0250,-2.82,-0.87,2.54,3.89
2022-11-15 21:18:51.0270,-2.83,-1.42,2.87,4.27
2022-11-15 21:18:51.0290,-2.69,-1.8,2.95,4.37
2022-11-15 21:18:51.0310,-2.51,-1.95,2.85,4.26
2022-11-15 21:18:51.0370,-2.44,-1.93,2.74,4.14
2022-11-15 21:18:51.0470,-2.52,-1.7,2.65,4.03
2022-11-15 21:18:51.0570,-2.47,-1.37,2.5,3.77
2022-11-15 21:18:51.1210,-2.04,-1.04,2.22,3.18
2022-11-15 21:18:51.1220,-1.31,-0.89,2.09,2.62
2022-11-15 21:18:51.1250,-0.75,-1.16,2.03,2.45
2022-11-15 21:18:51.1260,-0.95,-1.65,1.96,2.73
2022-11-15 21:18:51.1440,-1.47,-2.25,1.97,3.33
2022-11-15 21:18:51.1450,-1.72,-2.88,1.82,3.81
2022-11-15 21:18:51.1480,-1.61,-3.13,1.42,3.79
2022-11-15 21:18:51.1500,-1.39,-2.9,0.97,3.35
2022-11-15 21:18:51.1520,-1.22,-2.49,0.5,2.81
2022-11-15 21:18:51.1570,-0.88,-1.96,0.13,2.15
2022-11-15 21:18:51.2230,-0.41,-1.3,0.05,1.36
2022-11-15 21:18:51.2240,0.12,-0.69,0.03,0.7
2022-11-15 21:18:51.2250,0.97,-0.19,-0.1,0.99
2022-11-15 21:18:51.2270,1.73,0.2,-0.2,1.75
2022-11-15 21:18:51.2300,2.09,0.6,-0.06,2.17
2022-11-15 21:18:51.2320,2.26,0.9,0.19,2.44
2022-11-15 21:18:51.2340,2.47,1.01,0.27,2.68
2022-11-15 21:18:51.2380,2.63,0.87,0.06,2.77
2022-11-15 21:18:51.2480,2.43,0.56,-0.13,2.49
2022-11-15 21:18:51.2580,2.1,0.2,-0.28,2.12
2022-11-15 21:18:51.3230,1.78,-0.11,-0.38,1.82
2022-11-15 21:18:51.3240,1.48,-0.17,-0.48,1.56
2022-11-15 21:18:51.3250,1.25,-0.11,-0.45,1.33
2022-11-15 21:18:51.3270,1.09,0.07,-0.4,1.16
2022-11-15 21:18:51.3300,0.94,0.3,-0.48,1.09
2022-11-15 21:18:51.3320,0.79,0.65,-0.63,1.2
2022-11-15 21:18:51.3340,0.57,0.97,-0.83,1.39
2022-11-15 21:18:51.3380,0.34,1.25,-1.09,1.69
2022-11-15 21:18:51.3480,0.21,1.43,-1.33,1.96
2022-11-15 21:18:51.3580,0.06,1.55,-1.48,2.14
2022-11-15 21:18:51.4240,-0.14,1.6,-1.62,2.28
2022-11-15 21:18:51.4250,-0.44,1.53,-1.63,2.27
2022-11-15 21:18:51.4280,-0.71,1.32,-1.6,2.19
2022-11-15 21:18:51.4300,-0.97,1.15,-1.66,2.24
2022-11-15 21:18:51.4320,-1.15,0.8,-1.82,2.29
2022-11-15 21:18:51.4340,-1.2,0.34,-1.82,2.2
2022-11-15 21:18:51.4360,-0.99,0.07,-1.55,1.84
2022-11-15 21:18:51.4390,-0.71,-0.23,-1.05,1.28
2022-11-15 21:18:51.4480,-0.37,-0.48,-0.74,0.95
2022-11-15 21:18:51.4590,0.02,-0.51,-0.7,0.86
2022-11-15 21:18:51.5250,0.23,-0.42,-0.56,0.73
2022-11-15 21:18:51.5260,0.29,-0.26,-0.27,0.47
2022-11-15 21:18:51.5280,0.31,-0.02,-0.01,0.31
2022-11-15 21:18:51.5310,0.25,0.19,0.22,0.38
2022-11-15 21:18:51.5330,0.13,0.35,0.43,0.56
2022-11-15 21:18:51.5350,-0.06,0.41,0.67,0.78
2022-11-15 21:18:51.5370,-0.23,0.4,0.77,0.89
2022-11-15 21:18:51.5400,-0.32,0.48,0.7,0.9
2022-11-15 21:18:51.5490,-0.59,0.51,0.64,1.0
2022-11-15 21:18:51.5590,-0.9,0.55,0.57,1.19
2022-11-15 21:18:51.6260,-1.12,0.65,0.5,1.38
2022-11-15 21:18:51.6270,-1.33,0.69,0.44,1.56
2022-11-15 21:18:51.6280,-1.44,0.69,0.36,1.63
2022-11-15 21:18:51.6300,-1.47,0.67,0.33,1.64
2022-11-15 21:18:51.6320,-1.46,0.57,0.46,1.63
2022-11-15 21:18:51.6340,-1.32,0.37,0.63,1.5
2022-11-15 21:18:51.6360,-1.12,0.17,0.78,1.37
2022-11-15 21:18:51.6390,-1.03,0.05,0.98,1.42
2022-11-15 21:18:51.6490,-0.89,-0.08,1.14,1.44
2022-11-15 21:18:51.6590,-0.7,-0.23,1.12,1.34
2022-11-15 21:18:51.7270,-0.56,-0.44,1.06,1.27
2022-11-15 21:18:51.7280,-0.49,-0.55,1.01,1.25
2022-11-15 21:18:51.7300,-0.47,-0.48,0.97,1.17
2022-11-15 21:18:51.7320,-0.47,-0.36,0.87,1.05
2022-11-15 21:18:51.7340,-0.45,-0.18,0.8,0.93
2022-11-15 21:18:51.7370,-0.46,0.01,0.83,0.94
2022-11-15 21:18:51.7390,-0.56,0.26,0.91,1.09
2022-11-15 21:18:51.7410,-0.75,0.47,0.84,1.22
2022-11-15 21:18:51.7490,-1.0,0.58,0.72,1.36
2022-11-15 21:18:51.7590,-1.33,0.63,0.56,1.57
2022-11-15 21:18:51.8270,-1.65,0.62,0.37,1.8
2022-11-15 21:18:51.8280,-1.81,0.49,0.11,1.87
2022-11-15 21:18:51.8290,-1.74,0.2,-0.19,1.76
2022-11-15 21:18:51.8310,-1.61,-0.41,-0.42,1.71
2022-11-15 21:18:51.8330,-1.74,-1.18,-0.74,2.22
2022-11-15 21:18:51.8360,-1.89,-1.69,-1.11,2.76
2022-11-15 21:18:51.8380,-1.76,-1.88,-1.27,2.87
2022-11-15 21:18:51.8400,-1.66,-1.75,-0.95,2.59
2022-11-15 21:18:51.8500,-1.6,-1.39,-0.6,2.2
2022-11-15 21:18:51.8600,-1.47,-1.01,-0.39,1.82
2022-11-15 21:18:51.9290,-1.28,-0.93,-0.35,1.62
2022-11-15 21:18:51.9300,-0.98,-1.43,-0.5,1.8
2022-11-15 21:18:51.9310,-0.47,-2.27,-0.58,2.38
2022-11-15 21:18:51.9330,0.11,-2.81,-0.57,2.86
2022-11-15 21:18:51.9350,0.31,-2.93,-0.63,3.01
2022-11-15 21:18:51.9370,0.39,-2.73,-0.76,2.86
2022-11-15 21:18:51.9390,0.55,-2.33,-0.85,2.54
2022-11-15 21:18:51.9420,0.65,-1.75,-0.83,2.04
2022-11-15 21:18:51.9500,0.87,-1.04,-0.83,1.58
2022-11-15 21:18:51.9610,1.09,-0.4,-0.95,1.5
2022-11-15 21:18:52.0290,1.27,0.14,-1.04,1.64
2022-11-15 21:18:52.0310,1.3,0.48,-1.11,1.77
2022-11-15 21:18:52.0320,1.27,0.96,-1.04,1.9
2022-11-15 21:18:52.0330,1.32,1.23,-0.88,2.0
2022-11-15 21:18:52.0330,1.37,1.37,-0.79,2.09
2022-11-15 21:18:52.0440,1.48,1.46,-0.7,2.19
2022-11-15 21:18:52.0440,1.49,1.46,-0.48,2.14
2022-11-15 21:18:52.0450,1.29,1.36,-0.19,1.88
2022-11-15 21:18:52.0500,1.13,1.53,0.1,1.9
2022-11-15 21:18:52.0600,1.0,1.27,0.29,1.64
2022-11-15 21:18:52.1300,0.73,-0.19,0.51,0.91
2022-11-15 21:18:52.1310,0.8,-1.24,0.67,1.62
2022-11-15 21:18:52.1320,0.68,-1.84,0.82,2.12
2022-11-15 21:18:52.1340,0.09,-1.93,0.94,2.14
2022-11-15 21:18:52.1360,-0.43,-1.84,0.84,2.06
2022-11-15 21:18:52.1380,-0.56,-1.28,0.46,1.47
2022-11-15 21:18:52.1400,-0.46,-0.43,0.03,0.63
2022-11-15 21:18:52.1420,-0.53,0.31,-0.26,0.66
2022-11-15 21:18:52.1510,-0.65,0.8,-0.51,1.15
2022-11-15 21:18:52.1610,-0.62,1.33,-0.69,1.62
2022-11-15 21:18:52.2300,-0.73,1.75,-0.75,2.03
2022-11-15 21:18:52.2320,-0.82,1.98,-0.76,2.27
2022-11-15 21:18:52.2330,-0.88,2.13,-0.61,2.38
2022-11-15 21:18:52.2340,-0.92,2.33,-0.24,2.51
2022-11-15 21:18:52.2350,-1.02,2.48,0.1,2.68
2022-11-15 21:18:52.2440,-1.11,2.47,0.3,2.72
2022-11-15 21:18:52.2450,-1.27,2.27,0.36,2.62
2022-11-15 21:18:52.2460,-1.45,2.06,0.37,2.54
2022-11-15 21:18:52.2510,-1.5,2.03,0.41,2.55
2022-11-15 21:18:52.2610,-1.48,2.11,0.39,2.6
2022-11-15 21:18:52.3320,-1.53,2.23,0.28,2.71
2022-11-15 21:18:52.3330,-1.6,2.4,0.25,2.89
2022-11-15 21:18:52.3330,-1.64,2.37,0.26,2.89
2022-11-15 21:18:52.3350,-1.83,2.17,0.49,2.88
2022-11-15 21:18:52.3380,-2.13,1.95,0.89,3.02
2022-11-15 21:18:52.3400,-2.17,1.68,1.19,2.99
2022-11-15 21:18:52.3420,-2.03,1.17,1.14,2.6
2022-11-15 21:18:52.3430,-1.88,0.35,0.87,2.1
2022-11-15 21:18:52.3610,-1.87,-0.62,0.56,2.04
2022-11-15 21:18:52.3610,-2.05,-1.36,0.56,2.52
2022-11-15 21:18:52.4320,-2.17,-1.95,0.94,3.06
2022-11-15 21:18:52.4330,-2.2,-2.34,1.32,3.47
2022-11-15 21:18:52.4340,-2.16,-2.34,1.44,3.49
2022-11-15 21:18:52.4350,-2.05,-2.08,1.48,3.27
2022-11-15 21:18:52.4370,-1.87,-1.61,1.5,2.88
2022-11-15 21:18:52.4390,-1.59,-0.92,1.56,2.41
2022-11-15 21:18:52.4420,-1.04,-0.24,1.79,2.08
2022-11-15 21:18:52.4420,0.58,-0.24,2.29,2.37
2022-11-15 21:18:52.4610,2.38,-1.72,2.42,3.8
2022-11-15 21:18:52.4620,1.73,-4.24,0.65,4.62
2022-11-15 21:18:52.5320,-0.46,-5.9,-1.64,6.14
2022-11-15 21:18:52.5340,-0.75,-6.48,-2.22,6.89
2022-11-15 21:18:52.5350,-0.13,-6.96,-2.36,7.35
2022-11-15 21:18:52.5350,0.27,-6.43,-2.23,6.81
2022-11-15 21:18:52.5360,0.46,-4.6,-1.54,4.87
2022-11-15 21:18:52.5430,1.14,-2.18,-1.13,2.7
2022-11-15 21:18:52.5430,2.71,-0.14,-1.07,2.91
2022-11-15 21:18:52.5440,3.92,1.16,-1.1,4.23
2022-11-15 21:18:52.5510,3.99,1.88,-1.1,4.54
2022-11-15 21:18:52.5620,3.27,2.28,-1.37,4.21
2022-11-15 21:18:52.6320,2.53,2.62,-1.66,4.0
2022-11-15 21:18:52.6330,2.03,2.74,-1.79,3.85
2022-11-15 21:18:52.6340,1.74,2.71,-1.84,3.7
2022-11-15 21:18:52.6360,1.49,2.55,-1.89,3.5
2022-11-15 21:18:52.6380,1.38,2.37,-1.84,3.3
2022-11-15 21:18:52.6400,1.2,2.21,-1.65,3.0
2022-11-15 21:18:52.6420,0.96,1.97,-1.4,2.6
2022-11-15 21:18:52.6430,0.8,1.74,-1.16,2.23
2022-11-15 21:18:52.6610,0.67,1.54,-1.22,2.07
2022-11-15 21:18:52.6620,0.39,1.36,-1.56,2.1
2022-11-15 21:18:52.7320,0.1,1.1,-2.06,2.33
2022-11-15 21:18:52.7340,0.13,1.09,-2.26,2.51
2022-11-15 21:18:52.7350,0.38,0.82,-2.5,2.65
2022-11-15 21:18:52.7360,0.79,0.46,-2.37,2.54
2022-11-15 21:18:52.7360,1.36,0.33,-2.13,2.54
2022-11-15 21:18:52.7430,1.82,0.29,-1.76,2.54
2022-11-15 21:18:52.7440,1.88,0.21,-1.23,2.25
2022-11-15 21:18:52.7440,1.94,0.3,-1.45,2.44
2022-11-15 21:18:52.7520,1.82,0.29,-1.28,2.24
2022-11-15 21:18:52.7620,1.57,0.23,-0.93,1.83
2022-11-15 21:18:52.8320,1.34,0.23,-0.64,1.5
2022-11-15 21:18:52.8330,1.05,0.31,-0.27,1.12
2022-11-15 21:18:52.8340,0.7,0.38,0.11,0.8
2022-11-15 21:18:52.8360,0.44,0.51,0.37,0.76
2022-11-15 21:18:52.8380,0.14,0.63,0.54,0.84
2022-11-15 21:18:52.8410,-0.21,0.72,0.6,0.96
2022-11-15 21:18:52.8410,-0.59,0.84,0.64,1.2
2022-11-15 21:18:52.8430,-0.96,0.74,0.68,1.38
2022-11-15 21:18:52.8530,-1.27,0.51,0.65,1.51
2022-11-15 21:18:52.8630,-1.56,0.29,0.65,1.71
2022-11-15 21:18:52.9330,-1.65,0.15,0.63,1.77
2022-11-15 21:18:52.9340,-1.73,0.07,0.65,1.84
2022-11-15 21:18:52.9350,-1.78,-0.09,0.53,1.85
2022-11-15 21:18:52.9370,-1.75,-0.18,0.42,1.8
2022-11-15 21:18:52.9390,-1.67,-0.18,0.29,1.7
2022-11-15 21:18:52.9420,-1.57,-0.12,0.21,1.58
2022-11-15 21:18:52.9430,-1.43,-0.08,0.25,1.45
2022-11-15 21:18:52.9610,-1.31,0.06,0.34,1.35
2022-11-15 21:18:52.9620,-1.17,0.21,0.48,1.28
2022-11-15 21:18:52.9630,-0.97,0.29,0.62,1.18
2022-11-15 21:18:53.0330,-0.74,0.33,0.77,1.11
2022-11-15 21:18:53.0340,-0.42,0.29,0.8,0.94
2022-11-15 21:18:53.0350,-0.14,0.26,0.81,0.86
2022-11-15 21:18:53.0360,0.0,0.26,0.72,0.76
2022-11-15 21:18:53.0370,0.04,0.27,0.61,0.66
2022-11-15 21:18:53.0440,-0.09,0.34,0.53,0.63
2022-11-15 21:18:53.0450,-0.42,0.5,0.42,0.77
2022-11-15 21:18:53.0450,-0.86,0.72,0.4,1.19
2022-11-15 21:18:53.0530,-1.18,0.82,0.28,1.46
2022-11-15 21:18:53.0630,-1.35,0.72,0.06,1.53
2022-11-15 21:18:53.1330,-1.29,0.26,-0.01,1.31
2022-11-15 21:18:53.1340,-1.02,-0.58,0.01,1.17
2022-11-15 21:18:53.1350,-0.94,-1.53,-0.19,1.8
2022-11-15 21:18:53.1370,-0.71,-2.29,-0.54,2.45
2022-11-15 21:18:53.1390,-0.39,-2.8,-0.62,2.89
2022-11-15 21:18:53.1420,-0.33,-3.23,-0.65,3.31
2022-11-15 21:18:53.1430,-0.42,-3.59,-0.92,3.72
2022-11-15 21:18:53.1610,-0.41,-3.64,-1.08,3.81
2022-11-15 21:18:53.1620,-0.27,-3.43,-0.94,3.56
2022-11-15 21:18:53.1640,0.05,-3.22,-0.69,3.29
2022-11-15 21:18:53.2340,0.38,-3.03,-0.63,3.11
2022-11-15 21:18:53.2360,0.42,-2.85,-0.57,2.93
2022-11-15 21:18:53.2360,0.46,-2.64,-0.56,2.73
2022-11-15 21:18:53.2370,0.48,-2.19,-0.52,2.3
2022-11-15 21:18:53.2380,0.47,-1.42,-0.56,1.59
2022-11-15 21:18:53.2440,0.53,-0.44,-0.78,1.04
2022-11-15 21:18:53.2450,0.67,0.31,-1.03,1.26
2022-11-15 21:18:53.2450,0.87,1.07,-1.06,1.73
2022-11-15 21:18:53.2540,1.19,1.6,-1.0,2.23
2022-11-15 21:18:53.2640,1.51,1.8,-0.95,2.53
2022-11-15 21:18:53.3340,1.75,1.65,-0.9,2.56
2022-11-15 21:18:53.3350,1.86,1.4,-0.84,2.47
2022-11-15 21:18:53.3360,1.82,1.2,-0.71,2.29
2022-11-15 21:18:53.3380,1.74,1.15,-0.5,2.14
2022-11-15 21:18:53.3400,1.6,1.05,-0.13,1.91
2022-11-15 21:18:53.3420,1.53,1.04,0.23,1.86
2022-11-15 21:18:53.3430,1.3,0.54,0.47,1.48
2022-11-15 21:18:53.3610,1.01,-0.66,0.5,1.3
2022-11-15 21:18:53.3620,0.77,-1.09,0.31,1.37
2022-11-15 21:18:53.3640,0.59,-1.02,0.1,1.18
2022-11-15 21:18:53.4350,0.3,-0.77,0.06,0.82
2022-11-15 21:18:53.4360,0.06,-0.28,-0.05,0.29
2022-11-15 21:18:53.4370,0.04,0.33,-0.24,0.41
2022-11-15 21:18:53.4380,0.08,0.98,-0.44,1.07
2022-11-15 21:18:53.4390,0.16,1.4,-0.58,1.52
2022-11-15 21:18:53.4420,0.24,1.68,-0.66,1.82
2022-11-15 21:18:53.4430,0.31,1.89,-0.68,2.03
2022-11-15 21:18:53.4440,0.32,2.16,-0.68,2.28
2022-11-15 21:18:53.4540,0.22,2.26,-0.72,2.38
2022-11-15 21:18:53.4650,0.07,2.34,-0.62,2.42
2022-11-15 21:18:53.5350,-0.29,2.21,-0.42,2.26
2022-11-15 21:18:53.5360,-0.66,2.01,-0.2,2.12
2022-11-15 21:18:53.5370,-0.85,1.79,0.04,1.98
2022-11-15 21:18:53.5390,-0.96,1.61,0.19,1.88
2022-11-15 21:18:53.5420,-1.09,1.6,0.27,1.95
2022-11-15 21:18:53.5420,-1.26,1.62,0.33,2.07
2022-11-15 21:18:53.5610,-1.42,1.68,0.37,2.23
2022-11-15 21:18:53.5620,-1.58,1.84,0.52,2.48
2022-11-15 21:18:53.5640,-1.86,1.99,0.79,2.83
2022-11-15 21:18:53.5660,-2.16,1.95,1.01,3.08
2022-11-15 21:18:53.6350,-2.3,1.75,1.14,3.1
2022-11-15 21:18:53.6370,-2.46,1.54,1.19,3.13
2022-11-15 21:18:53.6370,-2.61,1.45,1.27,3.24
2022-11-15 21:18:53.6380,-2.59,1.47,1.37,3.27
2022-11-15 21:18:53.6390,-2.45,1.12,1.39,3.03
2022-11-15 21:18:53.6420,-2.41,0.47,1.31,2.78
2022-11-15 21:18:53.6430,-2.43,-0.32,1.12,2.69
2022-11-15 21:18:53.6450,-2.51,-1.07,0.95,2.88
2022-11-15 21:18:53.6550,-2.55,-1.67,0.94,3.18
2022-11-15 21:18:53.6650,-2.7,-1.8,0.99,3.39
2022-11-15 21:18:53.7350,-2.49,-1.74,1.17,3.25
2022-11-15 21:18:53.7360,-2.03,-1.72,1.64,3.12
2022-11-15 21:18:53.7390,-1.09,-2.01,2.13,3.12
2022-11-15 21:18:53.7410,0.31,-2.82,2.0,3.47
2022-11-15 21:18:53.7430,1.12,-4.26,0.93,4.5
2022-11-15 21:18:53.7450,0.34,-5.74,-0.27,5.75
2022-11-15 21:18:53.7470,-0.56,-6.51,-0.68,6.56
2022-11-15 21:18:53.7490,-0.65,-6.31,-0.7,6.38
2022-11-15 21:18:53.7550,-0.14,-5.58,-1.22,5.71
2022-11-15 21:18:53.7660,0.71,-4.38,-1.78,4.78
2022-11-15 21:18:53.8350,1.92,-2.38,-1.87,3.58
2022-11-15 21:18:53.8360,3.06,-0.45,-1.66,3.51
2022-11-15 21:18:53.8380,3.95,0.87,-1.62,4.35
2022-11-15 21:18:53.8400,4.37,1.52,-1.64,4.9
2022-11-15 21:18:53.8420,3.81,1.73,-1.72,4.52
2022-11-15 21:18:53.8430,2.9,1.93,-1.66,3.85
2022-11-15 21:18:53.8590,2.2,2.11,-1.54,3.41
2022-11-15 21:18:53.8600,1.74,2.18,-1.43,3.13
2022-11-15 21:18:53.8610,1.6,2.18,-1.32,3.0
2022-11-15 21:18:53.8660,1.44,2.12,-1.14,2.8
2022-11-15 21:18:53.9350,1.14,2.03,-0.86,2.48
2022-11-15 21:18:53.9370,0.84,1.93,-0.62,2.19
2022-11-15 21:18:53.9380,0.51,1.8,-0.58,1.95
2022-11-15 21:18:53.9390,0.22,1.65,-0.76,1.82
2022-11-15 21:18:53.9400,0.0,1.51,-1.0,1.81
2022-11-15 21:18:53.9420,-0.13,1.37,-1.17,1.8
2022-11-15 21:18:53.9440,-0.08,1.27,-1.23,1.76
2022-11-15 21:18:53.9470,0.01,1.08,-1.37,1.74
2022-11-15 21:18:53.9560,-0.01,0.85,-1.57,1.78
2022-11-15 21:18:53.9660,0.09,0.62,-1.7,1.81
2022-11-15 21:18:54.0360,0.19,0.36,-1.8,1.84
2022-11-15 21:18:54.0380,0.16,0.18,-1.91,1.92
2022-11-15 21:18:54.0390,0.06,0.13,-1.93,1.93
2022-11-15 21:18:54.0390,0.0,0.02,-1.84,1.84
2022-11-15 21:18:54.0400,0.24,-0.18,-1.55,1.57
2022-11-15 21:18:54.0420,0.47,-0.33,-1.29,1.41
2022-11-15 21:18:54.0450,0.69,-0.32,-1.15,1.37
2022-11-15 21:18:54.0470,0.79,-0.23,-0.9,1.21
2022-11-15 21:18:54.0560,0.73,-0.16,-0.5,0.89
2022-11-15 21:18:54.0660,0.64,-0.06,-0.12,0.65
2022-11-15 21:18:54.1370,0.5,0.1,0.1,0.51
2022-11-15 21:18:54.1380,0.26,0.28,0.25,0.45
2022-11-15 21:18:54.1390,-0.02,0.44,0.39,0.58
2022-11-15 21:18:54.1400,-0.29,0.56,0.48,0.79
2022-11-15 21:18:54.1410,-0.54,0.65,0.57,1.01
2022-11-15 21:18:54.1430,-0.74,0.65,0.64,1.17
2022-11-15 21:18:54.1450,-1.01,0.51,0.62,1.29
2022-11-15 21:18:54.1470,-1.19,0.34,0.53,1.34
2022-11-15 21:18:54.1570,-1.34,0.18,0.41,1.41
2022-11-15 21:18:54.1670,-1.36,0.03,0.27,1.38
2022-11-15 21:18:54.2370,-1.22,-0.13,0.19,1.24
2022-11-15 21:18:54.2390,-1.07,-0.1,0.24,1.1
2022-11-15 21:18:54.2400,-0.89,-0.09,0.28,0.93
2022-11-15 21:18:54.2410,-0.79,-0.05,0.32,0.85
2022-11-15 21:18:54.2610,-0.68,0.07,0.35,0.76
2022-11-15 21:18:54.2620,-0.52,0.17,0.42,0.68
2022-11-15 21:18:54.2630,-0.34,0.25,0.44,0.6
2022-11-15 21:18:54.2640,-0.2,0.32,0.4,0.54
2022-11-15 21:18:54.2770,-0.03,0.4,0.42,0.58
2022-11-15 21:18:54.2780,0.19,0.47,0.52,0.72
2022-11-15 21:18:54.3420,0.35,0.48,0.65,0.88
2022-11-15 21:18:54.3430,0.48,0.5,0.7,0.98
2022-11-15 21:18:54.3440,0.57,0.56,0.75,1.09
2022-11-15 21:18:54.3610,0.51,0.63,0.8,1.13
2022-11-15 21:18:54.3620,0.27,0.67,0.7,1.0
2022-11-15 21:18:54.3630,-0.08,0.7,0.57,0.9
2022-11-15 21:18:54.3630,-0.51,0.74,0.56,1.05
2022-11-15 21:18:54.3780,-0.92,0.82,0.58,1.36
2022-11-15 21:18:54.3780,-1.21,0.81,0.63,1.58
2022-11-15 21:18:54.3810,-1.39,0.71,0.64,1.68
2022-11-15 21:18:54.4430,-1.55,0.48,0.54,1.71
2022-11-15 21:18:54.4450,-1.66,0.11,0.23,1.67
2022-11-15 21:18:54.4460,-1.68,-0.49,-0.34,1.78
2022-11-15 21:18:54.4610,-1.55,-1.41,-0.79,2.23
2022-11-15 21:18:54.4620,-1.37,-2.43,-1.28,3.06
2022-11-15 21:18:54.4630,-1.22,-3.21,-2.12,4.03
2022-11-15 21:18:54.4640,-1.02,-3.45,-2.66,4.47
2022-11-15 21:18:54.4780,-0.64,-3.1,-2.36,3.94
2022-11-15 21:18:54.4790,-0.46,-2.53,-1.5,2.97
2022-11-15 21:18:54.4800,-0.39,-1.88,-0.98,2.15
2022-11-15 21:18:54.5410,-0.23,-1.56,-0.69,1.72
2022-11-15 21:18:54.5430,0.06,-1.78,-0.44,1.83
2022-11-15 21:18:54.5440,0.51,-2.12,-0.35,2.2
2022-11-15 21:18:54.5610,0.76,-2.4,-0.26,2.53
2022-11-15 21:18:54.5620,0.7,-2.34,-0.15,2.44
2022-11-15 21:18:54.5640,0.62,-1.98,-0.11,2.07
2022-11-15 21:18:54.5660,0.44,-1.48,-0.21,1.55
2022-11-15 21:18:54.5690,0.33,-0.85,-0.41,0.99
2022-11-15 21:18:54.5710,0.35,0.01,-0.62,0.71
2022-11-15 21:18:54.5730,0.44,0.91,-0.67,1.21
2022-11-15 21:18:54.6380,0.48,1.53,-0.6,1.71
2022-11-15 21:18:54.6390,0.5,1.79,-0.64,1.96
2022-11-15 21:18:54.6410,0.48,1.79,-0.7,1.98
2022-11-15 21:18:54.6420,0.39,1.56,-0.73,1.76
2022-11-15 21:18:54.6610,0.19,1.2,-0.63,1.36
2022-11-15 21:18:54.6620,0.0,0.75,-0.36,0.83
2022-11-15 21:18:54.6620,0.03,0.37,-0.06,0.37
2022-11-15 21:18:54.6630,0.12,-0.12,0.29,0.33
2022-11-15 21:18:54.6770,0.21,-0.71,0.5,0.89
2022-11-15 21:18:54.6780,0.03,-1.37,0.4,1.42
2022-11-15 21:18:54.7400,-0.43,-1.94,0.18,1.99
2022-11-15 21:18:54.7410,-0.75,-1.91,0.07,2.05
2022-11-15 21:18:54.7420,-0.74,-1.39,0.0,1.57
2022-11-15 21:18:54.7440,-0.43,-0.64,-0.08,0.77
2022-11-15 21:18:54.7460,-0.16,0.11,-0.03,0.19
2022-11-15 21:18:54.7480,-0.26,0.45,-0.28,0.59
2022-11-15 21:18:54.7500,-0.25,0.71,-0.59,0.95
2022-11-15 21:18:54.7530,-0.07,0.99,-0.78,1.26
2022-11-15 21:18:54.7590,-0.01,1.11,-0.85,1.39
2022-11-15 21:18:54.7680,-0.1,1.15,-0.97,1.5
2022-11-15 21:18:54.8400,-0.21,1.18,-1.05,1.59
2022-11-15 21:18:54.8410,-0.35,1.16,-1.06,1.6
2022-11-15 21:18:54.8420,-0.49,1.19,-0.91,1.57
2022-11-15 21:18:54.8430,-0.63,1.17,-0.68,1.49
2022-11-15 21:18:54.8440,-0.72,1.19,-0.42,1.45
2022-11-15 21:18:54.8610,-0.79,1.24,-0.19,1.48
2022-11-15 21:18:54.8610,-0.8,1.48,-0.02,1.68
2022-11-15 21:18:54.8620,-0.81,1.83,0.08,2.0
2022-11-15 21:18:54.8630,-0.91,2.11,0.05,2.29
2022-11-15 21:18:54.8770,-0.92,2.34,0.03,2.51
2022-11-15 21:18:54.9400,-1.0,2.43,0.03,2.62
2022-11-15 21:18:54.9420,-1.15,2.41,0.01,2.67
2022-11-15 21:18:54.9430,-1.36,2.4,-0.01,2.75
2022-11-15 21:18:54.9430,-1.55,2.23,0.06,2.71
2022-11-15 21:18:54.9440,-1.77,1.99,0.3,2.68
2022-11-15 21:18:54.9450,-1.93,1.79,0.47,2.67
2022-11-15 21:18:54.9460,-1.84,1.59,0.52,2.48
2022-11-15 21:18:54.9610,-1.69,1.17,0.41,2.09
2022-11-15 21:18:54.9610,-1.66,0.54,0.28,1.76
2022-11-15 21:18:54.9690,-1.8,-0.25,0.17,1.82
2022-11-15 21:18:55.0410,-2.11,-0.91,0.21,2.3
2022-11-15 21:18:55.0430,-2.35,-1.33,0.46,2.73
2022-11-15 21:18:55.0440,-2.41,-1.57,0.78,2.98
2022-11-15 21:18:55.0440,-2.35,-1.57,1.03,3.0
2022-11-15 21:18:55.0450,-2.35,-1.37,1.24,2.98
2022-11-15 21:18:55.0610,-2.31,-1.1,1.24,2.84
2022-11-15 21:18:55.0620,-2.01,-0.79,1.37,2.55
2022-11-15 21:18:55.0620,-1.37,-0.62,1.81,2.35
2022-11-15 21:18:55.0650,-0.41,-1.06,2.18,2.45
2022-11-15 21:18:55.0690,0.19,-2.26,1.87,2.93
2022-11-15 21:18:55.1410,-0.62,-3.8,0.62,3.89
2022-11-15 21:18:55.1430,-1.88,-4.81,-0.75,5.21
2022-11-15 21:18:55.1430,-2.18,-5.32,-1.21,5.87
2022-11-15 21:18:55.1440,-1.96,-5.73,-1.56,6.25
2022-11-15 21:18:55.1450,-1.5,-5.63,-1.67,6.06
2022-11-15 21:18:55.1600,-0.85,-4.62,-1.59,4.95
2022-11-15 21:18:55.1610,0.37,-2.88,-1.76,3.39
2022-11-15 21:18:55.1620,2.01,-0.93,-1.99,2.97
2022-11-15 21:18:55.1630,3.39,0.67,-2.08,4.03
2022-11-15 21:18:55.1770,4.06,1.51,-2.04,4.78
2022-11-15 21:18:55.2410,3.7,1.91,-2.0,4.61
2022-11-15 21:18:55.2430,2.79,2.13,-2.09,4.08
2022-11-15 21:18:55.2440,2.15,2.23,-2.0,3.68
2022-11-15 21:18:55.2450,1.84,2.24,-1.79,3.4
2022-11-15 21:18:55.2450,1.77,2.12,-1.67,3.22
2022-11-15 21:18:55.2610,1.83,1.96,-1.46,3.05
2022-11-15 21:18:55.2620,1.65,1.76,-1.01,2.61
2022-11-15 21:18:55.2620,1.3,1.59,-0.62,2.14
2022-11-15 21:18:55.2630,0.93,1.46,-0.53,1.81
2022-11-15 21:18:55.2780,0.61,1.36,-0.71,1.65
2022-11-15 21:18:55.3420,0.32,1.24,-1.06,1.66
2022-11-15 21:18:55.3440,0.08,1.13,-1.34,1.75
2022-11-15 21:18:55.3440,0.05,1.06,-1.61,1.92
2022-11-15 21:18:55.3450,0.05,0.92,-1.84,2.05
2022-11-15 21:18:55.3460,0.02,0.55,-1.84,1.92
2022-11-15 21:18:55.3610,0.09,0.15,-1.84,1.84
2022-11-15 21:18:55.3610,0.37,0.01,-1.95,1.98
2022-11-15 21:18:55.3620,0.57,0.15,-1.91,1.99
2022-11-15 21:18:55.3630,0.55,0.26,-1.88,1.97
2022-11-15 21:18:55.3780,0.45,0.26,-1.98,2.04
2022-11-15 21:18:55.4410,0.52,0.27,-1.99,2.07
2022-11-15 21:18:55.4430,0.61,0.25,-1.66,1.78
2022-11-15 21:18:55.4440,0.66,0.25,-1.33,1.5
2022-11-15 21:18:55.4450,0.66,0.21,-0.99,1.2
2022-11-15 21:18:55.4470,0.56,0.15,-0.66,0.87
2022-11-15 21:18:55.4490,0.47,0.16,-0.33,0.59
2022-11-15 21:18:55.4510,0.32,0.26,-0.05,0.41
2022-11-15 21:18:55.4530,0.08,0.4,0.12,0.42
2022-11-15 21:18:55.4600,-0.26,0.54,0.18,0.62
2022-11-15 21:18:55.4710,-0.64,0.6,0.21,0.9
2022-11-15 21:18:55.5420,-0.95,0.69,0.22,1.19
2022-11-15 21:18:55.5440,-1.2,0.77,0.25,1.44
2022-11-15 21:18:55.5450,-1.42,0.83,0.25,1.66
2022-11-15 21:18:55.5450,-1.58,0.82,0.17,1.78
2022-11-15 21:18:55.5480,-1.67,0.75,0.09,1.83
2022-11-15 21:18:55.5500,-1.6,0.71,0.11,1.75
2022-11-15 21:18:55.5520,-1.44,0.66,0.24,1.6
2022-11-15 21:18:55.5540,-1.29,0.5,0.42,1.44
2022-11-15 21:18:55.5610,-1.04,0.3,0.52,1.2
2022-11-15 21:18:55.5710,-0.82,0.18,0.64,1.05
2022-11-15 21:18:55.6420,-0.65,0.07,0.73,0.97
2022-11-15 21:18:55.6440,-0.42,-0.03,0.76,0.86
2022-11-15 21:18:55.6440,-0.24,-0.01,0.8,0.83
2022-11-15 21:18:55.6450,-0.12,-0.04,0.81,0.81
2022-11-15 21:18:55.6460,0.05,-0.15,0.72,0.73
2022-11-15 21:18:55.6610,0.2,-0.25,0.8,0.86
2022-11-15 21:18:55.6620,0.32,-0.3,0.98,1.07
2022-11-15 21:18:55.6630,0.49,-0.32,1.05,1.2
2022-11-15 21:18:55.6630,0.57,-0.3,1.1,1.27
2022-11-15 21:18:55.6780,0.5,-0.17,1.12,1.23
2022-11-15 21:18:55.7420,0.21,0.25,1.14,1.18
2022-11-15 21:18:55.7440,-0.26,0.74,1.16,1.4
2022-11-15 21:18:55.7450,-0.81,1.13,1.14,1.79
2022-11-15 21:18:55.7450,-1.28,1.29,1.04,2.09
2022-11-15 21:18:55.7460,-1.49,1.18,0.68,2.01
2022-11-15 21:18:55.7610,-1.4,0.59,0.02,1.51
2022-11-15 21:18:55.7620,-1.05,-0.84,-0.4,1.4
2022-11-15 21:18:55.7630,-0.89,-2.61,-0.97,2.92
2022-11-15 21:18:55.7640,-0.98,-3.91,-2.02,4.5
2022-11-15 21:18:55.7780,-0.8,-4.2,-2.69,5.05
2022-11-15 21:18:55.8430,-0.75,-3.69,-2.25,4.38
2022-11-15 21:18:55.8450,-0.95,-2.8,-1.51,3.32
2022-11-15 21:18:55.8460,-0.91,-1.94,-1.16,2.43
2022-11-15 21:18:55.8460,-0.74,-1.57,-1.1,2.05
2022-11-15 21:18:55.8470,-0.59,-1.76,-1.01,2.11
2022-11-15 21:18:55.8610,-0.2,-1.95,-0.8,2.11
2022-11-15 21:18:55.8610,0.19,-2.07,-0.57,2.15
2022-11-15 21:18:55.8620,0.3,-2.14,-0.49,2.21
2022-11-15 21:18:55.8630,0.34,-2.08,-0.55,2.17
2022-11-15 21:18:55.8780,0.37,-1.5,-0.68,1.68
2022-11-15 21:18:55.9430,0.43,-0.71,-0.78,1.13
2022-11-15 21:18:55.9450,0.5,0.09,-0.88,1.01
2022-11-15 21:18:55.9460,0.65,0.79,-0.92,1.37
2022-11-15 21:18:55.9460,0.93,1.16,-0.98,1.78
2022-11-15 21:18:55.9470,1.08,1.24,-0.96,1.9
2022-11-15 21:18:55.9610,1.1,1.17,-0.96,1.87
2022-11-15 21:18:55.9610,0.96,1.04,-0.88,1.66
2022-11-15 21:18:55.9620,0.75,0.86,-0.58,1.28
2022-11-15 21:18:55.9630,0.59,0.74,-0.27,0.98
2022-11-15 21:18:55.9780,0.53,0.38,0.02,0.65
2022-11-15 21:18:56.0460,0.41,-0.18,0.17,0.47
2022-11-15 21:18:56.0480,0.05,-0.63,0.2,0.66
2022-11-15 21:18:56.0490,-0.42,-1.01,0.2,1.11
2022-11-15 21:18:56.0490,-0.63,-0.95,0.06,1.14
2022-11-15 21:18:56.0520,-0.63,-0.74,-0.05,0.97
2022-11-15 21:18:56.0540,-0.53,-0.53,-0.13,0.76
2022-11-15 21:18:56.0560,-0.38,-0.29,-0.31,0.56
2022-11-15 21:18:56.0580,-0.11,0.1,-0.66,0.67
2022-11-15 21:18:56.0620,0.06,0.58,-0.88,1.05
2022-11-15 21:18:56.0760,0.08,0.84,-0.9,1.23
2022-11-15 21:18:56.1430,0.02,0.97,-0.88,1.3
2022-11-15 21:18:56.1450,-0.12,1.13,-0.83,1.4
2022-11-15 21:18:56.1460,-0.24,1.22,-0.9,1.53
2022-11-15 21:18:56.1470,-0.36,1.39,-0.94,1.71
2022-11-15 21:18:56.1470,-0.52,1.52,-0.69,1.74
2022-11-15 21:18:56.1610,-0.62,1.54,-0.31,1.68
2022-11-15 21:18:56.1620,-0.61,1.62,0.03,1.73
2022-11-15 21:18:56.1630,-0.73,1.76,0.28,1.92
2022-11-15 21:18:56.1630,-0.94,1.95,0.32,2.18
2022-11-15 21:18:56.1780,-1.09,2.3,0.33,2.56
2022-11-15 21:18:56.2440,-1.2,2.61,0.35,2.89
2022-11-15 21:18:56.2460,-1.26,2.79,0.31,3.07
2022-11-15 21:18:56.2470,-1.37,2.93,0.31,3.24
2022-11-15 21:18:56.2470,-1.44,2.94,0.36,3.29
2022-11-15 21:18:56.2500,-1.46,2.73,0.52,3.13
2022-11-15 21:18:56.2520,-1.65,2.52,0.8,3.11
2022-11-15 21:18:56.2540,-1.75,2.33,1.06,3.1
2022-11-15 21:18:56.2560,-1.67,1.95,1.16,2.81
2022-11-15 21:18:56.2630,-1.65,1.28,1.04,2.33
2022-11-15 21:18:56.2730,-1.74,0.5,0.81,1.98
2022-11-15 21:18:56.3740,-2.04,-0.41,0.56,2.15
2022-11-15 21:18:56.3750,-2.3,-1.28,0.4,2.66
2022-11-15 21:18:56.3760,-2.51,-1.81,0.51,3.13
2022-11-15 21:18:56.3940,-2.8,-1.97,0.45,3.45
2022-11-15 21:18:56.3950,-2.87,-1.73,0.47,3.38
2022-11-15 21:18:56.3960,-2.43,-1.6,0.65,2.98
2022-11-15 21:18:56.3960,-1.51,-1.6,0.94,2.39
2022-11-15 21:18:56.4110,-0.27,-2.09,1.29,2.47
2022-11-15 21:18:56.4120,0.83,-3.52,1.39,3.87
2022-11-15 21:18:56.4150,0.79,-5.52,0.89,5.64
2022-11-15 21:18:56.4770,-0.13,-6.74,-0.04,6.74
2022-11-15 21:18:56.4790,-0.5,-6.63,-0.7,6.68
2022-11-15 21:18:56.4800,-0.13,-6.13,-0.78,6.18
2022-11-15 21:18:56.4940,0.44,-5.41,-0.44,5.44
2022-11-15 21:18:56.4950,1.1,-3.97,-0.41,4.13
2022-11-15 21:18:56.4950,1.81,-2.09,-0.9,2.9
2022-11-15 21:18:56.4980,2.66,-0.12,-1.24,2.93
2022-11-15 21:18:56.5000,3.48,1.46,-1.48,4.05
2022-11-15 21:18:56.5020,4.18,2.19,-1.38,4.91
2022-11-15 21:18:56.5050,4.06,2.16,-1.39,4.8
2022-11-15 21:18:56.5660,3.23,1.98,-1.56,4.09
2022-11-15 21:18:56.5680,2.42,1.9,-1.54,3.44
2022-11-15 21:18:56.5690,2.01,1.98,-1.46,3.17
2022-11-15 21:18:56.5760,1.82,2.0,-1.37,3.03
2022-11-15 21:18:56.5770,1.7,1.76,-1.2,2.72
2022-11-15 21:18:56.5780,1.6,1.44,-1.02,2.38
2022-11-15 21:18:56.5780,1.33,1.13,-0.83,1.93
2022-11-15 21:18:56.5940,0.92,0.85,-0.82,1.49
2022-11-15 21:18:56.5950,0.44,0.58,-1.01,1.24
2022-11-15 21:18:56.5980,-0.08,0.32,-1.38,1.41
2022-11-15 21:18:56.6590,-0.56,0.08,-1.79,1.87
2022-11-15 21:18:56.6610,-0.79,-0.03,-2.12,2.26
2022-11-15 21:18:56.6620,-0.75,0.06,-2.33,2.44
2022-11-15 21:18:56.6760,-0.68,0.29,-2.37,2.48
2022-11-15 21:18:56.6770,-0.69,0.46,-2.29,2.43
2022-11-15 21:18:56.6780,-0.67,0.55,-2.26,2.42
2022-11-15 21:18:56.6780,-0.63,0.63,-2.19,2.36
2022-11-15 21:18:56.6930,-0.56,0.77,-2.15,2.35
2022-11-15 21:18:56.6940,-0.41,0.88,-2.1,2.31
2022-11-15 21:18:56.6960,-0.22,0.89,-1.88,2.09
2022-11-15 21:18:56.7570,-0.05,0.76,-1.6,1.77
2022-11-15 21:18:56.7590,0.1,0.55,-1.34,1.45
2022-11-15 21:18:56.7600,0.21,0.37,-1.03,1.11
2022-11-15 21:18:56.7780,0.29,0.31,-0.65,0.77
2022-11-15 21:18:56.7780,0.22,0.31,-0.22,0.43
2022-11-15 21:18:56.7790,0.11,0.3,0.13,0.34
2022-11-15 21:18:56.7810,0.03,0.34,0.36,0.49
2022-11-15 21:18:56.7830,-0.17,0.36,0.54,0.67
2022-11-15 21:18:56.7860,-0.39,0.34,0.65,0.83
2022-11-15 21:18:56.7880,-0.59,0.37,0.74,1.01
2022-11-15 21:18:56.8490,-0.81,0.4,0.78,1.19
2022-11-15 21:18:56.8510,-0.98,0.35,0.72,1.26
2022-11-15 21:18:56.8520,-1.06,0.26,0.66,1.27
2022-11-15 21:18:56.8610,-1.14,0.17,0.64,1.31
2022-11-15 21:18:56.8610,-1.21,0.07,0.59,1.34
2022-11-15 21:18:56.8620,-1.22,-0.02,0.46,1.3
2022-11-15 21:18:56.8630,-1.26,-0.15,0.34,1.31
2022-11-15 21:18:56.8770,-1.34,-0.3,0.19,1.38
2022-11-15 21:18:56.8780,-1.34,-0.44,0.09,1.41
2022-11-15 21:18:56.8790,-1.22,-0.48,0.02,1.31
2022-11-15 21:18:56.9430,-1.12,-0.39,0.03,1.18
2022-11-15 21:18:56.9440,-1.09,-0.19,0.09,1.11
2022-11-15 21:18:56.9450,-1.09,0.04,0.18,1.1
2022-11-15 21:18:56.9460,-1.08,0.18,0.27,1.12
2022-11-15 21:18:56.9480,-1.08,0.31,0.33,1.17
2022-11-15 21:18:56.9500,-1.04,0.48,0.34,1.19
2022-11-15 21:18:56.9520,-0.95,0.57,0.36,1.16
2022-11-15 21:18:56.9550,-0.74,0.54,0.42,1.0
2022-11-15 21:18:56.9650,-0.54,0.55,0.32,0.83
2022-11-15 21:18:56.9750,-0.55,0.81,0.09,0.98
2022-11-15 21:18:57.0450,-0.49,1.16,0.11,1.26
2022-11-15 21:18:57.0460,-0.25,1.35,0.34,1.41
2022-11-15 21:18:57.0480,-0.11,1.46,0.51,1.55
2022-11-15 21:18:57.0500,-0.1,1.53,0.64,1.66
2022-11-15 21:18:57.0530,-0.2,1.58,0.82,1.79
2022-11-15 21:18:57.0550,-0.39,1.59,1.01,1.92
2022-11-15 21:18:57.0570,-0.7,1.4,1.16,1.94
2022-11-15 21:18:57.0580,-0.99,0.93,1.17,1.79
2022-11-15 21:18:57.0650,-1.15,0.36,1.19,1.69
2022-11-15 21:18:57.0750,-1.22,-0.23,1.06,1.63
2022-11-15 21:18:57.1450,-1.21,-0.9,0.64,1.63
2022-11-15 21:18:57.1460,-1.12,-1.78,0.08,2.1
2022-11-15 21:18:57.1460,-1.03,-2.92,-0.56,3.14
2022-11-15 21:18:57.1480,-1.15,-4.12,-1.51,4.53
2022-11-15 21:18:57.1510,-1.18,-4.92,-2.42,5.6
2022-11-15 21:18:57.1530,-1.07,-4.89,-2.55,5.61
2022-11-15 21:18:57.1550,-1.05,-4.1,-1.89,4.63
2022-11-15 21:18:57.1570,-1.23,-2.89,-1.19,3.35
2022-11-15 21:18:57.1660,-1.27,-1.98,-0.79,2.48
2022-11-15 21:18:57.1760,-0.99,-1.79,-0.85,2.21
2022-11-15 21:18:57.2450,-0.58,-1.86,-0.97,2.17
2022-11-15 21:18:57.2460,-0.27,-1.82,-0.95,2.07
2022-11-15 21:18:57.2490,-0.25,-1.51,-0.93,1.79
2022-11-15 21:18:57.2510,-0.41,-0.93,-0.88,1.34
2022-11-15 21:18:57.2530,-0.57,-0.32,-0.9,1.11
2022-11-15 21:18:57.2550,-0.64,0.21,-0.94,1.15
2022-11-15 21:18:57.2570,-0.51,0.76,-0.99,1.34
2022-11-15 21:18:57.2580,-0.33,1.26,-0.94,1.6
2022-11-15 21:18:57.2660,-0.09,1.53,-0.95,1.8
2022-11-15 21:18:57.2760,0.27,1.52,-0.94,1.8
2022-11-15 21:18:57.3450,0.51,1.29,-0.87,1.63
2022-11-15 21:18:57.3460,0.47,0.92,-0.79,1.3
2022-11-15 21:18:57.3470,0.31,0.56,-0.74,0.97
2022-11-15 21:18:57.3490,0.21,0.1,-0.61,0.65
2022-11-15 21:18:57.3510,0.08,-0.48,-0.23,0.53
2022-11-15 21:18:57.3530,0.09,-1.22,-0.05,1.22
2022-11-15 21:18:57.3550,-0.02,-1.58,-0.11,1.58
2022-11-15 21:18:57.3580,-0.31,-1.81,-0.11,1.83
2022-11-15 21:18:57.3660,-0.29,-1.62,-0.2,1.65
2022-11-15 21:18:57.3760,-0.21,-1.19,-0.42,1.27
2022-11-15 21:18:57.4460,-0.32,-0.7,-0.57,0.95
2022-11-15 21:18:57.4470,-0.24,-0.22,-0.61,0.69
2022-11-15 21:18:57.4470,0.07,0.36,-0.76,0.84
2022-11-15 21:18:57.4490,0.21,0.81,-0.94,1.25
2022-11-15 21:18:57.4520,0.22,1.11,-1.03,1.53
2022-11-15 21:18:57.4540,0.12,1.2,-0.99,1.56
2022-11-15 21:18:57.4560,-0.04,1.07,-1.03,1.48
2022-11-15 21:18:57.4580,-0.15,0.98,-1.04,1.43
2022-11-15 21:18:57.4670,-0.3,0.99,-0.95,1.4
2022-11-15 21:18:57.4770,-0.48,0.92,-0.81,1.31
2022-11-15 21:18:57.5470,-0.57,0.84,-0.63,1.19
2022-11-15 21:18:57.5480,-0.71,0.74,-0.51,1.14
2022-11-15 21:18:57.5490,-0.88,0.76,-0.47,1.25
2022-11-15 21:18:57.5500,-1.14,0.91,-0.24,1.47
2022-11-15 21:18:57.5500,-1.35,1.05,-0.09,1.71
2022-11-15 21:18:57.5600,-1.45,1.24,-0.12,1.91
2022-11-15 21:18:57.5610,-1.36,1.41,-0.19,1.96
2022-11-15 21:18:57.5620,-1.29,1.47,-0.13,1.96
2022-11-15 21:18:57.5670,-1.34,1.31,-0.09,1.87
2022-11-15 21:18:57.5770,-1.35,1.26,-0.13,1.85
2022-11-15 21:18:57.6470,-1.28,1.27,-0.2,1.81
2022-11-15 21:18:57.6480,-1.24,1.17,-0.25,1.72
2022-11-15 21:18:57.6490,-1.32,1.07,-0.22,1.71
2022-11-15 21:18:57.6510,-1.43,0.9,-0.16,1.69
2022-11-15 21:18:57.6530,-1.48,0.75,-0.12,1.66
2022-11-15 21:18:57.6550,-1.47,0.65,-0.13,1.61
2022-11-15 21:18:57.6570,-1.51,0.44,-0.1,1.57
2022-11-15 21:18:57.6580,-1.64,0.19,-0.03,1.65
2022-11-15 21:18:57.6670,-1.79,0.0,0.06,1.79
2022-11-15 21:18:57.6770,-1.95,-0.17,0.09,1.95
2022-11-15 21:18:57.7460,-2.11,-0.32,0.08,2.13
2022-11-15 21:18:57.7470,-2.27,-0.35,0.02,2.29
2022-11-15 21:18:57.7480,-2.44,-0.16,-0.02,2.44
2022-11-15 21:18:57.7500,-2.58,0.11,-0.12,2.58
2022-11-15 21:18:57.7520,-2.43,0.36,-0.17,2.46
2022-11-15 21:18:57.7550,-1.9,0.24,0.05,1.91
2022-11-15 21:18:57.7570,-1.22,-0.43,0.3,1.32
2022-11-15 21:18:57.7590,-0.82,-1.49,0.18,1.71
2022-11-15 21:18:57.7670,-0.77,-2.91,-0.4,3.03
2022-11-15 21:18:57.7770,-0.89,-4.59,-1.14,4.81
2022-11-15 21:18:57.8470,-1.14,-5.93,-1.51,6.22
2022-11-15 21:18:57.8490,-1.41,-6.51,-1.55,6.83
2022-11-15 21:18:57.8500,-1.17,-6.04,-1.55,6.34
2022-11-15 21:18:57.8500,-0.27,-4.99,-1.76,5.29
2022-11-15 21:18:57.8530,0.99,-3.26,-1.84,3.87
2022-11-15 21:18:57.8550,2.09,-1.45,-2.23,3.38
2022-11-15 21:18:57.8570,2.34,-0.27,-2.75,3.62
2022-11-15 21:18:57.8580,1.9,0.33,-3.0,3.56
2022-11-15 21:18:57.8680,1.52,0.75,-3.15,3.57
2022-11-15 21:18:57.8780,1.15,1.2,-3.02,3.44
2022-11-15 21:18:57.9480,0.84,1.7,-2.77,3.35
2022-11-15 21:18:57.9490,0.76,2.04,-2.48,3.29
2022-11-15 21:18:57.9490,0.83,2.13,-2.14,3.13
2022-11-15 21:18:57.9520,0.63,1.97,-1.74,2.7
2022-11-15 21:18:57.9540,0.39,1.63,-1.45,2.21
2022-11-15 21:18:57.9560,0.1,1.23,-1.27,1.77
2022-11-15 21:18:57.9580,-0.48,0.84,-1.28,1.6
2022-11-15 21:18:57.9590,-1.0,0.66,-1.56,1.96
2022-11-15 21:18:57.9780,-1.24,0.76,-1.86,2.36
2022-11-15 21:18:57.9790,-1.31,0.92,-2.09,2.63
2022-11-15 21:18:58.0470,-1.32,1.04,-2.21,2.77
2022-11-15 21:18:58.0490,-1.37,1.12,-2.23,2.84
2022-11-15 21:18:58.0500,-1.5,1.07,-2.22,2.88
2022-11-15 21:18:58.0510,-1.63,0.71,-2.16,2.79
2022-11-15 21:18:58.0510,-1.34,0.12,-2.28,2.64
2022-11-15 21:18:58.0600,-0.84,-0.07,-2.41,2.55
2022-11-15 21:18:58.0610,-0.63,-0.03,-2.36,2.44
2022-11-15 21:18:58.0620,-0.48,-0.06,-2.14,2.19
2022-11-15 21:18:58.0680,-0.32,-0.08,-1.88,1.9
2022-11-15 21:18:58.0790,-0.14,-0.13,-1.62,1.63
2022-11-15 21:18:58.1480,0.07,-0.18,-1.35,1.36
2022-11-15 21:18:58.1490,0.17,-0.16,-1.11,1.13
2022-11-15 21:18:58.1500,0.26,-0.2,-0.8,0.86
2022-11-15 21:18:58.1520,0.38,-0.23,-0.5,0.66
2022-11-15 21:18:58.1540,0.38,-0.12,-0.23,0.46
2022-11-15 21:18:58.1560,0.26,0.17,0.06,0.31
2022-11-15 21:18:58.1580,-0.06,0.42,0.39,0.57
2022-11-15 21:18:58.1590,-0.53,0.6,0.57,0.98
2022-11-15 21:18:58.1780,-0.95,0.65,0.64,1.31
2022-11-15 21:18:58.1790,-1.24,0.67,0.7,1.57
2022-11-15 21:18:58.2480,-1.5,0.61,0.7,1.76
2022-11-15 21:18:58.2500,-1.74,0.49,0.63,1.91
2022-11-15 21:18:58.2510,-1.98,0.31,0.45,2.05
2022-11-15 21:18:58.2520,-2.13,0.13,0.23,2.14
2022-11-15 21:18:58.2520,-2.15,-0.02,0.03,2.15
2022-11-15 21:18:58.2590,-2.11,-0.14,-0.15,2.11
2022-11-15 21:18:58.2590,-2.06,-0.23,-0.29,2.09
2022-11-15 21:18:58.2600,-1.99,-0.32,-0.41,2.05
2022-11-15 21:18:58.2690,-1.88,-0.46,-0.46,1.98
2022-11-15 21:18:58.2790,-1.78,-0.66,-0.38,1.93
2022-11-15 21:18:58.3480,-1.71,-0.84,-0.33,1.93
2022-11-15 21:18:58.3490,-1.65,-0.8,-0.25,1.85
2022-11-15 21:18:58.3500,-1.55,-0.63,-0.01,1.67
2022-11-15 21:18:58.3520,-1.33,-0.42,0.24,1.41
2022-11-15 21:18:58.3540,-1.1,-0.11,0.47,1.2
2022-11-15 21:18:58.3570,-0.87,0.27,0.66,1.12
2022-11-15 21:18:58.3580,-0.7,0.72,0.83,1.3
2022-11-15 21:18:58.3600,-0.59,1.03,0.92,1.5
2022-11-15 21:18:58.3690,-0.5,1.24,0.99,1.66
2022-11-15 21:18:58.3790,-0.49,1.4,0.98,1.77
2022-11-15 21:18:58.4490,-0.67,1.45,0.83,1.8
2022-11-15 21:18:58.4500,-1.05,1.38,0.5,1.8
2022-11-15 21:18:58.4500,-1.39,1.06,-0.16,1.75
2022-11-15 21:18:58.4520,-1.52,0.31,-0.9,1.79
2022-11-15 21:18:58.4540,-1.48,-0.96,-1.44,2.27
2022-11-15 21:18:58.4560,-1.44,-2.7,-1.88,3.59
2022-11-15 21:18:58.4590,-1.09,-4.21,-2.18,4.86
2022-11-15 21:18:58.4590,-0.74,-4.44,-2.09,4.96
2022-11-15 21:18:58.4770,-1.19,-2.94,-1.47,3.49
2022-11-15 21:18:58.4790,-1.69,-1.53,-0.66,2.37
2022-11-15 21:18:58.5500,-1.75,-1.54,-0.29,2.34
2022-11-15 21:18:58.5520,-1.73,-2.36,-0.31,2.94
2022-11-15 21:18:58.5520,-1.76,-3.29,-0.46,3.75
2022-11-15 21:18:58.5530,-1.52,-3.77,-0.84,4.15
2022-11-15 21:18:58.5540,-1.3,-3.32,-1.09,3.72
2022-11-15 21:18:58.5610,-1.68,-2.18,-1.02,2.93
2022-11-15 21:18:58.5620,-2.08,-0.92,-1.18,2.56
2022-11-15 21:18:58.5630,-2.2,-0.4,-1.67,2.79
2022-11-15 21:18:58.5700,-2.13,0.24,-2.03,2.95
2022-11-15 21:18:58.5800,-1.8,0.82,-2.12,2.89
2022-11-15 21:18:58.6500,-1.37,1.29,-1.9,2.67
2022-11-15 21:18:58.6510,-0.97,1.48,-1.57,2.36
2022-11-15 21:18:58.6520,-0.73,1.58,-1.24,2.13
2022-11-15 21:18:58.6540,-0.49,1.25,-1.02,1.68
2022-11-15 21:18:58.6560,-0.19,0.35,-0.91,0.99
2022-11-15 21:18:58.6580,0.08,-0.54,-0.74,0.91
2022-11-15 21:18:58.6590,0.08,-1.29,-0.49,1.38
2022-11-15 21:18:58.6770,-0.48,-1.87,-0.15,1.93
2022-11-15 21:18:58.6780,-1.34,-2.22,0.05,2.59
2022-11-15 21:18:58.6800,-1.74,-2.0,-0.16,2.65
2022-11-15 21:18:58.7510,-1.57,-1.18,-0.42,2.0
2022-11-15 21:18:58.7520,-1.27,-0.49,-0.83,1.59
2022-11-15 21:18:58.7530,-0.95,-0.05,-1.22,1.54
2022-11-15 21:18:58.7540,-0.64,0.16,-1.37,1.52
2022-11-15 21:18:58.7550,-0.27,0.18,-1.39,1.42
2022-11-15 21:18:58.7610,0.0,0.26,-1.45,1.47
2022-11-15 21:18:58.7610,0.08,0.36,-1.54,1.58
2022-11-15 21:18:58.7620,0.03,0.41,-1.65,1.7
2022-11-15 21:18:58.7700,-0.19,0.46,-1.71,1.78
2022-11-15 21:18:58.7810,-0.4,0.54,-1.73,1.85
2022-11-15 21:18:58.8510,-0.51,0.75,-1.72,1.94
2022-11-15 21:18:58.8520,-0.5,1.03,-1.71,2.05
2022-11-15 21:18:58.8530,-0.42,1.38,-1.64,2.18
2022-11-15 21:18:58.8550,-0.42,1.68,-1.43,2.24
2022-11-15 21:18:58.8570,-0.4,1.91,-1.35,2.37
2022-11-15 21:18:58.8590,-0.35,2.18,-1.19,2.5
2022-11-15 21:18:58.8610,-0.23,2.3,-0.97,2.5
2022-11-15 21:18:58.8630,-0.17,2.28,-0.77,2.41
2022-11-15 21:18:58.8710,-0.27,2.23,-0.49,2.29
2022-11-15 21:18:58.8810,-0.44,2.01,-0.22,2.06
2022-11-15 21:18:58.9510,-0.63,1.72,0.01,1.83
2022-11-15 21:18:58.9520,-0.84,1.46,0.18,1.69
2022-11-15 21:18:58.9540,-1.04,1.06,0.22,1.5
2022-11-15 21:18:58.9570,-1.29,0.65,0.41,1.5
2022-11-15 21:18:58.9580,-1.47,0.18,0.66,1.62
2022-11-15 21:18:58.9590,-1.69,-0.37,0.93,1.96
2022-11-15 21:18:58.9780,-2.01,-0.77,1.11,2.42
2022-11-15 21:18:58.9780,-2.33,-0.87,0.99,2.67
2022-11-15 21:18:58.9810,-2.76,-0.84,0.58,2.94
2022-11-15 21:18:58.9830,-3.28,-0.62,0.15,3.34
2022-11-15 21:18:59.0510,-3.76,-0.23,-0.27,3.77
2022-11-15 21:18:59.0530,-3.85,0.38,-0.47,3.89
2022-11-15 21:18:59.0540,-3.5,1.02,-0.36,3.66
2022-11-15 21:18:59.0550,-2.75,1.31,-0.06,3.04
2022-11-15 21:18:59.0560,-1.16,0.9,0.69,1.62
2022-11-15 21:18:59.0580,0.09,-0.72,1.19,1.39
2022-11-15 21:18:59.0590,-0.51,-3.24,0.98,3.42
2022-11-15 21:18:59.0610,-2.67,-5.82,0.84,6.45
2022-11-15 21:18:59.0710,-3.72,-7.39,0.95,8.32
2022-11-15 21:18:59.0810,-3.28,-8.29,0.35,8.92
2022-11-15 21:18:59.1440,-2.21,-7.81,-1.07,8.18
2022-11-15 21:18:59.1450,-1.01,-5.67,-2.37,6.22
2022-11-15 21:18:59.1470,0.38,-3.85,-2.48,4.59
2022-11-15 21:18:59.1490,2.0,-2.52,-2.07,3.82
2022-11-15 21:18:59.1510,2.87,-1.17,-1.8,3.58
2022-11-15 21:18:59.1540,3.09,0.15,-1.99,3.67
2022-11-15 21:18:59.1560,3.04,1.16,-2.41,4.04
2022-11-15 21:18:59.1620,2.83,1.99,-2.45,4.23
2022-11-15 21:18:59.1720,2.47,2.84,-2.32,4.42
2022-11-15 21:18:59.1820,2.14,3.3,-2.38,4.59
2022-11-15 21:18:59.2450,1.94,3.16,-2.43,4.43
2022-11-15 21:18:59.2470,1.9,2.78,-2.29,4.07
2022-11-15 21:18:59.2480,1.81,2.45,-2.02,3.65
2022-11-15 21:18:59.2490,1.59,2.25,-1.7,3.23
2022-11-15 21:18:59.2490,1.34,2.17,-1.46,2.93
2022-11-15 21:18:59.2600,0.97,2.2,-1.33,2.74
2022-11-15 21:18:59.2610,0.49,2.24,-1.41,2.69
2022-11-15 21:18:59.2620,0.07,2.16,-1.6,2.68
2022-11-15 21:18:59.2720,0.01,1.8,-1.84,2.57
2022-11-15 21:18:59.2820,0.23,1.45,-1.83,2.34
2022-11-15 21:18:59.3450,0.77,1.26,-1.42,2.04
2022-11-15 21:18:59.3460,1.42,1.04,-0.98,2.01
2022-11-15 21:18:59.3480,1.66,0.51,-0.95,1.97
2022-11-15 21:18:59.3500,1.87,0.05,-0.72,2.0
2022-11-15 21:18:59.3520,1.86,-0.4,-0.94,2.12
2022-11-15 21:18:59.3550,1.73,-0.52,-1.3,2.22
2022-11-15 21:18:59.3570,1.5,-0.44,-1.28,2.02
2022-11-15 21:18:59.3620,1.39,-0.33,-0.99,1.73
2022-11-15 21:18:59.3720,1.28,-0.24,-0.52,1.4
2022-11-15 21:18:59.3820,1.14,-0.24,-0.17,1.17
2022-11-15 21:18:59.4460,0.87,-0.19,0.07,0.89
2022-11-15 21:18:59.4480,0.46,-0.05,0.23,0.51
2022-11-15 21:18:59.4490,-0.06,0.23,0.26,0.35
2022-11-15 21:18:59.4500,-0.55,0.47,0.33,0.79
2022-11-15 21:18:59.4510,-0.85,0.61,0.41,1.12
2022-11-15 21:18:59.4580,-1.0,0.69,0.57,1.34
2022-11-15 21:18:59.4590,-1.05,0.6,0.71,1.4
2022-11-15 21:18:59.4620,-1.1,0.4,0.79,1.41
2022-11-15 21:18:59.4720,-1.2,0.22,0.79,1.45
2022-11-15 21:18:59.4830,-1.25,0.12,0.77,1.47
2022-11-15 21:18:59.5450,-1.37,0.06,0.82,1.59
2022-11-15 21:18:59.5470,-1.46,-0.02,0.8,1.66
2022-11-15 21:18:59.5480,-1.39,-0.09,0.8,1.6
2022-11-15 21:18:59.5480,-1.31,-0.12,0.86,1.57
2022-11-15 21:18:59.5500,-1.14,-0.11,0.89,1.45
2022-11-15 21:18:59.5530,-0.92,-0.08,0.8,1.22
2022-11-15 21:18:59.5550,-0.69,-0.03,0.7,0.98
2022-11-15 21:18:59.5630,-0.48,0.02,0.65,0.8
2022-11-15 21:18:59.5730,-0.25,0.1,0.59,0.64
2022-11-15 21:18:59.5830,-0.02,0.24,0.56,0.6
2022-11-15 21:18:59.6460,0.12,0.28,0.55,0.62
2022-11-15 21:18:59.6470,0.24,0.27,0.6,0.7
2022-11-15 21:18:59.6480,0.27,0.36,0.69,0.82
2022-11-15 21:18:59.6490,0.16,0.48,0.81,0.95
2022-11-15 21:18:59.6500,-0.05,0.64,0.92,1.12
2022-11-15 21:18:59.6600,-0.25,0.75,1.06,1.32
2022-11-15 21:18:59.6610,-0.41,0.74,1.22,1.48
2022-11-15 21:18:59.6630,-0.51,0.49,1.19,1.38
2022-11-15 21:18:59.6730,-0.56,0.1,0.71,0.9
2022-11-15 21:18:59.6840,-0.36,-0.63,0.3,0.78
2022-11-15 21:18:59.7460,0.27,-1.76,0.4,1.82
2022-11-15 21:18:59.7480,0.88,-2.77,-0.19,2.91
2022-11-15 21:18:59.7480,1.54,-3.2,-1.08,3.71
2022-11-15 21:18:59.7490,1.87,-2.97,-1.5,3.81
2022-11-15 21:18:59.7500,1.82,-2.84,-1.44,3.66
2022-11-15 21:18:59.7600,1.76,-3.07,-1.61,3.88
2022-11-15 21:18:59.7610,1.43,-3.15,-1.93,3.96
2022-11-15 21:18:59.7630,0.89,-2.76,-1.71,3.36
2022-11-15 21:18:59.7730,0.47,-2.05,-1.42,2.53
2022-11-15 21:18:59.7840,0.39,-1.27,-1.48,1.98
2022-11-15 21:18:59.8470,0.44,-0.87,-1.48,1.77
2022-11-15 21:18:59.8480,0.48,-0.77,-1.4,1.66
2022-11-15 21:18:59.8490,0.48,-0.62,-1.34,1.55
2022-11-15 21:18:59.8500,0.52,-0.25,-1.28,1.4
2022-11-15 21:18:59.8520,0.55,0.21,-1.24,1.37
2022-11-15 21:18:59.8540,0.65,0.69,-1.26,1.57
2022-11-15 21:18:59.8560,0.81,1.06,-1.31,1.86
2022-11-15 21:18:59.8640,0.91,1.29,-1.36,2.08
2022-11-15 21:18:59.8740,0.85,1.19,-1.37,2.0
2022-11-15 21:18:59.8840,0.72,1.17,-1.36,1.93
2022-11-15 21:18:59.9460,0.59,0.98,-1.14,1.61
2022-11-15 21:18:59.9480,0.46,0.7,-0.69,1.08
2022-11-15 21:18:59.9490,0.46,0.39,-0.48,0.77
2022-11-15 21:18:59.9500,0.63,-0.31,-0.29,0.75
2022-11-15 21:18:59.9520,0.85,-0.54,-0.09,1.01
2022-11-15 21:18:59.9540,0.79,-0.68,0.07,1.04
2022-11-15 21:18:59.9560,0.52,-1.13,0.17,1.25
2022-11-15 21:18:59.9640,0.44,-1.13,0.15,1.22
2022-11-15 21:18:59.9740,0.35,-0.87,0.17,0.95
2022-11-15 21:18:59.9840,0.34,-0.44,-0.02,0.55
2022-11-15 21:19:00.0470,0.52,0.25,-0.31,0.65
2022-11-15 21:19:00.0490,0.81,1.12,-0.38,1.43
2022-11-15 21:19:00.0490,0.94,1.68,-0.27,1.94
2022-11-15 21:19:00.0500,0.98,1.91,-0.23,2.15
2022-11-15 21:19:00.0510,1.01,2.13,-0.21,2.36
2022-11-15 21:19:00.0600,0.95,2.24,-0.13,2.43
2022-11-15 21:19:00.0610,0.71,2.3,0.06,2.4
2022-11-15 21:19:00.0640,0.33,2.25,0.25,2.28
2022-11-15 21:19:00.0740,-0.01,2.08,0.46,2.13
2022-11-15 21:19:00.0850,-0.35,1.88,0.7,2.03
2022-11-15 21:19:00.1470,-0.74,1.63,0.87,1.99
2022-11-15 21:19:00.1490,-1.14,1.52,0.86,2.08
2022-11-15 21:19:00.1500,-1.47,1.63,0.69,2.3
2022-11-15 21:19:00.1510,-1.74,1.85,0.42,2.57
2022-11-15 21:19:00.1510,-2.01,2.1,0.12,2.9
2022-11-15 21:19:00.1600,-2.25,2.21,-0.06,3.15
2022-11-15 21:19:00.1610,-2.51,2.08,-0.02,3.25
2022-11-15 21:19:00.1650,-2.67,1.8,0.18,3.22
2022-11-15 21:19:00.1750,-2.74,1.53,0.43,3.16
2022-11-15 21:19:00.1850,-2.69,1.36,0.82,3.12
2022-11-15 21:19:00.2470,-2.6,1.17,1.22,3.1
2022-11-15 21:19:00.2490,-2.42,0.83,1.53,2.98
2022-11-15 21:19:00.2500,-2.17,0.5,1.68,2.78
2022-11-15 21:19:00.2510,-2.15,0.22,1.78,2.79
2022-11-15 21:19:00.2510,-2.16,0.0,1.87,2.85
2022-11-15 21:19:00.2600,-2.16,-0.21,1.85,2.85
2022-11-15 21:19:00.2610,-2.25,-0.31,1.82,2.91
2022-11-15 21:19:00.2650,-2.22,-0.28,1.86,2.9
2022-11-15 21:19:00.2750,-1.79,-0.42,2.12,2.8
2022-11-15 21:19:00.2850,-1.07,-0.85,2.59,2.92
2022-11-15 21:19:00.3470,-0.15,-1.75,3.02,3.49
2022-11-15 21:19:00.3490,0.6,-3.21,3.15,4.53
2022-11-15 21:19:00.3500,0.58,-5.09,2.98,5.92
2022-11-15 21:19:00.3510,0.08,-6.83,2.44,7.25
2022-11-15 21:19:00.3510,0.23,-7.74,1.52,7.89
2022-11-15 21:19:00.3580,1.32,-7.14,0.33,7.26
2022-11-15 21:19:00.3590,2.18,-5.23,-0.49,5.68
2022-11-15 21:19:00.3650,2.48,-3.16,-0.9,4.11
2022-11-15 21:19:00.3750,3.03,-1.35,-1.03,3.47
2022-11-15 21:19:00.3850,3.8,0.09,-0.88,3.9
2022-11-15 21:19:00.4470,4.42,1.17,-0.6,4.61
2022-11-15 21:19:00.4490,4.61,1.82,-0.58,4.99
2022-11-15 21:19:00.4500,4.07,2.07,-0.87,4.64
2022-11-15 21:19:00.4510,3.29,2.22,-0.97,4.08
2022-11-15 21:19:00.4520,2.61,2.31,-0.93,3.6
2022-11-15 21:19:00.4600,2.17,2.36,-0.92,3.33
2022-11-15 21:19:00.4610,1.9,2.37,-0.84,3.15
2022-11-15 21:19:00.4650,1.75,2.24,-0.77,2.94
2022-11-15 21:19:00.4750,1.58,2.1,-0.69,2.71
2022-11-15 21:19:00.4860,1.49,2.08,-0.72,2.65
2022-11-15 21:19:00.5500,1.43,2.06,-0.85,2.64
2022-11-15 21:19:00.5520,1.03,2.0,-0.84,2.4
2022-11-15 21:19:00.5520,0.79,1.8,-1.06,2.23
2022-11-15 21:19:00.5530,0.68,1.62,-1.25,2.15
2022-11-15 21:19:00.5540,0.44,1.36,-1.37,1.97
2022-11-15 21:19:00.5580,0.45,1.0,-1.63,1.96
2022-11-15 21:19:00.5590,0.34,0.71,-1.6,1.78
2022-11-15 21:19:00.5660,0.4,0.27,-1.66,1.72
2022-11-15 21:19:00.5760,0.39,-0.05,-1.95,1.98
2022-11-15 21:19:00.5860,0.31,0.01,-1.94,1.96
2022-11-15 21:19:00.6490,0.34,0.07,-1.64,1.67
2022-11-15 21:19:00.6510,0.53,-0.12,-1.44,1.53
2022-11-15 21:19:00.6520,0.85,-0.22,-1.44,1.68
2022-11-15 21:19:00.6520,0.98,-0.28,-1.48,1.79
2022-11-15 21:19:00.6550,0.9,-0.3,-1.09,1.44
2022-11-15 21:19:00.6570,0.73,-0.23,-0.5,0.91
2022-11-15 21:19:00.6580,0.51,-0.17,0.02,0.53
2022-11-15 21:19:00.6660,0.13,-0.1,0.47,0.49
2022-11-15 21:19:00.6760,-0.35,0.14,0.72,0.81
2022-11-15 21:19:00.6860,-0.85,0.33,0.77,1.19
2022-11-15 21:19:00.7490,-1.29,0.42,0.77,1.55
2022-11-15 21:19:00.7510,-1.69,0.49,0.83,1.94
2022-11-15 21:19:00.7520,-2.05,0.47,0.89,2.28
2022-11-15 21:19:00.7530,-2.22,0.41,0.97,2.45
2022-11-15 21:19:00.7530,-2.23,0.38,0.97,2.46
2022-11-15 21:19:00.7580,-2.15,0.34,0.88,2.34
2022-11-15 21:19:00.7590,-2.08,0.33,0.81,2.25
2022-11-15 21:19:00.7660,-2.0,0.31,0.73,2.15
2022-11-15 21:19:00.7760,-1.87,0.22,0.66,1.99
2022-11-15 21:19:00.7860,-1.69,0.08,0.65,1.81
2022-11-15 21:19:00.8480,-1.46,-0.04,0.67,1.6
2022-11-15 21:19:00.8500,-1.14,-0.06,0.75,1.36
2022-11-15 21:19:00.8510,-0.86,-0.05,0.95,1.28
2022-11-15 21:19:00.8520,-0.63,0.09,0.99,1.17
2022-11-15 21:19:00.8520,-0.5,0.32,1.05,1.2
2022-11-15 21:19:00.8580,-0.29,0.5,1.09,1.23
2022-11-15 21:19:00.8590,-0.05,0.52,1.2,1.3
2022-11-15 21:19:00.8670,0.12,0.42,1.3,1.37
2022-11-15 21:19:00.8770,0.28,0.22,1.45,1.49
2022-11-15 21:19:00.8870,0.4,0.0,1.6,1.64
2022-11-15 21:19:00.9480,0.44,-0.13,1.73,1.78
2022-11-15 21:19:00.9500,0.35,-0.11,1.77,1.8
2022-11-15 21:19:00.9510,0.11,0.06,1.63,1.63
2022-11-15 21:19:00.9520,-0.27,0.31,1.48,1.53
2022-11-15 21:19:00.9520,-0.76,0.46,1.37,1.63
2022-11-15 21:19:00.9580,-1.17,0.45,1.33,1.82
2022-11-15 21:19:00.9590,-1.34,0.36,1.11,1.77
2022-11-15 21:19:00.9670,-1.26,0.24,0.44,1.35
2022-11-15 21:19:00.9770,-0.88,-0.25,-0.06,0.91
2022-11-15 21:19:00.9870,-0.47,-1.21,-0.22,1.31
2022-11-15 21:19:01.0490,-0.35,-2.14,-0.78,2.3
2022-11-15 21:19:01.0510,0.19,-2.7,-1.35,3.02
2022-11-15 21:19:01.0520,1.13,-2.62,-1.15,3.07
2022-11-15 21:19:01.0530,1.58,-2.29,-0.46,2.81
2022-11-15 21:19:01.0530,1.37,-2.11,-0.16,2.52
2022-11-15 21:19:01.0600,0.96,-2.06,-0.37,2.3
2022-11-15 21:19:01.0610,0.66,-2.33,-0.73,2.52
2022-11-15 21:19:01.0670,0.34,-2.78,-1.04,2.98
2022-11-15 21:19:01.0770,0.19,-2.75,-1.21,3.01
2022-11-15 21:19:01.0870,0.24,-2.52,-1.18,2.79
2022-11-15 21:19:01.1500,0.09,-2.24,-1.1,2.49
2022-11-15 21:19:01.1520,-0.08,-1.71,-1.09,2.02
2022-11-15 21:19:01.1530,-0.15,-1.02,-1.06,1.47
2022-11-15 21:19:01.1530,-0.12,-0.27,-1.0,1.04
2022-11-15 21:19:01.1540,0.0,0.49,-1.0,1.11
2022-11-15 21:19:01.1600,0.31,1.1,-1.02,1.53
2022-11-15 21:19:01.1610,0.74,1.34,-1.03,1.84
2022-11-15 21:19:01.1680,1.16,1.33,-0.9,1.98
2022-11-15 21:19:01.1780,1.35,0.98,-0.58,1.76
2022-11-15 21:19:01.1880,1.36,0.92,-0.32,1.67
2022-11-15 21:19:01.2510,1.23,0.82,-0.11,1.48
2022-11-15 21:19:01.2520,1.09,0.69,0.14,1.29
2022-11-15 21:19:01.2530,0.99,0.47,0.21,1.11
2022-11-15 21:19:01.2540,0.86,-0.27,-0.03,0.9
2022-11-15 21:19:01.2550,0.64,-0.82,-0.09,1.04
2022-11-15 21:19:01.2590,0.42,-0.79,0.14,0.9
2022-11-15 21:19:01.2600,0.1,-0.79,0.22,0.82
2022-11-15 21:19:01.2680,-0.06,-0.53,0.05,0.53
2022-11-15 21:19:01.2780,-0.03,-0.04,-0.08,0.09
2022-11-15 21:19:01.2880,0.0,0.25,-0.17,0.3
2022-11-15 21:19:01.3510,0.15,0.68,-0.14,0.71
2022-11-15 21:19:01.3520,0.27,1.19,-0.19,1.23
2022-11-15 21:19:01.3540,0.13,1.56,-0.26,1.58
2022-11-15 21:19:01.3560,-0.03,1.78,-0.34,1.81
2022-11-15 21:19:01.3580,-0.12,1.95,-0.42,1.99
2022-11-15 21:19:01.3590,-0.25,2.11,-0.4,2.16
2022-11-15 21:19:01.3770,-0.36,2.11,-0.36,2.17
2022-11-15 21:19:01.3780,-0.58,2.11,-0.11,2.19
2022-11-15 21:19:01.3790,-0.73,2.01,0.17,2.14
2022-11-15 21:19:01.3880,-0.84,1.96,0.37,2.16
2022-11-15 21:19:01.4510,-1.01,2.05,0.5,2.33
2022-11-15 21:19:01.4520,-1.2,2.14,0.52,2.5
2022-11-15 21:19:01.4540,-1.38,2.13,0.34,2.56
2022-11-15 21:19:01.4560,-1.44,2.12,0.05,2.56
2022-11-15 21:19:01.4580,-1.42,2.13,-0.08,2.56
2022-11-15 21:19:01.4590,-1.45,2.08,0.12,2.53
2022-11-15 21:19:01.4770,-1.52,2.02,0.5,2.57
2022-11-15 21:19:01.4780,-1.69,1.88,0.91,2.68
2022-11-15 21:19:01.4810,-1.83,1.81,1.37,2.91
2022-11-15 21:19:01.4880,-1.93,1.6,1.78,3.07
2022-11-15 21:19:01.5510,-1.88,1.34,1.97,3.03
2022-11-15 21:19:01.5520,-1.87,0.97,1.99,2.89
2022-11-15 21:19:01.5540,-2.15,0.52,1.93,2.93
2022-11-15 21:19:01.5570,-2.44,0.15,1.95,3.12
2022-11-15 21:19:01.5580,-2.42,-0.2,1.95,3.11
2022-11-15 21:19:01.5590,-2.35,-0.46,1.85,3.02
2022-11-15 21:19:01.5770,-2.27,-0.58,1.53,2.79
2022-11-15 21:19:01.5780,-2.11,-0.63,1.17,2.49
2022-11-15 21:19:01.5790,-1.82,-0.75,1.1,2.25
2022-11-15 21:19:01.5890,-1.16,-1.12,1.43,2.15
2022-11-15 21:19:01.6510,0.19,-2.15,2.04,2.96
2022-11-15 21:19:01.6520,1.17,-3.94,2.34,4.72
2022-11-15 21:19:01.6550,0.38,-5.86,1.93,6.18
2022-11-15 21:19:01.6570,-1.04,-7.09,1.58,7.33
2022-11-15 21:19:01.6580,-0.99,-7.28,1.49,7.49
2022-11-15 21:19:01.6600,-0.21,-6.4,0.91,6.46
2022-11-15 21:19:01.6620,0.14,-4.86,0.35,4.87
2022-11-15 21:19:01.6690,0.52,-2.99,-0.39,3.05
2022-11-15 21:19:01.6790,1.0,-1.19,-0.94,1.81
2022-11-15 21:19:01.6890,1.58,0.44,-1.08,1.96
2022-11-15 21:19:01.7530,2.51,1.37,-1.25,3.12
2022-11-15 21:19:01.7540,3.4,1.7,-1.34,4.03
2022-11-15 21:19:01.7560,3.51,1.74,-1.36,4.14
2022-11-15 21:19:01.7580,3.06,1.74,-1.46,3.81
2022-11-15 21:19:01.7590,2.5,1.69,-1.39,3.32
2022-11-15 21:19:01.7770,2.06,1.49,-1.27,2.84
2022-11-15 21:19:01.7780,1.85,1.23,-1.31,2.57
2022-11-15 21:19:01.7790,1.64,0.99,-1.29,2.3
2022-11-15 21:19:01.7790,1.6,0.98,-1.2,2.22
2022-11-15 21:19:01.7930,1.48,1.08,-1.15,2.16
2022-11-15 21:19:01.8520,1.23,1.14,-1.13,2.02
2022-11-15 21:19:01.8540,0.98,1.3,-1.18,2.01
2022-11-15 21:19:01.8550,0.82,1.48,-1.32,2.14
2022-11-15 21:19:01.8560,0.76,1.59,-1.46,2.28
2022-11-15 21:19:01.8570,0.72,1.64,-1.58,2.38
2022-11-15 21:19:01.8770,0.68,1.66,-1.73,2.49
2022-11-15 21:19:01.8780,0.67,1.59,-1.89,2.55
2022-11-15 21:19:01.8790,0.52,1.26,-1.91,2.34
2022-11-15 21:19:01.8800,0.45,0.71,-2.08,2.24
2022-11-15 21:19:01.8900,0.27,0.17,-2.06,2.08
2022-11-15 21:19:01.9520,0.03,-0.08,-1.91,1.91
2022-11-15 21:19:01.9540,-0.28,-0.04,-1.88,1.9
2022-11-15 21:19:01.9550,-0.73,0.04,-1.69,1.84
2022-11-15 21:19:01.9550,-1.08,-0.09,-1.33,1.71
2022-11-15 21:19:01.9560,-1.02,-0.46,-1.23,1.66
2022-11-15 21:19:01.9770,-0.78,-0.87,-1.21,1.68
