time,ax,ay,az,atotal
2022-11-11 12:38:49.0560,-0.09,0.01,0.34,0.35
2022-11-11 12:38:49.0630,0.21,-0.04,0.35,0.41
2022-11-11 12:38:49.0680,0.39,-0.01,0.24,0.45
2022-11-11 12:38:49.0820,0.28,0.06,0.08,0.29
2022-11-11 12:38:49.1330,0.05,0.12,-0.01,0.13
2022-11-11 12:38:49.1360,-0.01,0.09,0.01,0.09
2022-11-11 12:38:49.1480,-0.05,0.04,0.08,0.1
2022-11-11 12:38:49.1510,-0.17,0.01,0.12,0.2
2022-11-11 12:38:49.1640,-0.2,0.04,0.09,0.22
2022-11-11 12:38:49.1680,-0.01,0.0,0.13,0.13
2022-11-11 12:38:49.1800,-0.01,-0.1,0.14,0.17
2022-11-11 12:38:49.1830,-0.05,-0.13,0.25,0.28
2022-11-11 12:38:49.1970,0.02,-0.07,0.23,0.24
2022-11-11 12:38:49.2000,-0.03,0.03,0.15,0.15
2022-11-11 12:38:49.2520,0.03,0.17,0.04,0.17
2022-11-11 12:38:49.2550,-0.06,0.16,-0.05,0.17
2022-11-11 12:38:49.2650,-0.2,0.08,0.0,0.21
2022-11-11 12:38:49.2680,-0.13,-0.06,0.15,0.2
2022-11-11 12:38:49.2810,0.07,-0.14,0.16,0.22
2022-11-11 12:38:49.2840,0.24,-0.12,0.08,0.27
2022-11-11 12:38:49.2970,0.21,-0.04,0.11,0.24
2022-11-11 12:38:49.3010,0.11,0.03,0.15,0.18
2022-11-11 12:38:49.3130,-0.04,0.07,0.21,0.22
2022-11-11 12:38:49.3160,-0.04,0.12,0.22,0.25
2022-11-11 12:38:49.3660,-0.08,0.12,0.22,0.26
2022-11-11 12:38:49.3690,-0.05,0.1,0.17,0.2
2022-11-11 12:38:49.3810,0.04,0.07,0.13,0.15
2022-11-11 12:38:49.3850,-0.05,0.01,0.1,0.11
2022-11-11 12:38:49.3970,-0.07,-0.01,0.13,0.14
2022-11-11 12:38:49.4010,0.03,-0.06,0.12,0.13
2022-11-11 12:38:49.4130,0.02,0.01,0.05,0.05
2022-11-11 12:38:49.4160,-0.12,0.1,-0.02,0.15
2022-11-11 12:38:49.4290,-0.22,0.07,0.02,0.23
2022-11-11 12:38:49.4330,-0.12,0.01,0.04,0.12
2022-11-11 12:38:49.4830,-0.03,0.0,0.04,0.05
2022-11-11 12:38:49.4870,-0.05,0.04,0.07,0.09
2022-11-11 12:38:49.4980,-0.03,0.0,0.19,0.19
2022-11-11 12:38:49.5010,0.18,-0.04,0.29,0.34
2022-11-11 12:38:49.5140,0.32,0.05,0.18,0.37
2022-11-11 12:38:49.5170,0.14,0.16,0.03,0.21
2022-11-11 12:38:49.5290,-0.11,0.16,0.04,0.19
2022-11-11 12:38:49.5320,-0.18,0.07,0.02,0.19
2022-11-11 12:38:49.5460,-0.16,-0.03,0.06,0.17
2022-11-11 12:38:49.5490,-0.08,0.0,0.05,0.09
2022-11-11 12:38:49.6010,-0.01,0.03,0.02,0.03
2022-11-11 12:38:49.6040,0.03,-0.01,0.04,0.05
2022-11-11 12:38:49.6140,-0.03,-0.04,0.11,0.12
2022-11-11 12:38:49.6180,-0.1,-0.01,0.08,0.12
2022-11-11 12:38:49.6300,-0.14,0.03,0.05,0.15
2022-11-11 12:38:49.6330,-0.15,0.05,0.12,0.19
2022-11-11 12:38:49.6450,-0.06,0.08,0.16,0.18
2022-11-11 12:38:49.6490,0.14,0.05,0.12,0.19
2022-11-11 12:38:49.6620,0.21,0.0,0.09,0.22
2022-11-11 12:38:49.6650,0.23,-0.01,0.14,0.26
2022-11-11 12:38:49.7220,0.23,0.02,0.15,0.27
2022-11-11 12:38:49.7250,0.05,0.07,0.13,0.15
2022-11-11 12:38:49.7310,-0.01,0.08,0.05,0.09
2022-11-11 12:38:49.7340,-0.04,0.01,-0.02,0.04
2022-11-11 12:38:49.7460,-0.14,0.0,0.02,0.14
2022-11-11 12:38:49.7500,-0.2,0.05,0.07,0.21
2022-11-11 12:38:49.7620,-0.11,0.02,0.1,0.15
2022-11-11 12:38:49.7650,0.0,-0.02,0.06,0.06
2022-11-11 12:38:49.7780,0.01,-0.07,0.08,0.1
2022-11-11 12:38:49.7820,0.02,-0.07,0.23,0.24
2022-11-11 12:38:49.8350,0.07,0.06,0.31,0.32
2022-11-11 12:38:49.8380,0.11,0.14,0.18,0.25
2022-11-11 12:38:49.8470,0.0,0.1,0.09,0.13
2022-11-11 12:38:49.8510,-0.04,0.04,0.1,0.11
2022-11-11 12:38:49.8630,-0.01,-0.04,0.17,0.17
2022-11-11 12:38:49.8660,0.07,-0.04,0.15,0.17
2022-11-11 12:38:49.8780,0.2,-0.04,0.11,0.23
2022-11-11 12:38:49.8810,0.25,-0.08,0.06,0.26
2022-11-11 12:38:49.8940,0.21,-0.08,0.06,0.23
2022-11-11 12:38:49.8980,0.16,0.08,0.15,0.23
2022-11-11 12:38:49.9510,0.0,0.16,0.3,0.34
2022-11-11 12:38:49.9540,-0.07,0.12,0.29,0.32
2022-11-11 12:38:49.9620,-0.08,0.11,0.28,0.31
2022-11-11 12:38:49.9660,-0.21,0.04,0.26,0.33
2022-11-11 12:38:49.9790,-0.15,0.0,0.3,0.33
2022-11-11 12:38:49.9820,-0.06,-0.08,0.2,0.22
2022-11-11 12:38:49.9950,0.01,-0.13,0.1,0.16
2022-11-11 12:38:49.9990,0.06,-0.09,0.14,0.17
2022-11-11 12:38:50.0110,0.05,-0.06,0.13,0.15
2022-11-11 12:38:50.0140,0.02,0.0,0.12,0.12
2022-11-11 12:38:50.0700,-0.04,0.06,0.15,0.16
2022-11-11 12:38:50.0730,0.04,0.12,0.14,0.18
2022-11-11 12:38:50.0800,0.15,0.09,0.14,0.22
2022-11-11 12:38:50.0830,0.25,0.04,0.11,0.27
2022-11-11 12:38:50.0960,0.37,-0.02,0.17,0.4
2022-11-11 12:38:50.0990,0.48,-0.05,0.29,0.56
2022-11-11 12:38:50.1110,0.39,-0.04,0.28,0.48
2022-11-11 12:38:50.1140,0.21,0.01,0.25,0.32
2022-11-11 12:38:50.1280,-0.01,0.09,0.19,0.21
2022-11-11 12:38:50.1310,-0.1,0.11,0.1,0.17
2022-11-11 12:38:50.1870,-0.18,0.05,0.13,0.22
2022-11-11 12:38:50.1900,-0.23,-0.04,0.13,0.26
2022-11-11 12:38:50.1960,-0.17,-0.09,0.1,0.21
2022-11-11 12:38:50.2000,-0.24,-0.09,0.01,0.25
2022-11-11 12:38:50.2120,-0.23,-0.02,0.0,0.23
2022-11-11 12:38:50.2160,-0.14,0.02,0.0,0.14
2022-11-11 12:38:50.2270,-0.09,0.0,0.12,0.15
2022-11-11 12:38:50.2310,0.0,-0.01,0.41,0.41
2022-11-11 12:38:50.2440,0.1,-0.07,0.46,0.47
2022-11-11 12:38:50.2470,0.12,-0.13,0.46,0.49
2022-11-11 12:38:50.3040,0.18,-0.04,0.55,0.58
2022-11-11 12:38:50.3080,0.15,0.06,0.47,0.49
2022-11-11 12:38:50.3130,-0.01,0.05,0.33,0.33
2022-11-11 12:38:50.3170,-0.15,0.09,0.26,0.31
2022-11-11 12:38:50.3290,-0.22,0.12,0.02,0.25
2022-11-11 12:38:50.3320,-0.25,0.13,-0.04,0.28
2022-11-11 12:38:50.3440,-0.33,0.15,0.18,0.4
2022-11-11 12:38:50.3470,-0.44,0.14,0.22,0.51
2022-11-11 12:38:50.3600,-0.4,0.12,0.07,0.42
2022-11-11 12:38:50.3640,-0.36,0.05,0.15,0.39
2022-11-11 12:38:50.4220,-0.35,0.04,0.26,0.43
2022-11-11 12:38:50.4270,0.05,0.12,0.37,0.39
2022-11-11 12:38:50.4310,0.36,0.13,0.49,0.62
2022-11-11 12:38:50.4450,0.31,0.11,0.33,0.46
2022-11-11 12:38:50.4490,0.17,0.08,0.16,0.24
2022-11-11 12:38:50.4600,-0.08,-0.02,0.04,0.09
2022-11-11 12:38:50.4640,-0.2,-0.05,-0.08,0.22
2022-11-11 12:38:50.4770,-0.09,0.0,-0.12,0.15
2022-11-11 12:38:50.4800,-0.05,0.01,0.06,0.07
2022-11-11 12:38:50.4930,-0.03,0.04,0.11,0.12
2022-11-11 12:38:50.5530,0.2,0.1,0.12,0.25
2022-11-11 12:38:50.5570,0.31,0.15,0.2,0.39
2022-11-11 12:38:50.5620,0.17,0.1,0.15,0.24
2022-11-11 12:38:50.5660,-0.14,0.05,0.2,0.24
2022-11-11 12:38:50.5780,-0.59,-0.1,0.15,0.61
2022-11-11 12:38:50.5810,-0.75,-0.21,0.09,0.78
2022-11-11 12:38:50.5930,-0.31,0.0,0.23,0.38
2022-11-11 12:38:50.5960,0.06,0.21,0.16,0.27
2022-11-11 12:38:50.6100,0.06,0.24,0.08,0.26
2022-11-11 12:38:50.6130,0.13,0.23,0.22,0.34
2022-11-11 12:38:50.6750,0.28,0.15,0.25,0.4
2022-11-11 12:38:50.6780,0.31,0.07,0.2,0.37
2022-11-11 12:38:50.6950,0.03,0.01,0.16,0.16
2022-11-11 12:38:50.6990,-0.25,-0.05,0.08,0.26
2022-11-11 12:38:50.7110,-0.33,-0.03,-0.05,0.33
2022-11-11 12:38:50.7150,-0.38,0.09,-0.22,0.44
2022-11-11 12:38:50.7270,-0.52,0.0,-0.36,0.63
2022-11-11 12:38:50.7300,-0.5,-0.2,-0.19,0.57
2022-11-11 12:38:50.7430,-0.34,-0.26,0.04,0.42
2022-11-11 12:38:50.7470,-0.11,0.0,0.13,0.17
2022-11-11 12:38:50.8110,0.06,0.47,0.12,0.48
2022-11-11 12:38:50.8150,0.01,0.67,0.08,0.67
2022-11-11 12:38:50.8290,-0.21,0.47,0.18,0.54
2022-11-11 12:38:50.8330,-0.44,0.2,0.31,0.57
2022-11-11 12:38:50.8440,-0.4,0.0,0.39,0.55
2022-11-11 12:38:50.8480,-0.04,-0.12,0.43,0.44
2022-11-11 12:38:50.8590,0.3,-0.16,0.24,0.41
2022-11-11 12:38:50.8630,0.31,-0.18,-0.02,0.35
2022-11-11 12:38:50.8760,0.11,-0.07,0.0,0.13
2022-11-11 12:38:50.8790,-0.05,0.24,0.24,0.34
2022-11-11 12:38:50.9440,-0.13,0.39,0.32,0.52
2022-11-11 12:38:50.9470,-0.18,0.28,0.11,0.35
2022-11-11 12:38:50.9620,-0.06,0.13,-0.17,0.22
2022-11-11 12:38:50.9650,0.08,-0.06,-0.26,0.27
2022-11-11 12:38:50.9770,0.25,-0.21,-0.2,0.38
2022-11-11 12:38:50.9810,0.26,-0.29,-0.16,0.42
2022-11-11 12:38:50.9930,0.03,-0.19,-0.09,0.21
2022-11-11 12:38:50.9960,-0.22,0.03,0.13,0.25
2022-11-11 12:38:51.0090,-0.61,0.2,0.24,0.68
2022-11-11 12:38:51.0120,-0.98,0.34,0.16,1.04
2022-11-11 12:38:51.0660,-1.0,0.44,-0.02,1.09
2022-11-11 12:38:51.0690,-0.69,0.23,-0.28,0.77
2022-11-11 12:38:51.0780,-0.27,-0.14,-0.5,0.58
2022-11-11 12:38:51.0810,0.11,-0.36,-0.49,0.61
2022-11-11 12:38:51.0940,0.33,-0.51,-0.31,0.68
2022-11-11 12:38:51.0970,0.48,-0.52,-0.06,0.71
2022-11-11 12:38:51.1090,0.5,-0.05,0.61,0.79
2022-11-11 12:38:51.1120,0.19,0.67,1.05,1.25
2022-11-11 12:38:51.1260,-0.27,0.87,0.87,1.25
2022-11-11 12:38:51.1290,-0.55,0.63,0.49,0.96
2022-11-11 12:38:51.1830,-0.61,0.38,0.15,0.73
2022-11-11 12:38:51.1860,-0.3,0.15,-0.13,0.35
2022-11-11 12:38:51.1930,0.02,-0.14,-0.46,0.48
2022-11-11 12:38:51.1970,0.19,-0.32,-0.68,0.77
2022-11-11 12:38:51.2100,0.48,-0.34,-0.5,0.77
2022-11-11 12:38:51.2130,0.74,-0.15,-0.09,0.76
2022-11-11 12:38:51.2250,0.76,0.14,0.18,0.79
2022-11-11 12:38:51.2280,0.48,0.3,0.19,0.59
2022-11-11 12:38:51.2420,0.04,0.33,0.11,0.35
2022-11-11 12:38:51.2450,-0.17,0.38,0.25,0.48
2022-11-11 12:38:51.3000,-0.16,0.46,0.53,0.71
2022-11-11 12:38:51.3040,-0.27,0.36,0.37,0.58
2022-11-11 12:38:51.3110,-0.38,0.07,-0.07,0.39
2022-11-11 12:38:51.3140,-0.26,-0.18,-0.25,0.4
2022-11-11 12:38:51.3260,0.08,-0.33,-0.28,0.44
2022-11-11 12:38:51.3300,0.36,-0.2,-0.16,0.44
2022-11-11 12:38:51.3420,0.5,0.13,0.0,0.51
2022-11-11 12:38:51.3450,0.49,0.32,0.07,0.58
2022-11-11 12:38:51.3580,0.34,0.36,0.14,0.51
2022-11-11 12:38:51.3620,0.25,0.37,0.24,0.5
2022-11-11 12:38:51.4180,0.23,0.32,0.25,0.46
2022-11-11 12:38:51.4220,0.1,0.11,0.11,0.18
2022-11-11 12:38:51.4270,-0.09,-0.13,0.05,0.16
2022-11-11 12:38:51.4310,-0.19,-0.25,0.13,0.33
2022-11-11 12:38:51.4430,-0.21,-0.3,0.24,0.43
2022-11-11 12:38:51.4460,-0.16,-0.22,0.23,0.35
2022-11-11 12:38:51.4580,-0.22,0.02,0.08,0.23
2022-11-11 12:38:51.4620,-0.35,0.41,0.1,0.54
2022-11-11 12:38:51.4750,-0.34,0.72,0.18,0.81
2022-11-11 12:38:51.4780,-0.2,0.68,0.2,0.73
2022-11-11 12:38:51.5350,-0.05,0.4,0.14,0.42
2022-11-11 12:38:51.5380,0.08,-0.02,0.01,0.08
2022-11-11 12:38:51.5440,0.11,-0.36,-0.07,0.38
2022-11-11 12:38:51.5470,0.06,-0.44,-0.08,0.45
2022-11-11 12:38:51.5590,0.04,-0.23,0.0,0.23
2022-11-11 12:38:51.5630,0.03,0.03,0.11,0.11
2022-11-11 12:38:51.5750,0.07,0.23,0.19,0.3
2022-11-11 12:38:51.5780,0.11,0.28,0.22,0.37
2022-11-11 12:38:51.5910,0.09,0.24,0.2,0.32
2022-11-11 12:38:51.5940,0.05,0.19,0.2,0.28
2022-11-11 12:38:51.6530,-0.03,0.07,0.22,0.23
2022-11-11 12:38:51.6560,0.0,-0.01,0.22,0.22
2022-11-11 12:38:51.6610,0.12,0.03,0.17,0.21
2022-11-11 12:38:51.6760,0.21,0.11,0.06,0.24
2022-11-11 12:38:51.6790,0.22,0.16,-0.04,0.27
2022-11-11 12:38:51.6910,0.13,0.1,-0.15,0.22
2022-11-11 12:38:51.6940,0.04,0.01,-0.11,0.11
2022-11-11 12:38:51.7080,-0.01,0.0,0.04,0.04
2022-11-11 12:38:51.7110,-0.07,0.02,0.1,0.12
2022-11-11 12:38:51.7240,-0.12,0.03,0.1,0.15
2022-11-11 12:38:51.7830,-0.16,0.13,0.12,0.23
2022-11-11 12:38:51.7860,-0.13,0.22,0.19,0.31
2022-11-11 12:38:51.7930,-0.04,0.2,0.24,0.31
2022-11-11 12:38:51.7960,-0.03,0.11,0.17,0.2
2022-11-11 12:38:51.8090,-0.06,0.08,0.09,0.13
2022-11-11 12:38:51.8120,-0.12,0.1,0.03,0.15
2022-11-11 12:38:51.8240,-0.15,0.13,-0.03,0.2
2022-11-11 12:38:51.8270,-0.11,0.15,-0.02,0.18
2022-11-11 12:38:51.8410,-0.06,0.13,0.02,0.14
2022-11-11 12:38:51.8440,-0.05,0.08,0.07,0.11
2022-11-11 12:38:51.9030,-0.05,0.03,0.11,0.12
2022-11-11 12:38:51.9070,-0.04,0.03,0.08,0.09
2022-11-11 12:38:51.9120,-0.04,0.08,0.07,0.11
2022-11-11 12:38:51.9250,-0.01,0.13,0.08,0.15
2022-11-11 12:38:51.9280,0.0,0.07,0.13,0.14
2022-11-11 12:38:51.9400,0.02,-0.07,0.15,0.16
2022-11-11 12:38:51.9440,0.04,-0.11,0.09,0.14
2022-11-11 12:38:51.9570,0.04,-0.01,0.09,0.09
2022-11-11 12:38:51.9600,0.07,0.11,0.15,0.19
2022-11-11 12:38:51.9740,0.15,0.16,0.14,0.26
2022-11-11 12:38:52.0350,0.22,0.14,0.1,0.27
2022-11-11 12:38:52.0390,0.21,0.12,0.05,0.24
2022-11-11 12:38:52.0440,0.09,0.18,0.0,0.2
2022-11-11 12:38:52.0480,0.02,0.23,-0.03,0.23
2022-11-11 12:38:52.0510,0.0,0.15,0.0,0.15
2022-11-11 12:38:52.0540,0.03,-0.01,0.1,0.1
2022-11-11 12:38:52.0590,0.1,-0.13,0.22,0.27
2022-11-11 12:38:52.0620,0.1,-0.13,0.14,0.21
2022-11-11 12:38:52.0740,-0.01,0.01,0.08,0.08
2022-11-11 12:38:52.0770,-0.08,0.24,0.1,0.27
2022-11-11 12:38:52.1380,-0.03,0.35,0.07,0.35
2022-11-11 12:38:52.1420,0.04,0.19,0.05,0.2
2022-11-11 12:38:52.1590,0.15,-0.02,0.09,0.17
2022-11-11 12:38:52.1620,0.24,-0.04,0.19,0.3
2022-11-11 12:38:52.1750,0.19,0.08,0.18,0.27
2022-11-11 12:38:52.1780,0.03,0.2,0.08,0.21
2022-11-11 12:38:52.1900,-0.13,0.23,0.02,0.26
2022-11-11 12:38:52.1940,-0.19,0.22,-0.02,0.29
2022-11-11 12:38:52.2060,-0.07,0.19,-0.02,0.2
2022-11-11 12:38:52.2100,0.05,0.11,-0.03,0.12
2022-11-11 12:38:52.2720,0.09,0.08,-0.02,0.12
2022-11-11 12:38:52.2760,0.09,0.09,0.03,0.13
2022-11-11 12:38:52.2910,0.07,0.14,0.08,0.17
2022-11-11 12:38:52.2950,0.03,0.2,0.08,0.21
2022-11-11 12:38:52.3080,-0.01,0.19,0.06,0.19
2022-11-11 12:38:52.3110,-0.03,0.12,0.02,0.12
2022-11-11 12:38:52.3240,-0.02,0.08,0.01,0.08
2022-11-11 12:38:52.3270,-0.03,0.05,-0.01,0.05
2022-11-11 12:38:52.3400,-0.08,0.07,-0.01,0.1
2022-11-11 12:38:52.3440,-0.1,0.1,-0.01,0.14
2022-11-11 12:38:52.4080,-0.07,0.07,-0.02,0.1
2022-11-11 12:38:52.4110,-0.03,0.02,0.05,0.06
2022-11-11 12:38:52.4250,0.0,0.07,0.17,0.18
2022-11-11 12:38:52.4280,0.03,0.12,0.24,0.26
2022-11-11 12:38:52.4410,0.07,0.15,0.25,0.29
2022-11-11 12:38:52.4440,0.08,0.15,0.2,0.26
2022-11-11 12:38:52.4570,0.02,0.06,0.18,0.19
2022-11-11 12:38:52.4600,-0.06,-0.02,0.2,0.2
2022-11-11 12:38:52.4730,-0.09,0.01,0.17,0.19
2022-11-11 12:38:52.4770,-0.05,0.07,0.13,0.15
2022-11-11 12:38:52.5400,-0.05,0.13,0.09,0.16
2022-11-11 12:38:52.5430,-0.02,0.14,0.06,0.15
2022-11-11 12:38:52.5580,0.02,0.1,0.07,0.12
2022-11-11 12:38:52.5620,0.05,0.05,0.13,0.14
2022-11-11 12:38:52.5740,0.11,0.05,0.13,0.17
2022-11-11 12:38:52.5770,0.07,0.06,0.07,0.11
2022-11-11 12:38:52.5890,-0.02,0.11,0.05,0.12
2022-11-11 12:38:52.5930,-0.08,0.14,0.09,0.18
2022-11-11 12:38:52.6060,-0.15,0.15,0.11,0.23
2022-11-11 12:38:52.6090,-0.18,0.09,0.09,0.22
2022-11-11 12:38:52.6730,-0.15,0.02,0.09,0.17
2022-11-11 12:38:52.6760,-0.08,0.04,0.1,0.13
2022-11-11 12:38:52.6910,-0.05,0.12,0.11,0.17
2022-11-11 12:38:52.6950,-0.09,0.22,0.09,0.25
2022-11-11 12:38:52.7070,-0.11,0.23,0.12,0.28
2022-11-11 12:38:52.7110,-0.11,0.2,0.14,0.26
2022-11-11 12:38:52.7220,-0.08,0.14,0.17,0.23
2022-11-11 12:38:52.7250,-0.09,0.1,0.19,0.23
2022-11-11 12:38:52.7380,-0.16,0.09,0.19,0.26
2022-11-11 12:38:52.7420,-0.19,0.12,0.21,0.3
2022-11-11 12:38:52.8060,-0.13,0.15,0.19,0.27
2022-11-11 12:38:52.8090,-0.06,0.08,0.12,0.15
2022-11-11 12:38:52.8240,-0.03,-0.02,0.05,0.06
2022-11-11 12:38:52.8280,0.03,0.01,0.04,0.05
2022-11-11 12:38:52.8400,0.14,0.11,0.04,0.18
2022-11-11 12:38:52.8430,0.19,0.16,0.04,0.25
2022-11-11 12:38:52.8550,0.14,0.11,0.05,0.18
2022-11-11 12:38:52.8590,0.03,0.03,0.13,0.13
2022-11-11 12:38:52.8720,-0.1,-0.05,0.18,0.21
2022-11-11 12:38:52.8750,-0.2,-0.05,0.2,0.28
2022-11-11 12:38:52.9400,-0.24,0.03,0.17,0.29
2022-11-11 12:38:52.9430,-0.23,0.13,0.14,0.29
2022-11-11 12:38:52.9580,-0.13,0.2,0.13,0.27
2022-11-11 12:38:52.9610,0.01,0.18,0.1,0.2
2022-11-11 12:38:52.9730,0.13,0.08,0.07,0.16
2022-11-11 12:38:52.9770,0.21,0.03,0.12,0.24
2022-11-11 12:38:52.9880,0.18,0.04,0.12,0.22
2022-11-11 12:38:52.9920,0.11,0.04,0.13,0.17
2022-11-11 12:38:53.0050,0.03,0.05,0.16,0.17
2022-11-11 12:38:53.0080,-0.03,0.07,0.17,0.18
2022-11-11 12:38:53.0750,-0.1,0.05,0.23,0.25
2022-11-11 12:38:53.0780,-0.08,0.07,0.24,0.26
2022-11-11 12:38:53.0900,0.06,0.09,0.25,0.27
2022-11-11 12:38:53.0940,0.17,0.1,0.19,0.27
2022-11-11 12:38:53.1060,0.19,0.12,0.09,0.24
2022-11-11 12:38:53.1100,0.12,0.11,0.04,0.16
2022-11-11 12:38:53.1210,0.02,0.08,0.11,0.13
2022-11-11 12:38:53.1250,-0.01,0.03,0.19,0.19
2022-11-11 12:38:53.1380,0.0,-0.03,0.16,0.16
2022-11-11 12:38:53.1410,-0.04,0.01,0.07,0.08
2022-11-11 12:38:53.2090,-0.08,0.12,0.02,0.14
2022-11-11 12:38:53.2120,-0.03,0.21,0.04,0.21
2022-11-11 12:38:53.2230,0.07,0.18,0.01,0.19
2022-11-11 12:38:53.2270,0.17,0.08,0.05,0.19
2022-11-11 12:38:53.2400,0.16,0.01,0.15,0.21
2022-11-11 12:38:53.2430,0.03,0.06,0.21,0.22
2022-11-11 12:38:53.2550,-0.14,0.16,0.2,0.29
2022-11-11 12:38:53.2580,-0.25,0.22,0.16,0.36
2022-11-11 12:38:53.2720,-0.26,0.18,0.13,0.34
2022-11-11 12:38:53.2750,-0.2,0.05,0.12,0.23
2022-11-11 12:38:53.3430,-0.09,-0.06,0.13,0.16
2022-11-11 12:38:53.3470,0.01,-0.06,0.11,0.12
2022-11-11 12:38:53.3560,0.08,0.05,0.05,0.1
2022-11-11 12:38:53.3600,0.09,0.18,0.03,0.2
2022-11-11 12:38:53.3730,0.06,0.25,0.04,0.26
2022-11-11 12:38:53.3760,0.03,0.17,0.09,0.19
2022-11-11 12:38:53.3880,-0.02,0.04,0.13,0.13
2022-11-11 12:38:53.3910,-0.07,0.02,0.15,0.16
2022-11-11 12:38:53.4040,-0.13,0.09,0.17,0.23
2022-11-11 12:38:53.4080,-0.13,0.1,0.19,0.25
2022-11-11 12:38:53.4790,-0.08,0.07,0.17,0.2
2022-11-11 12:38:53.4830,0.0,0.05,0.18,0.18
2022-11-11 12:38:53.4900,0.04,0.05,0.15,0.16
2022-11-11 12:38:53.4930,-0.07,0.08,0.03,0.11
2022-11-11 12:38:53.5060,-0.24,0.13,-0.09,0.28
2022-11-11 12:38:53.5090,-0.28,0.18,-0.14,0.36
2022-11-11 12:38:53.5210,-0.11,0.22,-0.16,0.29
2022-11-11 12:38:53.5240,0.13,0.2,-0.09,0.25
2022-11-11 12:38:53.5380,0.17,0.06,0.02,0.18
2022-11-11 12:38:53.5410,0.05,-0.04,0.09,0.11
2022-11-11 12:38:53.6110,-0.06,-0.02,0.16,0.17
2022-11-11 12:38:53.6140,-0.12,0.12,0.21,0.26
2022-11-11 12:38:53.6230,-0.16,0.2,0.18,0.31
2022-11-11 12:38:53.6270,-0.14,0.21,0.14,0.28
2022-11-11 12:38:53.6390,-0.06,0.16,0.05,0.17
2022-11-11 12:38:53.6430,0.06,0.11,-0.03,0.12
2022-11-11 12:38:53.6540,0.18,0.08,-0.01,0.19
2022-11-11 12:38:53.6580,0.21,0.07,0.08,0.23
2022-11-11 12:38:53.6700,0.17,0.06,0.12,0.21
2022-11-11 12:38:53.6740,0.11,0.07,0.13,0.18
2022-11-11 12:38:53.7450,0.04,0.1,0.13,0.16
2022-11-11 12:38:53.7480,-0.03,0.15,0.11,0.18
2022-11-11 12:38:53.7560,-0.08,0.17,0.05,0.19
2022-11-11 12:38:53.7590,-0.02,0.11,-0.02,0.11
2022-11-11 12:38:53.7720,0.05,0.06,-0.02,0.08
2022-11-11 12:38:53.7750,0.1,0.07,0.01,0.12
2022-11-11 12:38:53.7870,0.14,0.07,0.03,0.15
2022-11-11 12:38:53.7900,0.07,0.05,0.05,0.09
2022-11-11 12:38:53.8040,-0.02,0.09,0.06,0.11
2022-11-11 12:38:53.8070,-0.07,0.11,0.07,0.14
2022-11-11 12:38:53.8790,-0.1,0.12,0.1,0.18
2022-11-11 12:38:53.8820,-0.04,0.12,0.08,0.14
2022-11-11 12:38:53.8890,0.04,0.09,0.12,0.15
2022-11-11 12:38:53.8930,0.05,0.1,0.12,0.16
2022-11-11 12:38:53.9050,0.05,0.15,0.11,0.19
2022-11-11 12:38:53.9080,0.04,0.12,0.1,0.16
2022-11-11 12:38:53.9200,0.01,0.05,0.07,0.08
2022-11-11 12:38:53.9230,-0.02,-0.01,0.07,0.07
2022-11-11 12:38:53.9360,0.01,0.02,0.08,0.08
2022-11-11 12:38:53.9400,-0.05,0.11,0.08,0.14
2022-11-11 12:38:54.0140,-0.09,0.15,0.07,0.18
2022-11-11 12:38:54.0190,-0.06,0.11,0.08,0.14
2022-11-11 12:38:54.0240,-0.08,0.07,0.08,0.13
2022-11-11 12:38:54.0390,-0.12,0.08,0.07,0.16
2022-11-11 12:38:54.0420,-0.12,0.08,0.09,0.17
2022-11-11 12:38:54.0530,-0.14,0.1,0.09,0.19
2022-11-11 12:38:54.0570,-0.05,0.11,0.1,0.15
2022-11-11 12:38:54.0700,-0.01,0.1,0.09,0.13
2022-11-11 12:38:54.0740,-0.01,0.11,0.09,0.14
2022-11-11 12:38:54.0870,0.04,0.08,0.1,0.13
2022-11-11 12:38:54.1600,0.04,0.06,0.17,0.18
2022-11-11 12:38:54.1630,0.06,0.1,0.19,0.22
2022-11-11 12:38:54.1720,0.03,0.11,0.16,0.19
2022-11-11 12:38:54.1750,0.0,0.11,0.16,0.19
2022-11-11 12:38:54.1780,0.02,0.08,0.13,0.15
2022-11-11 12:38:54.1870,0.07,0.08,0.13,0.16
2022-11-11 12:38:54.1900,0.15,0.08,0.1,0.19
2022-11-11 12:38:54.2020,0.14,0.1,0.06,0.18
2022-11-11 12:38:54.2060,0.13,0.14,0.06,0.2
2022-11-11 12:38:54.2190,0.11,0.14,0.06,0.18
2022-11-11 12:38:54.2930,0.05,0.11,0.05,0.13
2022-11-11 12:38:54.2970,-0.02,0.08,0.05,0.09
2022-11-11 12:38:54.3050,-0.06,0.06,0.09,0.12
2022-11-11 12:38:54.3090,-0.08,0.03,0.11,0.13
2022-11-11 12:38:54.3210,-0.09,0.03,0.13,0.16
2022-11-11 12:38:54.3240,-0.02,0.08,0.16,0.18
2022-11-11 12:38:54.3360,0.06,0.14,0.16,0.22
2022-11-11 12:38:54.3390,0.09,0.17,0.15,0.24
2022-11-11 12:38:54.3520,0.11,0.11,0.15,0.21
2022-11-11 12:38:54.3560,0.09,0.02,0.15,0.17
2022-11-11 12:38:54.4300,0.0,-0.01,0.15,0.15
2022-11-11 12:38:54.4340,-0.04,0.03,0.16,0.16
2022-11-11 12:38:54.4400,-0.05,0.06,0.12,0.14
2022-11-11 12:38:54.4540,-0.08,0.07,0.09,0.13
2022-11-11 12:38:54.4580,-0.1,0.06,0.07,0.13
2022-11-11 12:38:54.4690,-0.1,0.03,0.08,0.13
2022-11-11 12:38:54.4720,-0.13,0.01,0.05,0.13
2022-11-11 12:38:54.4860,-0.13,0.08,0.03,0.15
2022-11-11 12:38:54.4890,-0.09,0.14,0.06,0.17
2022-11-11 12:38:54.5020,-0.09,0.16,0.05,0.19
2022-11-11 12:38:54.5780,-0.1,0.16,0.06,0.19
2022-11-11 12:38:54.5810,-0.11,0.1,0.1,0.17
2022-11-11 12:38:54.5870,-0.1,0.03,0.15,0.18
2022-11-11 12:38:54.5910,-0.07,-0.04,0.13,0.15
2022-11-11 12:38:54.6040,-0.09,-0.07,0.12,0.16
2022-11-11 12:38:54.6070,-0.11,0.01,0.12,0.16
2022-11-11 12:38:54.6190,-0.13,0.14,0.11,0.22
2022-11-11 12:38:54.6220,-0.1,0.23,0.12,0.27
2022-11-11 12:38:54.6360,0.0,0.22,0.15,0.26
2022-11-11 12:38:54.6390,0.09,0.15,0.16,0.23
2022-11-11 12:38:54.7160,0.12,0.06,0.14,0.19
2022-11-11 12:38:54.7200,0.16,0.03,0.17,0.23
2022-11-11 12:38:54.7380,0.21,0.06,0.2,0.29
2022-11-11 12:38:54.7410,0.16,0.04,0.15,0.22
2022-11-11 12:38:54.7540,0.08,-0.02,0.1,0.12
2022-11-11 12:38:54.7580,0.05,-0.01,0.04,0.06
2022-11-11 12:38:54.7690,0.04,0.08,0.03,0.09
2022-11-11 12:38:54.7730,0.07,0.19,0.07,0.21
2022-11-11 12:38:54.7860,0.08,0.22,0.15,0.27
2022-11-11 12:38:54.7890,0.06,0.11,0.17,0.21
2022-11-11 12:38:54.8660,0.01,0.02,0.17,0.17
2022-11-11 12:38:54.8690,-0.03,0.04,0.17,0.17
2022-11-11 12:38:54.8860,-0.11,0.1,0.17,0.22
2022-11-11 12:38:54.8900,-0.15,0.12,0.16,0.25
2022-11-11 12:38:54.9030,-0.21,0.12,0.14,0.27
2022-11-11 12:38:54.9060,-0.22,0.15,0.11,0.28
2022-11-11 12:38:54.9190,-0.16,0.17,0.12,0.26
2022-11-11 12:38:54.9240,-0.1,0.13,0.12,0.2
2022-11-11 12:38:54.9350,-0.09,0.07,0.11,0.15
2022-11-11 12:38:54.9380,-0.1,0.05,0.1,0.15
2022-11-11 12:38:55.0190,-0.08,0.05,0.11,0.14
2022-11-11 12:38:55.0220,-0.09,0.05,0.13,0.16
2022-11-11 12:38:55.0370,-0.14,0.06,0.15,0.21
2022-11-11 12:38:55.0400,-0.17,0.07,0.15,0.23
2022-11-11 12:38:55.0530,-0.16,0.1,0.13,0.22
2022-11-11 12:38:55.0570,-0.15,0.12,0.1,0.21
2022-11-11 12:38:55.0680,-0.12,0.11,0.07,0.17
2022-11-11 12:38:55.0720,-0.04,0.12,0.04,0.13
2022-11-11 12:38:55.0850,0.1,0.14,0.05,0.17
2022-11-11 12:38:55.0880,0.15,0.13,0.01,0.19
2022-11-11 12:38:55.1680,0.11,0.03,0.01,0.11
2022-11-11 12:38:55.1710,0.07,-0.08,0.04,0.11
2022-11-11 12:38:55.1860,0.03,-0.06,0.06,0.09
2022-11-11 12:38:55.1900,0.0,0.09,0.14,0.16
2022-11-11 12:38:55.2030,-0.05,0.18,0.15,0.23
2022-11-11 12:38:55.2070,-0.05,0.14,0.14,0.2
2022-11-11 12:38:55.2180,0.02,0.08,0.16,0.18
2022-11-11 12:38:55.2210,0.07,0.03,0.12,0.14
2022-11-11 12:38:55.2340,0.09,0.01,0.11,0.14
2022-11-11 12:38:55.2370,0.06,0.01,0.12,0.13
2022-11-11 12:38:55.3180,0.0,0.04,0.1,0.1
2022-11-11 12:38:55.3220,0.01,0.12,0.05,0.13
2022-11-11 12:38:55.3360,0.06,0.12,0.01,0.13
2022-11-11 12:38:55.3390,0.02,0.08,0.01,0.08
2022-11-11 12:38:55.3520,-0.02,0.07,0.05,0.08
2022-11-11 12:38:55.3560,-0.07,0.04,0.12,0.14
2022-11-11 12:38:55.3680,-0.11,-0.06,0.15,0.19
2022-11-11 12:38:55.3710,-0.09,0.2,0.13,0.25
2022-11-11 12:38:55.3840,-0.12,0.5,0.12,0.52
2022-11-11 12:38:55.3880,-0.21,0.38,0.17,0.46
2022-11-11 12:38:55.4700,-0.14,0.13,0.11,0.22
2022-11-11 12:38:55.4740,0.06,0.04,0.05,0.08
2022-11-11 12:38:55.4860,0.17,0.03,0.07,0.18
2022-11-11 12:38:55.4900,0.21,0.01,0.06,0.21
2022-11-11 12:38:55.5020,0.09,-0.03,0.06,0.11
2022-11-11 12:38:55.5060,0.03,-0.02,0.04,0.05
2022-11-11 12:38:55.5180,-0.04,-0.01,0.06,0.07
2022-11-11 12:38:55.5210,-0.04,0.05,0.07,0.09
2022-11-11 12:38:55.5340,0.05,0.11,0.09,0.15
2022-11-11 12:38:55.5370,0.05,0.15,0.12,0.19
2022-11-11 12:38:55.6220,-0.02,0.15,0.16,0.22
2022-11-11 12:38:55.6260,-0.05,0.13,0.2,0.24
2022-11-11 12:38:55.6360,-0.08,0.07,0.18,0.2
2022-11-11 12:38:55.6390,-0.1,0.04,0.17,0.2
2022-11-11 12:38:55.6520,-0.09,0.1,0.23,0.26
2022-11-11 12:38:55.6560,-0.08,0.17,0.23,0.29
2022-11-11 12:38:55.6670,-0.18,0.21,0.17,0.32
2022-11-11 12:38:55.6700,-0.19,0.22,0.11,0.31
2022-11-11 12:38:55.6840,-0.11,0.18,0.1,0.23
2022-11-11 12:38:55.6870,-0.02,0.08,0.12,0.14
2022-11-11 12:38:55.7720,0.08,0.02,0.12,0.14
2022-11-11 12:38:55.7750,0.1,-0.02,0.12,0.15
2022-11-11 12:38:55.7850,0.09,-0.03,0.13,0.16
2022-11-11 12:38:55.7890,0.05,-0.05,0.12,0.13
2022-11-11 12:38:55.8010,0.0,0.0,0.13,0.13
2022-11-11 12:38:55.8050,-0.03,0.13,0.16,0.2
2022-11-11 12:38:55.8170,-0.06,0.17,0.19,0.26
2022-11-11 12:38:55.8210,-0.01,0.16,0.2,0.25
2022-11-11 12:38:55.8340,-0.01,0.12,0.12,0.17
2022-11-11 12:38:55.8370,-0.03,0.08,0.05,0.09
2022-11-11 12:38:55.9220,0.0,0.04,0.05,0.06
2022-11-11 12:38:55.9260,0.09,-0.01,0.03,0.09
2022-11-11 12:38:55.9360,0.14,0.03,0.03,0.14
2022-11-11 12:38:55.9390,0.03,0.06,0.07,0.09
2022-11-11 12:38:55.9520,-0.12,0.07,0.12,0.18
2022-11-11 12:38:55.9550,-0.22,0.11,0.13,0.27
2022-11-11 12:38:55.9670,-0.19,0.21,0.09,0.29
2022-11-11 12:38:55.9700,-0.1,0.29,0.1,0.32
2022-11-11 12:38:55.9840,-0.05,0.22,0.13,0.26
2022-11-11 12:38:55.9870,-0.01,0.06,0.16,0.17
2022-11-11 12:38:56.0730,0.01,-0.03,0.11,0.11
2022-11-11 12:38:56.0770,0.06,-0.03,0.01,0.06
2022-11-11 12:38:56.0850,0.12,0.0,-0.08,0.14
2022-11-11 12:38:56.0890,0.15,0.02,-0.09,0.17
2022-11-11 12:38:56.1020,0.21,0.01,-0.02,0.21
2022-11-11 12:38:56.1050,0.25,0.01,0.11,0.27
2022-11-11 12:38:56.1170,0.21,-0.03,0.13,0.24
2022-11-11 12:38:56.1200,0.09,-0.02,0.11,0.14
2022-11-11 12:38:56.1330,-0.1,0.09,0.26,0.29
2022-11-11 12:38:56.1370,-0.3,0.2,0.33,0.48
2022-11-11 12:38:56.2240,-0.39,0.22,0.18,0.48
2022-11-11 12:38:56.2270,-0.35,0.22,0.04,0.41
2022-11-11 12:38:56.2340,-0.12,0.24,-0.02,0.26
2022-11-11 12:38:56.2380,0.06,0.24,-0.07,0.25
2022-11-11 12:38:56.2510,0.06,0.19,-0.02,0.2
2022-11-11 12:38:56.2540,-0.02,0.13,0.09,0.15
2022-11-11 12:38:56.2670,-0.11,0.12,0.06,0.17
2022-11-11 12:38:56.2700,-0.16,0.17,0.02,0.23
2022-11-11 12:38:56.2830,-0.18,0.16,0.0,0.24
2022-11-11 12:38:56.2860,-0.18,0.11,0.06,0.21
2022-11-11 12:38:56.3750,-0.16,0.1,0.15,0.24
2022-11-11 12:38:56.3780,-0.15,0.12,0.17,0.25
2022-11-11 12:38:56.3850,-0.11,0.13,0.14,0.22
2022-11-11 12:38:56.3880,-0.15,0.14,0.14,0.24
2022-11-11 12:38:56.4010,-0.16,0.23,0.09,0.29
2022-11-11 12:38:56.4040,-0.15,0.53,-0.04,0.55
2022-11-11 12:38:56.4160,-0.15,1.04,-0.14,1.06
2022-11-11 12:38:56.4190,-0.19,1.84,-0.12,1.85
2022-11-11 12:38:56.4330,-0.23,2.81,-0.03,2.81
2022-11-11 12:38:56.4360,-0.32,3.51,0.09,3.52
2022-11-11 12:38:56.5050,-0.32,2.95,0.18,2.97
2022-11-11 12:38:56.5080,0.23,0.31,0.15,0.41
2022-11-11 12:38:56.5180,0.92,-3.15,-0.14,3.28
2022-11-11 12:38:56.5220,0.74,-4.71,-0.33,4.77
2022-11-11 12:38:56.5340,0.2,-3.16,-0.24,3.17
2022-11-11 12:38:56.5380,0.0,-0.34,-0.24,0.41
2022-11-11 12:38:56.5490,-0.04,0.26,0.03,0.26
2022-11-11 12:38:56.5530,-0.09,-0.81,0.22,0.84
2022-11-11 12:38:56.5660,0.08,-1.14,0.24,1.16
2022-11-11 12:38:56.5690,0.15,-0.92,0.32,0.98
2022-11-11 12:38:56.6390,0.16,-0.82,0.33,0.89
2022-11-11 12:38:56.6430,0.27,-0.58,0.28,0.69
2022-11-11 12:38:56.6510,0.27,-0.33,0.24,0.48
2022-11-11 12:38:56.6550,0.2,-0.14,0.17,0.29
2022-11-11 12:38:56.6680,0.21,0.1,0.19,0.3
2022-11-11 12:38:56.6710,0.11,0.32,0.19,0.38
2022-11-11 12:38:56.6820,-0.01,0.54,0.24,0.59
2022-11-11 12:38:56.6860,-0.06,0.65,0.32,0.72
2022-11-11 12:38:56.6990,-0.07,0.56,0.24,0.61
2022-11-11 12:38:56.7020,-0.06,0.57,0.13,0.58
2022-11-11 12:38:56.7740,-0.08,0.82,0.1,0.82
2022-11-11 12:38:56.7780,-0.17,1.0,0.12,1.02
2022-11-11 12:38:56.7850,-0.25,0.85,0.14,0.89
2022-11-11 12:38:56.7880,-0.24,0.4,0.14,0.48
2022-11-11 12:38:56.8010,-0.11,-0.11,0.12,0.19
2022-11-11 12:38:56.8040,0.02,-0.43,0.04,0.43
2022-11-11 12:38:56.8150,0.02,-0.34,-0.03,0.34
2022-11-11 12:38:56.8190,-0.15,-0.1,-0.09,0.2
2022-11-11 12:38:56.8320,-0.28,0.17,-0.05,0.33
2022-11-11 12:38:56.8360,-0.31,0.48,0.08,0.57
2022-11-11 12:38:56.9080,-0.22,0.56,0.18,0.62
2022-11-11 12:38:56.9110,0.01,0.37,0.27,0.45
2022-11-11 12:38:56.9180,0.16,0.12,0.36,0.41
2022-11-11 12:38:56.9210,0.25,0.03,0.42,0.48
2022-11-11 12:38:56.9330,0.24,0.07,0.42,0.48
2022-11-11 12:38:56.9360,0.04,0.12,0.2,0.23
2022-11-11 12:38:56.9480,-0.25,0.12,0.13,0.3
2022-11-11 12:38:56.9520,-0.38,0.14,0.59,0.71
2022-11-11 12:38:56.9650,-0.35,0.34,0.7,0.85
2022-11-11 12:38:56.9680,-0.34,0.41,0.38,0.65
2022-11-11 12:38:57.0410,-0.12,0.23,0.03,0.26
2022-11-11 12:38:57.0450,0.32,-0.21,-0.39,0.54
2022-11-11 12:38:57.0510,0.45,-0.53,-0.18,0.71
2022-11-11 12:38:57.0540,0.44,-0.22,0.38,0.62
2022-11-11 12:38:57.0670,0.5,0.2,0.33,0.63
2022-11-11 12:38:57.0700,0.11,0.18,0.14,0.25
2022-11-11 12:38:57.0820,-0.31,-0.01,0.32,0.44
2022-11-11 12:38:57.0850,-0.6,-0.23,0.44,0.77
2022-11-11 12:38:57.0990,-0.95,-0.37,0.16,1.03
2022-11-11 12:38:57.1020,-0.78,-0.13,0.02,0.79
2022-11-11 12:38:57.1760,-0.21,0.3,0.06,0.37
2022-11-11 12:38:57.1800,0.05,0.35,-0.14,0.38
2022-11-11 12:38:57.1850,0.01,0.17,-0.14,0.22
2022-11-11 12:38:57.2000,0.08,0.13,-0.07,0.16
2022-11-11 12:38:57.2030,0.13,0.06,0.08,0.16
2022-11-11 12:38:57.2150,-0.02,0.02,0.14,0.14
2022-11-11 12:38:57.2180,-0.09,0.12,0.07,0.16
2022-11-11 12:38:57.2320,-0.06,0.16,-0.06,0.18
2022-11-11 12:38:57.2350,0.22,0.15,-0.15,0.3
2022-11-11 12:38:57.2490,0.26,0.15,-0.24,0.38
2022-11-11 12:38:57.3240,0.16,0.13,-0.28,0.34
2022-11-11 12:38:57.3270,0.2,0.13,0.02,0.23
2022-11-11 12:38:57.3340,0.04,0.11,0.04,0.12
2022-11-11 12:38:57.3370,-0.16,0.18,0.02,0.24
2022-11-11 12:38:57.3500,-0.4,0.13,-0.04,0.42
2022-11-11 12:38:57.3530,-0.35,0.11,0.15,0.39
2022-11-11 12:38:57.3650,-0.07,0.26,0.2,0.33
2022-11-11 12:38:57.3680,-0.11,0.21,0.01,0.23
2022-11-11 12:38:57.3820,-0.29,-0.01,-0.23,0.37
2022-11-11 12:38:57.3850,-0.35,-0.22,-0.22,0.46
2022-11-11 12:38:57.4610,-0.31,-0.34,0.12,0.47
2022-11-11 12:38:57.4650,-0.21,-0.27,0.29,0.44
2022-11-11 12:38:57.4700,-0.43,-0.29,0.06,0.52
2022-11-11 12:38:57.4830,-0.65,-0.45,-0.08,0.79
2022-11-11 12:38:57.4860,-0.42,-0.43,0.25,0.65
2022-11-11 12:38:57.4980,-0.06,-0.2,0.52,0.56
2022-11-11 12:38:57.5010,0.16,0.05,0.38,0.41
2022-11-11 12:38:57.5150,0.4,0.15,0.23,0.48
2022-11-11 12:38:57.5180,0.41,0.23,0.18,0.5
2022-11-11 12:38:57.5320,0.24,0.35,0.21,0.47
2022-11-11 12:38:57.6090,0.17,0.47,0.25,0.55
2022-11-11 12:38:57.6130,0.03,0.53,0.21,0.57
2022-11-11 12:38:57.6180,-0.04,0.45,0.15,0.47
2022-11-11 12:38:57.6330,0.08,0.34,0.22,0.41
2022-11-11 12:38:57.6370,0.07,0.21,0.25,0.33
2022-11-11 12:38:57.6480,0.05,0.13,0.17,0.21
2022-11-11 12:38:57.6520,-0.14,0.12,0.16,0.24
2022-11-11 12:38:57.6650,0.08,0.24,0.14,0.28
2022-11-11 12:38:57.6690,0.53,0.45,0.32,0.76
2022-11-11 12:38:57.6810,0.53,0.41,0.19,0.69
2022-11-11 12:38:57.7600,0.22,0.16,0.03,0.27
2022-11-11 12:38:57.7640,-0.09,-0.08,-0.22,0.25
2022-11-11 12:38:57.7690,-0.22,-0.07,-0.25,0.34
2022-11-11 12:38:57.7820,-0.23,0.17,-0.14,0.31
2022-11-11 12:38:57.7860,-0.21,0.23,-0.26,0.4
2022-11-11 12:38:57.7980,-0.01,0.17,-0.24,0.29
2022-11-11 12:38:57.8010,0.23,0.23,-0.06,0.33
2022-11-11 12:38:57.8140,0.39,0.3,-0.09,0.5
2022-11-11 12:38:57.8170,0.15,0.3,-0.06,0.34
2022-11-11 12:38:57.8310,-0.1,0.24,0.16,0.3
2022-11-11 12:38:57.9100,-0.1,0.24,0.38,0.46
2022-11-11 12:38:57.9140,0.08,0.28,0.17,0.33
2022-11-11 12:38:57.9190,0.33,0.26,-0.05,0.42
2022-11-11 12:38:57.9320,0.75,0.43,0.13,0.87
2022-11-11 12:38:57.9360,1.02,0.53,0.3,1.18
2022-11-11 12:38:57.9470,0.68,0.44,0.15,0.82
2022-11-11 12:38:57.9510,0.14,0.23,-0.25,0.36
2022-11-11 12:38:57.9640,-0.19,0.08,-0.41,0.45
2022-11-11 12:38:57.9670,-0.9,-0.18,-0.5,1.04
2022-11-11 12:38:57.9810,-1.5,-0.31,0.19,1.54
2022-11-11 12:38:58.0580,-1.15,-0.11,0.58,1.29
2022-11-11 12:38:58.0640,-0.62,-0.01,0.31,0.69
2022-11-11 12:38:58.0690,-0.08,0.02,0.1,0.12
2022-11-11 12:38:58.0820,0.39,0.08,0.12,0.41
2022-11-11 12:38:58.0850,0.71,0.21,0.0,0.74
2022-11-11 12:38:58.0970,0.92,0.39,-0.08,1.0
2022-11-11 12:38:58.1000,0.67,0.51,-0.24,0.87
2022-11-11 12:38:58.1140,-0.19,0.5,-0.48,0.71
2022-11-11 12:38:58.1170,-1.25,0.23,-0.29,1.3
2022-11-11 12:38:58.1310,-1.73,0.12,-0.06,1.73
2022-11-11 12:38:58.2080,-1.89,0.2,-0.08,1.9
2022-11-11 12:38:58.2120,-1.56,0.32,-0.15,1.59
2022-11-11 12:38:58.2170,-0.69,0.53,0.41,0.96
2022-11-11 12:38:58.2320,-0.06,0.58,0.58,0.82
2022-11-11 12:38:58.2360,0.07,0.46,0.3,0.55
2022-11-11 12:38:58.2470,-0.1,0.59,0.19,0.62
2022-11-11 12:38:58.2500,-0.29,0.9,0.25,0.97
2022-11-11 12:38:58.2640,-0.22,1.15,0.13,1.17
2022-11-11 12:38:58.2670,-0.17,1.19,-0.15,1.21
2022-11-11 12:38:58.2800,-0.5,1.18,-0.62,1.42
2022-11-11 12:38:58.3580,-0.69,1.15,-1.54,2.04
2022-11-11 12:38:58.3620,-1.26,1.12,-1.35,2.15
2022-11-11 12:38:58.3670,-1.19,1.88,-1.23,2.54
2022-11-11 12:38:58.3820,-0.85,1.99,-1.66,2.72
2022-11-11 12:38:58.3850,-0.92,1.78,-1.12,2.29
2022-11-11 12:38:58.3970,-0.99,2.06,-1.12,2.54
2022-11-11 12:38:58.4000,-1.1,2.59,-0.9,2.95
2022-11-11 12:38:58.4140,-0.84,3.3,-0.25,3.41
2022-11-11 12:38:58.4170,-1.12,3.49,-0.26,3.67
2022-11-11 12:38:58.4300,-2.14,3.51,0.12,4.11
2022-11-11 12:38:58.5060,-2.8,3.94,-0.19,4.83
2022-11-11 12:38:58.5100,-3.56,3.95,-0.79,5.37
2022-11-11 12:38:58.5160,-4.06,4.08,-0.91,5.82
2022-11-11 12:38:58.5190,-4.38,4.38,-1.07,6.28
2022-11-11 12:38:58.5310,-4.84,4.55,-1.0,6.71
2022-11-11 12:38:58.5360,-5.49,4.77,-0.73,7.3
2022-11-11 12:38:58.5470,-6.1,4.96,-0.57,7.88
2022-11-11 12:38:58.5500,-6.56,4.77,-0.11,8.11
2022-11-11 12:38:58.5630,-7.36,3.94,-0.32,8.35
2022-11-11 12:38:58.5670,-8.38,2.86,-0.62,8.87
2022-11-11 12:38:58.6190,-9.3,2.14,-0.49,9.55
2022-11-11 12:38:58.6220,-10.29,1.85,-0.65,10.47
2022-11-11 12:38:58.6320,-10.45,2.03,-0.49,10.65
2022-11-11 12:38:58.6360,-9.09,2.8,-0.61,9.53
2022-11-11 12:38:58.6480,-7.17,3.84,-2.09,8.39
2022-11-11 12:38:58.6520,-6.25,5.06,-2.92,8.55
2022-11-11 12:38:58.6630,-7.65,6.16,-3.43,10.4
2022-11-11 12:38:58.6670,-10.53,6.58,-3.81,12.98
2022-11-11 12:38:58.6800,-11.86,6.44,-3.46,13.93
2022-11-11 12:38:58.6830,-10.17,6.11,-2.78,12.18
2022-11-11 12:38:58.7310,-6.18,6.36,-2.11,9.11
2022-11-11 12:38:58.7350,-2.16,6.67,-4.26,8.2
2022-11-11 12:38:58.7490,-0.15,5.73,-5.71,8.09
2022-11-11 12:38:58.7520,-1.28,3.84,-5.45,6.78
2022-11-11 12:38:58.7650,-4.48,2.25,-4.67,6.85
2022-11-11 12:38:58.7680,-6.97,1.43,-3.95,8.13
2022-11-11 12:38:58.7800,-9.25,-0.19,-2.77,9.65
2022-11-11 12:38:58.7830,-10.38,-1.83,-1.03,10.59
2022-11-11 12:38:58.7970,-8.85,-2.49,0.48,9.2
2022-11-11 12:38:58.8010,-6.89,-2.74,1.42,7.54
2022-11-11 12:38:58.8500,-6.06,-3.59,1.31,7.16
2022-11-11 12:38:58.8540,-5.67,-4.89,0.8,7.53
2022-11-11 12:38:58.8650,-5.7,-5.99,0.37,8.27
2022-11-11 12:38:58.8690,-6.08,-6.47,0.23,8.88
2022-11-11 12:38:58.8810,-6.22,-6.4,0.08,8.92
2022-11-11 12:38:58.8850,-6.0,-6.07,-0.11,8.53
2022-11-11 12:38:58.8970,-5.54,-5.37,-0.32,7.72
2022-11-11 12:38:58.9000,-5.17,-4.47,-0.26,6.83
2022-11-11 12:38:58.9130,-4.35,-3.29,-0.12,5.45
2022-11-11 12:38:58.9170,-2.9,-2.07,0.07,3.56
2022-11-11 12:38:58.9680,-1.75,-0.8,0.7,2.04
2022-11-11 12:38:58.9710,-0.7,0.93,1.45,1.85
2022-11-11 12:38:58.9820,0.53,2.66,1.48,3.08
2022-11-11 12:38:58.9850,1.5,3.74,0.72,4.09
2022-11-11 12:38:58.9980,2.3,4.21,0.25,4.8
2022-11-11 12:38:59.0010,3.02,4.38,0.66,5.36
2022-11-11 12:38:59.0130,3.42,4.52,0.66,5.7
2022-11-11 12:38:59.0160,4.08,4.8,0.09,6.3
2022-11-11 12:38:59.0290,5.23,5.6,-0.05,7.66
2022-11-11 12:38:59.0330,6.35,6.82,-0.13,9.31
2022-11-11 12:38:59.0830,7.02,7.95,-0.23,10.6
2022-11-11 12:38:59.0870,8.08,9.22,0.28,12.26
2022-11-11 12:38:59.0980,9.39,10.21,0.42,13.87
2022-11-11 12:38:59.1020,10.38,10.07,-0.1,14.46
2022-11-11 12:38:59.1140,11.31,8.72,-0.5,14.29
2022-11-11 12:38:59.1170,12.11,6.97,-1.36,14.03
2022-11-11 12:38:59.1290,12.44,5.32,-2.52,13.76
2022-11-11 12:38:59.1330,12.36,4.29,-2.28,13.28
2022-11-11 12:38:59.1460,13.29,4.85,-1.71,14.25
2022-11-11 12:38:59.1490,13.57,6.43,-1.16,15.06
2022-11-11 12:38:59.1980,12.71,7.03,-1.64,14.61
2022-11-11 12:38:59.2010,12.14,5.66,-3.05,13.73
2022-11-11 12:38:59.2150,12.08,4.38,-4.63,13.65
2022-11-11 12:38:59.2180,12.12,3.72,-6.05,14.04
2022-11-11 12:38:59.2300,12.02,2.93,-6.81,14.12
2022-11-11 12:38:59.2340,7.53,2.68,-7.43,10.91
2022-11-11 12:38:59.2470,-5.89,3.46,-4.13,7.98
2022-11-11 12:38:59.2500,-17.17,3.63,2.24,17.69
2022-11-11 12:38:59.2630,-13.53,6.96,4.8,15.95
2022-11-11 12:38:59.2660,-0.53,14.0,6.23,15.33
2022-11-11 12:38:59.3170,5.59,13.84,5.82,16.02
2022-11-11 12:38:59.3200,3.38,7.05,3.42,8.53
2022-11-11 12:38:59.3310,2.09,1.2,2.36,3.37
2022-11-11 12:38:59.3350,3.59,-2.36,1.31,4.49
2022-11-11 12:38:59.3470,4.87,-4.61,-0.34,6.71
2022-11-11 12:38:59.3510,5.48,-5.31,-3.68,8.47
2022-11-11 12:38:59.3620,5.12,-3.97,-5.5,8.49
2022-11-11 12:38:59.3660,3.62,-1.73,-4.88,6.31
2022-11-11 12:38:59.3790,1.5,-0.8,-4.24,4.56
2022-11-11 12:38:59.3820,1.02,-1.14,-4.17,4.44
2022-11-11 12:38:59.4330,2.3,-0.74,-3.42,4.18
2022-11-11 12:38:59.4370,3.12,0.37,-1.55,3.5
2022-11-11 12:38:59.4480,2.6,1.8,0.51,3.2
2022-11-11 12:38:59.4510,1.4,2.67,1.46,3.34
2022-11-11 12:38:59.4640,-0.59,2.27,1.53,2.8
2022-11-11 12:38:59.4670,-2.36,1.26,1.49,3.06
2022-11-11 12:38:59.4790,-3.01,0.35,1.05,3.2
2022-11-11 12:38:59.4820,-2.76,-0.49,0.14,2.8
2022-11-11 12:38:59.4950,-1.48,-1.1,-0.8,2.01
2022-11-11 12:38:59.4990,0.24,-1.06,-0.79,1.34
2022-11-11 12:38:59.5510,0.79,-0.77,-0.55,1.23
2022-11-11 12:38:59.5550,1.16,-0.38,-0.27,1.25
2022-11-11 12:38:59.5640,1.24,0.17,-0.02,1.25
2022-11-11 12:38:59.5670,0.89,0.55,0.44,1.13
2022-11-11 12:38:59.5800,0.76,0.93,1.24,1.72
2022-11-11 12:38:59.5830,0.13,0.99,0.76,1.25
2022-11-11 12:38:59.5950,-0.64,0.86,0.28,1.1
2022-11-11 12:38:59.5990,-1.39,0.9,0.21,1.66
2022-11-11 12:38:59.6120,-1.81,0.78,0.11,1.97
2022-11-11 12:38:59.6160,-1.45,0.42,-0.21,1.52
2022-11-11 12:38:59.6700,-1.27,0.15,-0.78,1.49
2022-11-11 12:38:59.6730,-0.94,0.44,-0.76,1.28
2022-11-11 12:38:59.6810,0.09,0.97,-0.83,1.27
2022-11-11 12:38:59.6840,0.67,0.76,-1.46,1.77
2022-11-11 12:38:59.6960,1.14,0.76,-1.16,1.79
2022-11-11 12:38:59.7000,1.03,1.27,-1.12,1.98
2022-11-11 12:38:59.7120,0.17,1.4,-1.31,1.92
2022-11-11 12:38:59.7160,-0.63,1.66,-0.4,1.82
2022-11-11 12:38:59.7290,-1.42,2.18,0.75,2.7
2022-11-11 12:38:59.7320,-2.22,2.12,0.68,3.14
2022-11-11 12:38:59.7890,-2.69,2.22,1.38,3.75
2022-11-11 12:38:59.7920,-2.76,2.82,1.21,4.12
2022-11-11 12:38:59.7970,-2.61,3.35,0.84,4.32
2022-11-11 12:38:59.8010,-2.56,3.47,0.36,4.32
2022-11-11 12:38:59.8130,-2.76,3.53,-0.13,4.48
2022-11-11 12:38:59.8160,-3.46,3.49,-1.03,5.02
2022-11-11 12:38:59.8290,-4.35,3.15,-1.17,5.49
2022-11-11 12:38:59.8320,-4.62,3.34,-0.66,5.73
2022-11-11 12:38:59.8450,-5.07,3.61,-0.66,6.25
2022-11-11 12:38:59.8480,-5.53,3.49,-0.59,6.56
2022-11-11 12:38:59.9020,-6.05,3.29,-0.53,6.9
2022-11-11 12:38:59.9060,-6.52,3.4,-0.27,7.35
2022-11-11 12:38:59.9140,-7.0,4.01,0.49,8.08
2022-11-11 12:38:59.9170,-8.1,4.93,0.67,9.5
2022-11-11 12:38:59.9300,-9.77,5.57,0.65,11.26
2022-11-11 12:38:59.9330,-11.71,5.57,0.36,12.97
2022-11-11 12:38:59.9450,-13.5,4.58,-0.69,14.27
2022-11-11 12:38:59.9480,-14.21,3.72,-1.96,14.81
2022-11-11 12:38:59.9610,-13.41,4.28,-3.66,14.54
2022-11-11 12:38:59.9650,-11.67,5.97,-5.06,14.05
2022-11-11 12:39:00.0190,-11.12,7.83,-5.2,14.56
2022-11-11 12:39:00.0220,-11.22,8.87,-4.58,15.01
2022-11-11 12:39:00.0310,-9.76,7.98,-4.31,13.32
2022-11-11 12:39:00.0340,-7.03,6.07,-2.87,9.72
2022-11-11 12:39:00.0460,-3.66,5.28,-1.77,6.66
2022-11-11 12:39:00.0500,-0.3,5.67,-3.6,6.72
2022-11-11 12:39:00.0620,1.06,5.56,-4.68,7.34
2022-11-11 12:39:00.0650,-1.91,4.51,-4.37,6.56
2022-11-11 12:39:00.0780,-5.08,3.93,-3.34,7.23
2022-11-11 12:39:00.0810,-6.48,3.18,-2.31,7.57
2022-11-11 12:39:00.1350,-7.98,1.01,-1.33,8.15
2022-11-11 12:39:00.1390,-9.16,-2.24,0.28,9.43
2022-11-11 12:39:00.1470,-8.89,-5.4,1.76,10.54
2022-11-11 12:39:00.1510,-7.53,-7.55,2.32,10.91
2022-11-11 12:39:00.1630,-6.84,-8.05,2.39,10.83
2022-11-11 12:39:00.1660,-6.42,-7.31,2.08,9.94
2022-11-11 12:39:00.1780,-6.32,-6.87,2.06,9.55
2022-11-11 12:39:00.1810,-6.67,-7.18,2.01,10.0
2022-11-11 12:39:00.1950,-7.17,-7.55,1.99,10.6
2022-11-11 12:39:00.1980,-7.72,-7.15,2.18,10.74
2022-11-11 12:39:00.2540,-7.04,-5.88,1.98,9.38
2022-11-11 12:39:00.2570,-5.51,-4.98,1.74,7.62
2022-11-11 12:39:00.2640,-4.13,-4.26,1.51,6.12
2022-11-11 12:39:00.2670,-2.25,-3.07,1.52,4.09
2022-11-11 12:39:00.2800,-1.04,-1.71,1.65,2.59
2022-11-11 12:39:00.2830,-0.77,0.12,1.61,1.78
2022-11-11 12:39:00.2950,0.01,2.38,1.3,2.71
2022-11-11 12:39:00.2980,1.41,4.29,0.97,4.61
2022-11-11 12:39:00.3110,2.75,5.64,1.52,6.45
2022-11-11 12:39:00.3140,3.66,6.88,2.9,8.31
2022-11-11 12:39:00.3700,4.23,8.11,3.16,9.67
2022-11-11 12:39:00.3740,5.54,9.44,2.02,11.13
2022-11-11 12:39:00.3800,7.23,10.61,0.37,12.84
2022-11-11 12:39:00.3840,8.4,11.33,-0.83,14.12
2022-11-11 12:39:00.3960,9.17,11.09,-1.51,14.46
2022-11-11 12:39:00.3990,10.75,10.31,-2.87,15.16
2022-11-11 12:39:00.4110,13.56,9.39,-5.31,17.32
2022-11-11 12:39:00.4140,16.16,8.31,-7.53,19.66
2022-11-11 12:39:00.4280,18.21,6.77,-9.14,21.47
2022-11-11 12:39:00.4310,19.19,4.66,-8.93,21.67
2022-11-11 12:39:00.4830,18.56,3.78,-7.46,20.35
2022-11-11 12:39:00.4870,15.81,5.32,-7.0,18.09
2022-11-11 12:39:00.4960,13.68,6.38,-7.18,16.71
2022-11-11 12:39:00.5000,12.32,5.32,-7.99,15.61
2022-11-11 12:39:00.5130,11.49,3.09,-8.8,14.79
2022-11-11 12:39:00.5160,10.52,1.25,-8.43,13.53
2022-11-11 12:39:00.5280,4.54,0.53,-7.71,8.96
2022-11-11 12:39:00.5310,-10.15,1.72,-2.57,10.61
2022-11-11 12:39:00.5440,-21.44,3.62,3.12,21.96
2022-11-11 12:39:00.5480,-13.74,8.78,6.69,17.62
2022-11-11 12:39:00.5990,0.38,16.87,7.92,18.64
2022-11-11 12:39:00.6030,5.92,15.17,7.18,17.79
2022-11-11 12:39:00.6130,3.85,6.25,3.97,8.34
2022-11-11 12:39:00.6170,3.29,0.07,1.34,3.55
2022-11-11 12:39:00.6290,3.98,-3.5,0.51,5.32
2022-11-11 12:39:00.6330,4.36,-5.91,-2.34,7.7
2022-11-11 12:39:00.6440,4.27,-6.19,-6.49,9.93
2022-11-11 12:39:00.6480,4.34,-4.03,-6.82,9.03
2022-11-11 12:39:00.6610,3.74,-1.57,-6.63,7.77
2022-11-11 12:39:00.6650,2.48,-0.72,-6.98,7.44
2022-11-11 12:39:00.7230,2.5,-0.39,-5.24,5.81
2022-11-11 12:39:00.7280,2.7,0.22,-2.46,3.65
2022-11-11 12:39:00.7320,2.19,1.25,-0.33,2.54
2022-11-11 12:39:00.7450,1.13,2.16,1.09,2.67
2022-11-11 12:39:00.7490,-0.6,2.04,1.84,2.81
2022-11-11 12:39:00.7610,-2.8,1.01,2.11,3.64
2022-11-11 12:39:00.7640,-4.68,-0.16,2.3,5.21
2022-11-11 12:39:00.7770,-4.33,-0.14,2.01,4.77
2022-11-11 12:39:00.7810,-1.85,0.52,0.76,2.06
2022-11-11 12:39:00.7940,0.93,0.46,-0.45,1.13
2022-11-11 12:39:00.8480,3.29,0.07,-1.25,3.52
2022-11-11 12:39:00.8520,4.02,-0.15,-0.85,4.11
2022-11-11 12:39:00.8630,3.01,0.06,-0.05,3.01
2022-11-11 12:39:00.8670,1.24,0.29,0.32,1.31
2022-11-11 12:39:00.8790,0.29,0.52,0.79,0.98
2022-11-11 12:39:00.8820,-0.33,0.84,1.01,1.35
2022-11-11 12:39:00.8940,-0.84,0.95,0.95,1.58
2022-11-11 12:39:00.8970,-1.06,0.79,0.99,1.65
2022-11-11 12:39:00.9100,-1.42,0.34,0.83,1.67
2022-11-11 12:39:00.9140,-1.64,-0.06,-0.08,1.64
2022-11-11 12:39:00.9700,-1.91,-0.48,-0.94,2.18
2022-11-11 12:39:00.9730,-1.89,-0.54,-1.13,2.26
2022-11-11 12:39:00.9800,-1.24,-0.18,-1.66,2.07
2022-11-11 12:39:00.9830,-0.19,0.42,-2.05,2.1
2022-11-11 12:39:00.9950,0.82,1.07,-1.87,2.3
2022-11-11 12:39:00.9990,1.07,1.54,-1.14,2.19
2022-11-11 12:39:01.0110,0.46,1.85,-0.28,1.92
2022-11-11 12:39:01.0140,-0.58,1.95,-0.07,2.03
2022-11-11 12:39:01.0270,-1.89,1.99,-0.01,2.74
2022-11-11 12:39:01.0310,-2.54,2.19,0.01,3.35
2022-11-11 12:39:01.0880,-2.48,2.13,-0.69,3.34
2022-11-11 12:39:01.0920,-2.11,2.06,-1.07,3.13
2022-11-11 12:39:01.0980,-1.85,2.4,-1.24,3.27
2022-11-11 12:39:01.1120,-2.21,2.76,-1.56,3.86
2022-11-11 12:39:01.1160,-2.92,3.19,-1.74,4.66
2022-11-11 12:39:01.1270,-3.87,3.48,-1.68,5.46
2022-11-11 12:39:01.1310,-4.56,3.98,-0.92,6.12
2022-11-11 12:39:01.1440,-4.97,4.81,-0.08,6.91
2022-11-11 12:39:01.1480,-5.43,5.52,0.37,7.75
2022-11-11 12:39:01.1600,-6.15,5.98,0.82,8.61
2022-11-11 12:39:01.2170,-7.21,5.95,0.8,9.38
2022-11-11 12:39:01.2210,-8.48,5.54,1.07,10.18
2022-11-11 12:39:01.2290,-10.28,5.13,1.25,11.55
2022-11-11 12:39:01.2320,-12.42,5.01,0.77,13.41
2022-11-11 12:39:01.2460,-13.95,5.46,0.31,14.98
2022-11-11 12:39:01.2490,-14.67,5.96,-0.77,15.85
2022-11-11 12:39:01.2610,-14.56,5.6,-2.61,15.81
2022-11-11 12:39:01.2650,-13.43,4.76,-4.51,14.94
2022-11-11 12:39:01.2770,-11.55,4.92,-6.07,13.94
2022-11-11 12:39:01.2810,-11.04,6.46,-6.19,14.21
2022-11-11 12:39:01.3390,-12.14,8.16,-6.08,15.84
2022-11-11 12:39:01.3440,-10.99,8.53,-5.58,14.98
2022-11-11 12:39:01.3490,-7.09,7.92,-3.43,11.16
2022-11-11 12:39:01.3620,-2.05,7.54,-3.71,8.64
2022-11-11 12:39:01.3650,1.97,6.42,-5.89,8.93
2022-11-11 12:39:01.3770,0.96,3.91,-6.16,7.35
2022-11-11 12:39:01.3810,-4.18,1.24,-5.43,6.96
2022-11-11 12:39:01.3940,-7.62,0.05,-4.41,8.8
2022-11-11 12:39:01.3980,-8.96,-1.42,-3.4,9.68
2022-11-11 12:39:01.4110,-8.27,-3.08,-1.88,9.02
2022-11-11 12:39:01.4680,-6.39,-3.99,-0.16,7.53
2022-11-11 12:39:01.4720,-4.92,-4.54,0.66,6.72
2022-11-11 12:39:01.4790,-4.86,-5.59,0.63,7.43
2022-11-11 12:39:01.4820,-5.5,-6.72,0.67,8.7
2022-11-11 12:39:01.4950,-5.99,-7.17,0.61,9.36
2022-11-11 12:39:01.4980,-6.45,-7.26,0.86,9.74
2022-11-11 12:39:01.5100,-6.54,-7.29,0.95,9.83
2022-11-11 12:39:01.5140,-6.21,-7.13,0.82,9.49
2022-11-11 12:39:01.5270,-6.06,-6.74,0.73,9.09
2022-11-11 12:39:01.5300,-5.77,-6.04,0.58,8.37
2022-11-11 12:39:01.5880,-4.75,-5.47,0.19,7.24
2022-11-11 12:39:01.5920,-3.97,-5.18,0.07,6.52
2022-11-11 12:39:01.5970,-3.29,-4.21,0.53,5.36
2022-11-11 12:39:01.6110,-2.03,-2.07,1.84,3.43
2022-11-11 12:39:01.6150,-0.68,0.6,2.96,3.09
2022-11-11 12:39:01.6270,0.57,2.74,1.9,3.38
2022-11-11 12:39:01.6300,2.18,4.2,0.24,4.73
2022-11-11 12:39:01.6430,3.63,5.48,0.14,6.57
2022-11-11 12:39:01.6460,4.57,6.25,0.65,7.76
2022-11-11 12:39:01.6600,5.45,6.58,0.83,8.58
2022-11-11 12:39:01.7190,6.19,6.94,0.74,9.32
2022-11-11 12:39:01.7230,6.9,7.38,0.25,10.1
2022-11-11 12:39:01.7290,7.15,7.92,-0.32,10.67
2022-11-11 12:39:01.7320,7.37,8.46,-1.02,11.26
2022-11-11 12:39:01.7440,8.54,9.3,-1.48,12.71
2022-11-11 12:39:01.7480,10.24,10.42,-2.24,14.78
2022-11-11 12:39:01.7600,11.95,11.29,-3.94,16.9
2022-11-11 12:39:01.7630,13.45,11.01,-5.99,18.38
2022-11-11 12:39:01.7760,15.44,8.98,-7.55,19.39
2022-11-11 12:39:01.7800,17.44,6.01,-7.66,19.97
2022-11-11 12:39:01.8390,17.83,4.1,-6.9,19.55
2022-11-11 12:39:01.8430,16.78,4.44,-6.27,18.45
2022-11-11 12:39:01.8480,16.02,5.14,-5.99,17.85
2022-11-11 12:39:01.8610,14.85,3.98,-6.05,16.52
2022-11-11 12:39:01.8640,13.03,2.21,-6.11,14.56
2022-11-11 12:39:01.8760,8.61,0.89,-5.79,10.41
2022-11-11 12:39:01.8800,-6.81,1.27,-2.05,7.22
2022-11-11 12:39:01.8930,-20.92,3.4,3.29,21.44
2022-11-11 12:39:01.8960,-14.65,6.22,8.32,17.95
2022-11-11 12:39:01.9100,0.15,13.94,9.18,16.69
2022-11-11 12:39:01.9700,5.93,14.71,5.31,16.72
2022-11-11 12:39:01.9750,4.63,7.55,2.76,9.27
2022-11-11 12:39:01.9800,3.84,1.62,0.17,4.17
2022-11-11 12:39:01.9940,5.36,-1.23,-1.1,5.6
2022-11-11 12:39:01.9980,6.9,-2.87,-2.89,8.01
2022-11-11 12:39:02.0090,8.34,-4.02,-7.84,12.13
2022-11-11 12:39:02.0130,8.92,-2.92,-8.36,12.56
2022-11-11 12:39:02.0260,6.19,-0.03,-4.85,7.86
2022-11-11 12:39:02.0290,2.78,0.83,-3.48,4.53
2022-11-11 12:39:02.0430,1.8,0.34,-2.74,3.29
2022-11-11 12:39:02.1050,1.43,0.06,-1.46,2.04
2022-11-11 12:39:02.1100,1.26,0.36,-0.05,1.31
2022-11-11 12:39:02.1140,0.47,0.82,1.21,1.53
2022-11-11 12:39:02.1270,-1.48,0.73,1.85,2.47
2022-11-11 12:39:02.1310,-3.37,0.43,2.22,4.05
2022-11-11 12:39:02.1430,-4.26,0.21,1.96,4.69
2022-11-11 12:39:02.1470,-3.71,-0.29,0.82,3.81
2022-11-11 12:39:02.1590,-1.93,-0.79,-0.41,2.12
2022-11-11 12:39:02.1620,0.1,-1.16,-1.56,1.94
2022-11-11 12:39:02.1760,1.81,-1.17,-2.0,2.94
2022-11-11 12:39:02.2400,2.76,-0.75,-1.69,3.32
2022-11-11 12:39:02.2430,2.64,-0.11,-0.72,2.73
2022-11-11 12:39:02.2620,1.65,0.29,0.29,1.7
2022-11-11 12:39:02.2650,0.71,0.69,1.05,1.44
2022-11-11 12:39:02.2770,-0.54,1.0,1.6,1.96
2022-11-11 12:39:02.2810,-2.12,1.02,1.13,2.6
2022-11-11 12:39:02.2920,-2.91,1.02,0.59,3.13
2022-11-11 12:39:02.2960,-2.7,0.87,-0.34,2.85
2022-11-11 12:39:02.3090,-1.32,0.33,-1.1,1.74
2022-11-11 12:39:02.3120,-0.02,-0.11,-1.16,1.16
2022-11-11 12:39:02.3760,0.36,-0.04,-1.3,1.34
2022-11-11 12:39:02.3790,-0.26,0.2,-0.69,0.76
2022-11-11 12:39:02.3950,-1.1,0.38,-0.17,1.17
2022-11-11 12:39:02.3980,-1.21,0.77,-0.22,1.45
2022-11-11 12:39:02.4110,-1.47,1.32,-0.18,1.98
2022-11-11 12:39:02.4150,-1.1,2.03,-0.35,2.33
2022-11-11 12:39:02.4260,-0.04,2.51,-0.72,2.61
2022-11-11 12:39:02.4290,0.4,2.46,-1.26,2.79
2022-11-11 12:39:02.4420,-0.16,2.28,-1.41,2.68
2022-11-11 12:39:02.4460,-1.16,2.13,-1.71,2.96
2022-11-11 12:39:02.5110,-1.88,1.91,-1.52,3.08
2022-11-11 12:39:02.5150,-2.23,2.2,-0.91,3.26
2022-11-11 12:39:02.5280,-2.46,2.71,-1.07,3.81
2022-11-11 12:39:02.5310,-2.89,3.02,-0.84,4.26
2022-11-11 12:39:02.5440,-3.49,3.15,-0.35,4.71
2022-11-11 12:39:02.5480,-4.34,3.0,0.16,5.27
2022-11-11 12:39:02.5590,-4.97,3.06,0.85,5.89
2022-11-11 12:39:02.5620,-5.58,3.4,1.18,6.63
2022-11-11 12:39:02.5750,-6.19,3.73,1.11,7.31
2022-11-11 12:39:02.5790,-6.35,4.11,1.02,7.63
2022-11-11 12:39:02.6440,-6.68,4.24,0.67,7.94
2022-11-11 12:39:02.6480,-7.16,4.3,0.66,8.37
2022-11-11 12:39:02.6610,-8.14,4.68,0.26,9.39
2022-11-11 12:39:02.6640,-9.39,5.68,0.0,10.97
2022-11-11 12:39:02.6770,-9.88,6.93,-0.38,12.07
2022-11-11 12:39:02.6810,-9.91,7.19,-2.16,12.43
2022-11-11 12:39:02.6920,-10.23,5.8,-4.26,12.5
2022-11-11 12:39:02.6950,-10.46,4.25,-5.77,12.67
2022-11-11 12:39:02.7090,-10.31,4.47,-6.16,12.81
2022-11-11 12:39:02.7120,-11.62,6.12,-5.78,14.34
2022-11-11 12:39:02.7790,-12.22,8.05,-5.26,15.54
2022-11-11 12:39:02.7820,-10.16,8.85,-3.96,14.04
2022-11-11 12:39:02.7940,-6.67,8.49,-2.77,11.14
2022-11-11 12:39:02.7980,-2.73,7.56,-3.19,8.64
2022-11-11 12:39:02.8100,-0.48,5.5,-4.01,6.82
2022-11-11 12:39:02.8140,-2.24,2.31,-4.47,5.5
2022-11-11 12:39:02.8250,-4.47,-0.44,-4.23,6.16
2022-11-11 12:39:02.8290,-6.34,-2.23,-2.97,7.34
2022-11-11 12:39:02.8420,-6.83,-3.27,-1.93,7.81
2022-11-11 12:39:02.8450,-6.2,-4.4,-0.56,7.62
2022-11-11 12:39:02.9130,-5.39,-5.27,0.08,7.53
2022-11-11 12:39:02.9170,-4.98,-5.81,0.04,7.65
2022-11-11 12:39:02.9270,-5.32,-6.52,0.26,8.41
2022-11-11 12:39:02.9310,-5.18,-6.77,0.41,8.53
2022-11-11 12:39:02.9440,-4.57,-6.51,0.53,7.97
2022-11-11 12:39:02.9470,-4.44,-6.4,0.69,7.81
2022-11-11 12:39:02.9590,-4.73,-6.57,0.96,8.15
2022-11-11 12:39:02.9620,-5.17,-6.63,1.07,8.47
2022-11-11 12:39:02.9750,-5.27,-6.43,1.05,8.37
2022-11-11 12:39:02.9780,-4.93,-6.12,1.11,7.93
2022-11-11 12:39:03.0460,-4.54,-5.79,0.74,7.39
2022-11-11 12:39:03.0500,-4.37,-5.03,1.44,6.81
2022-11-11 12:39:03.0600,-3.4,-3.4,2.73,5.52
2022-11-11 12:39:03.0640,-1.45,-1.53,3.24,3.86
2022-11-11 12:39:03.0770,-0.34,-0.21,2.08,2.11
2022-11-11 12:39:03.0800,0.32,0.95,1.43,1.74
2022-11-11 12:39:03.0920,1.37,2.38,1.88,3.32
2022-11-11 12:39:03.0950,2.84,3.85,1.95,5.16
2022-11-11 12:39:03.1080,4.24,4.86,1.5,6.62
2022-11-11 12:39:03.1120,4.73,5.56,1.14,7.38
2022-11-11 12:39:03.1800,4.85,6.5,0.92,8.16
2022-11-11 12:39:03.1840,4.97,7.51,0.66,9.02
2022-11-11 12:39:03.1940,6.18,8.42,-0.34,10.45
2022-11-11 12:39:03.1970,8.14,9.06,-1.56,12.27
2022-11-11 12:39:03.2100,9.76,9.56,-2.12,13.82
2022-11-11 12:39:03.2130,11.46,10.03,-2.29,15.4
2022-11-11 12:39:03.2250,12.31,9.84,-2.73,15.99
2022-11-11 12:39:03.2280,12.09,8.68,-3.37,15.25
2022-11-11 12:39:03.2420,11.99,7.05,-3.98,14.46
2022-11-11 12:39:03.2450,12.06,5.26,-3.98,13.74
2022-11-11 12:39:03.3140,12.35,4.17,-3.7,13.54
2022-11-11 12:39:03.3180,12.11,4.21,-3.56,13.3
2022-11-11 12:39:03.3270,11.24,4.47,-3.89,12.7
2022-11-11 12:39:03.3310,10.55,3.8,-4.15,11.95
2022-11-11 12:39:03.3430,9.47,2.28,-4.13,10.57
2022-11-11 12:39:03.3470,8.1,1.36,-3.74,9.02
2022-11-11 12:39:03.3580,5.75,1.21,-3.39,6.78
2022-11-11 12:39:03.3620,-3.4,1.32,-2.56,4.45
2022-11-11 12:39:03.3750,-16.11,2.39,1.97,16.4
2022-11-11 12:39:03.3780,-13.96,5.44,6.9,16.49
2022-11-11 12:39:03.4510,0.4,10.68,9.46,14.27
2022-11-11 12:39:03.4580,6.63,11.51,4.81,14.12
2022-11-11 12:39:03.4640,5.31,7.21,1.53,9.08
2022-11-11 12:39:03.4770,2.27,3.41,0.98,4.21
2022-11-11 12:39:03.4800,3.35,0.83,-0.76,3.53
2022-11-11 12:39:03.4920,5.53,-1.38,-2.87,6.38
2022-11-11 12:39:03.4950,6.51,-3.25,-6.69,9.88
2022-11-11 12:39:03.5080,5.95,-2.86,-7.49,9.98
2022-11-11 12:39:03.5120,6.73,-1.2,-3.86,7.85
2022-11-11 12:39:03.5240,6.51,-0.26,-2.2,6.87
2022-11-11 12:39:03.5960,4.03,-0.3,-2.81,4.92
2022-11-11 12:39:03.6010,1.57,-0.4,-1.06,1.93
2022-11-11 12:39:03.6110,-0.44,-0.02,2.05,2.09
2022-11-11 12:39:03.6160,-1.93,1.04,3.43,4.07
2022-11-11 12:39:03.6260,-2.62,2.25,2.9,4.5
2022-11-11 12:39:03.6300,-2.46,2.72,1.81,4.08
2022-11-11 12:39:03.6410,-0.83,1.74,0.34,1.95
2022-11-11 12:39:03.6450,1.37,0.21,-1.16,1.8
2022-11-11 12:39:03.6580,2.06,-0.58,-1.81,2.8
2022-11-11 12:39:03.6610,0.98,-0.75,-1.74,2.13
2022-11-11 12:39:03.7330,-0.09,-0.9,-1.65,1.88
2022-11-11 12:39:03.7370,-0.34,-1.01,-1.18,1.59
2022-11-11 12:39:03.7440,-0.01,-0.72,-0.44,0.84
2022-11-11 12:39:03.7470,-0.09,-0.39,-0.06,0.4
2022-11-11 12:39:03.7590,-0.62,-0.14,0.27,0.69
2022-11-11 12:39:03.7630,-1.06,0.21,0.5,1.19
2022-11-11 12:39:03.7740,-1.36,0.46,0.64,1.57
2022-11-11 12:39:03.7780,-1.2,0.57,0.53,1.43
2022-11-11 12:39:03.7910,-0.69,0.41,0.19,0.82
2022-11-11 12:39:03.7950,-0.3,0.18,-0.04,0.35
2022-11-11 12:39:03.8660,-0.09,0.12,-0.14,0.2
2022-11-11 12:39:03.8700,-0.33,0.05,-0.21,0.39
2022-11-11 12:39:03.8770,-0.84,0.05,-0.26,0.88
2022-11-11 12:39:03.8800,-1.03,0.16,-0.12,1.04
2022-11-11 12:39:03.8930,-1.27,0.25,0.1,1.29
2022-11-11 12:39:03.8960,-1.38,0.41,-0.07,1.44
2022-11-11 12:39:03.9080,-0.93,0.63,-0.13,1.13
2022-11-11 12:39:03.9110,-0.5,0.77,-0.22,0.94
2022-11-11 12:39:03.9240,0.23,1.07,-0.28,1.12
2022-11-11 12:39:03.9280,0.41,1.35,-0.31,1.44
2022-11-11 12:39:04.0000,0.04,1.38,-0.3,1.41
2022-11-11 12:39:04.0040,-0.28,1.18,-0.41,1.28
2022-11-11 12:39:04.0090,-0.63,1.03,-0.6,1.34
2022-11-11 12:39:04.0130,-1.16,1.02,-0.94,1.8
2022-11-11 12:39:04.0260,-1.17,1.24,-1.2,2.08
2022-11-11 12:39:04.0290,-0.84,1.53,-1.44,2.26
2022-11-11 12:39:04.0410,-0.5,1.73,-1.06,2.08
2022-11-11 12:39:04.0440,-0.88,2.04,-0.6,2.3
2022-11-11 12:39:04.0570,-1.45,2.03,-0.6,2.56
2022-11-11 12:39:04.0610,-1.98,2.04,-0.5,2.88
2022-11-11 12:39:04.1330,-2.89,2.1,-0.66,3.63
2022-11-11 12:39:04.1370,-3.03,2.41,-0.82,3.95
2022-11-11 12:39:04.1430,-3.24,2.8,-1.16,4.43
2022-11-11 12:39:04.1470,-2.96,3.37,-1.54,4.74
2022-11-11 12:39:04.1590,-2.35,3.89,-2.27,5.08
2022-11-11 12:39:04.1620,-2.99,4.39,-3.31,6.25
2022-11-11 12:39:04.1740,-4.14,5.6,-3.85,7.95
2022-11-11 12:39:04.1780,-3.99,7.19,-3.57,8.96
2022-11-11 12:39:04.1910,-4.1,7.82,-3.06,9.34
2022-11-11 12:39:04.1940,-5.03,6.48,-3.06,8.75
2022-11-11 12:39:04.2660,-5.79,4.16,-3.64,8.0
2022-11-11 12:39:04.2700,-5.6,2.83,-4.44,7.68
2022-11-11 12:39:04.2760,-5.58,3.24,-3.69,7.43
2022-11-11 12:39:04.2800,-5.71,4.39,-2.58,7.65
2022-11-11 12:39:04.2920,-4.46,3.81,-2.88,6.53
2022-11-11 12:39:04.2960,-4.18,0.42,-3.74,5.62
2022-11-11 12:39:04.3080,-5.21,-3.36,-2.91,6.84
2022-11-11 12:39:04.3110,-5.52,-5.83,-1.04,8.09
2022-11-11 12:39:04.3240,-5.01,-7.2,0.15,8.77
2022-11-11 12:39:04.3270,-4.68,-7.26,0.38,8.64
2022-11-11 12:39:04.4010,-4.77,-6.16,0.99,7.85
2022-11-11 12:39:04.4060,-5.35,-5.8,1.91,8.11
2022-11-11 12:39:04.4110,-5.47,-6.34,1.93,8.59
2022-11-11 12:39:04.4260,-5.55,-6.86,1.78,9.0
2022-11-11 12:39:04.4290,-6.31,-6.46,2.18,9.28
2022-11-11 12:39:04.4410,-6.14,-5.13,2.73,8.45
2022-11-11 12:39:04.4440,-5.46,-3.82,2.86,7.25
2022-11-11 12:39:04.4570,-5.38,-2.78,2.93,6.72
2022-11-11 12:39:04.4610,-5.55,-1.82,3.26,6.68
2022-11-11 12:39:04.4740,-4.99,-0.69,3.56,6.16
2022-11-11 12:39:04.5500,-3.69,0.34,3.59,5.15
2022-11-11 12:39:04.5550,-1.97,1.13,3.24,3.95
2022-11-11 12:39:04.5590,-0.67,1.71,2.8,3.34
2022-11-11 12:39:04.5630,0.0,2.32,2.64,3.51
2022-11-11 12:39:04.5750,0.23,3.47,3.16,4.69
2022-11-11 12:39:04.5790,0.05,5.19,4.39,6.79
2022-11-11 12:39:04.5900,-0.46,6.74,6.02,9.04
2022-11-11 12:39:04.5940,-1.82,7.14,7.81,10.73
2022-11-11 12:39:04.6070,-3.17,6.48,9.17,11.66
2022-11-11 12:39:04.6110,-3.98,5.1,9.42,11.42
2022-11-11 12:39:04.6830,-4.37,3.36,8.61,10.22
2022-11-11 12:39:04.6870,-4.14,2.15,7.1,8.49
2022-11-11 12:39:04.6930,-2.88,1.85,5.41,6.4
2022-11-11 12:39:04.6970,-0.94,2.43,4.22,4.95
2022-11-11 12:39:04.7090,1.5,3.71,3.48,5.3
2022-11-11 12:39:04.7120,4.71,5.01,2.39,7.27
2022-11-11 12:39:04.7240,7.64,5.9,1.24,9.73
2022-11-11 12:39:04.7270,8.63,6.22,0.39,10.64
2022-11-11 12:39:04.7400,7.68,5.53,0.18,9.46
2022-11-11 12:39:04.7430,5.78,3.99,0.35,7.03
2022-11-11 12:39:04.8170,4.1,2.29,0.67,4.74
2022-11-11 12:39:04.8210,2.82,0.97,1.29,3.24
2022-11-11 12:39:04.8270,1.34,0.7,2.04,2.53
2022-11-11 12:39:04.8420,0.36,1.2,2.85,3.11
2022-11-11 12:39:04.8450,-0.01,1.6,3.46,3.81
2022-11-11 12:39:04.8570,-0.12,1.36,3.91,4.14
2022-11-11 12:39:04.8610,-0.34,0.66,4.2,4.26
2022-11-11 12:39:04.8740,-0.69,-0.28,4.28,4.34
2022-11-11 12:39:04.8780,-1.57,-0.98,4.22,4.6
2022-11-11 12:39:04.8900,-2.49,-1.58,3.49,4.56
2022-11-11 12:39:04.9640,-2.48,-1.63,0.91,3.1
2022-11-11 12:39:04.9680,-1.57,-0.74,-3.21,3.64
2022-11-11 12:39:04.9750,-2.41,0.58,-5.36,5.9
2022-11-11 12:39:04.9790,-4.22,2.82,-4.24,6.61
2022-11-11 12:39:04.9920,-1.69,4.22,-2.45,5.16
2022-11-11 12:39:04.9950,2.44,2.32,-1.93,3.88
2022-11-11 12:39:05.0070,3.84,-0.39,-1.86,4.28
2022-11-11 12:39:05.0100,3.42,-1.13,-1.28,3.82
2022-11-11 12:39:05.0230,2.61,-0.78,-0.03,2.72
2022-11-11 12:39:05.0270,1.0,0.04,1.19,1.55
2022-11-11 12:39:05.1030,-1.39,0.46,1.94,2.43
2022-11-11 12:39:05.1090,-3.06,0.03,2.08,3.7
2022-11-11 12:39:05.1130,-2.7,-0.17,1.09,2.91
2022-11-11 12:39:05.1250,-1.5,-0.26,-0.14,1.52
2022-11-11 12:39:05.1280,-0.51,-0.04,-0.51,0.72
2022-11-11 12:39:05.1400,0.61,0.45,-0.83,1.12
2022-11-11 12:39:05.1430,1.72,0.64,-0.93,2.05
2022-11-11 12:39:05.1570,2.25,0.96,-0.73,2.55
2022-11-11 12:39:05.1600,1.53,1.28,-0.38,2.03
2022-11-11 12:39:05.1730,0.29,1.0,-0.58,1.19
2022-11-11 12:39:05.2470,-0.52,0.3,-0.91,1.09
2022-11-11 12:39:05.2510,-1.11,-0.12,-0.66,1.29
2022-11-11 12:39:05.2590,-0.65,-0.11,-0.49,0.82
2022-11-11 12:39:05.2620,-0.1,-0.42,-0.49,0.65
2022-11-11 12:39:05.2740,0.09,-0.6,-0.59,0.84
2022-11-11 12:39:05.2780,-0.37,-0.55,-0.41,0.77
2022-11-11 12:39:05.2900,-0.65,-0.16,-0.08,0.67
2022-11-11 12:39:05.2930,-0.82,0.02,-0.12,0.82
2022-11-11 12:39:05.3060,-0.94,-0.05,-0.59,1.11
2022-11-11 12:39:05.3100,-0.2,-0.04,-0.62,0.65
2022-11-11 12:39:05.3840,0.15,-0.12,-0.22,0.29
2022-11-11 12:39:05.3890,-0.18,-0.01,-0.05,0.18
2022-11-11 12:39:05.3940,-0.52,0.08,-0.13,0.54
2022-11-11 12:39:05.4080,-0.81,0.05,-0.34,0.87
2022-11-11 12:39:05.4110,-1.42,-0.07,-0.23,1.44
2022-11-11 12:39:05.4230,-2.3,-0.23,-0.71,2.41
2022-11-11 12:39:05.4260,-1.47,0.13,-0.88,1.71
2022-11-11 12:39:05.4400,0.16,0.61,-0.54,0.83
2022-11-11 12:39:05.4430,0.78,0.69,0.07,1.04
2022-11-11 12:39:05.4560,0.74,0.68,0.74,1.24
2022-11-11 12:39:05.5310,0.2,0.58,0.48,0.77
2022-11-11 12:39:05.5340,-0.65,0.41,0.15,0.78
2022-11-11 12:39:05.5420,-1.09,0.3,-0.32,1.17
2022-11-11 12:39:05.5450,-0.61,0.27,-0.62,0.91
2022-11-11 12:39:05.5580,0.2,0.41,-0.81,0.92
2022-11-11 12:39:05.5620,0.58,0.17,-1.52,1.63
2022-11-11 12:39:05.5730,0.28,-0.33,-1.29,1.36
2022-11-11 12:39:05.5760,-0.39,-0.54,-1.63,1.76
2022-11-11 12:39:05.5900,-1.03,-0.78,-1.83,2.24
2022-11-11 12:39:05.5930,-1.46,-0.48,-1.69,2.28
2022-11-11 12:39:05.6680,-1.68,-0.03,-1.46,2.22
2022-11-11 12:39:05.6730,-0.85,0.33,-0.93,1.3
2022-11-11 12:39:05.6780,-0.27,0.91,0.34,1.0
2022-11-11 12:39:05.6910,-0.11,1.09,0.38,1.15
2022-11-11 12:39:05.6940,-0.61,0.97,0.85,1.42
2022-11-11 12:39:05.7060,-1.22,0.98,1.15,1.94
2022-11-11 12:39:05.7100,-1.57,1.12,1.08,2.21
2022-11-11 12:39:05.7230,-1.5,1.44,0.76,2.21
2022-11-11 12:39:05.7260,-1.22,1.54,0.07,1.96
2022-11-11 12:39:05.7390,-0.72,1.4,-0.72,1.73
2022-11-11 12:39:05.8150,-0.34,1.14,-1.31,1.76
2022-11-11 12:39:05.8190,-0.34,0.68,-1.33,1.53
2022-11-11 12:39:05.8250,-0.5,0.44,-0.55,0.86
2022-11-11 12:39:05.8280,-0.97,0.55,-0.05,1.11
2022-11-11 12:39:05.8410,-1.71,0.92,0.11,1.94
2022-11-11 12:39:05.8440,-2.14,1.45,0.1,2.58
2022-11-11 12:39:05.8560,-2.41,1.9,-0.17,3.07
2022-11-11 12:39:05.8590,-2.2,2.29,-0.52,3.21
2022-11-11 12:39:05.8730,-1.68,2.5,-0.62,3.07
2022-11-11 12:39:05.8760,-1.5,2.63,-0.77,3.12
2022-11-11 12:39:05.9500,-2.32,2.86,-1.26,3.89
2022-11-11 12:39:05.9540,-3.23,3.63,-1.37,5.04
2022-11-11 12:39:05.9590,-3.78,4.45,-1.26,5.97
2022-11-11 12:39:05.9740,-4.46,4.77,-1.11,6.62
2022-11-11 12:39:05.9780,-5.08,4.81,-0.77,7.03
2022-11-11 12:39:05.9890,-5.45,4.75,-0.25,7.23
2022-11-11 12:39:05.9930,-5.7,4.74,0.4,7.42
2022-11-11 12:39:06.0060,-5.5,4.6,0.97,7.23
2022-11-11 12:39:06.0090,-5.87,3.17,-0.14,6.67
2022-11-11 12:39:06.0230,-8.29,0.2,-1.98,8.52
2022-11-11 12:39:06.0980,-10.57,-1.32,-2.56,10.95
2022-11-11 12:39:06.1020,-11.44,0.78,-3.61,12.02
2022-11-11 12:39:06.1080,-13.33,4.98,-3.35,14.61
2022-11-11 12:39:06.1120,-15.69,8.02,-2.44,17.78
2022-11-11 12:39:06.1240,-14.67,10.07,-1.29,17.84
2022-11-11 12:39:06.1280,-10.01,10.91,-0.08,14.8
2022-11-11 12:39:06.1390,-5.06,10.2,-0.5,11.39
2022-11-11 12:39:06.1430,-2.31,8.17,-2.49,8.84
2022-11-11 12:39:06.1560,-2.92,5.66,-3.76,7.39
2022-11-11 12:39:06.1590,-4.44,4.12,-4.23,7.38
2022-11-11 12:39:06.2350,-5.32,3.75,-4.48,7.9
2022-11-11 12:39:06.2390,-6.72,3.41,-3.95,8.5
2022-11-11 12:39:06.2440,-7.85,2.49,-2.69,8.66
2022-11-11 12:39:06.2570,-7.66,0.79,-0.22,7.7
2022-11-11 12:39:06.2600,-6.28,-1.25,1.8,6.65
2022-11-11 12:39:06.2730,-4.86,-3.44,2.6,6.49
2022-11-11 12:39:06.2760,-4.54,-5.49,2.93,7.7
2022-11-11 12:39:06.2890,-5.02,-6.54,2.77,8.69
2022-11-11 12:39:06.2920,-6.11,-6.6,2.68,9.38
2022-11-11 12:39:06.3060,-7.64,-6.75,2.66,10.53
2022-11-11 12:39:06.3810,-7.86,-6.52,2.65,10.55
2022-11-11 12:39:06.3850,-6.84,-5.67,2.62,9.26
2022-11-11 12:39:06.3910,-5.66,-5.13,2.34,7.98
2022-11-11 12:39:06.3950,-4.97,-4.86,2.15,7.27
2022-11-11 12:39:06.4070,-4.07,-4.02,1.63,5.94
2022-11-11 12:39:06.4110,-3.35,-3.45,1.17,4.94
2022-11-11 12:39:06.4220,-3.4,-2.8,1.22,4.57
2022-11-11 12:39:06.4260,-2.45,-1.06,1.31,2.97
2022-11-11 12:39:06.4390,-0.72,0.85,0.98,1.48
2022-11-11 12:39:06.4420,0.83,2.42,0.24,2.56
2022-11-11 12:39:06.5190,2.43,3.71,-0.18,4.43
2022-11-11 12:39:06.5250,3.69,4.39,-0.08,5.73
2022-11-11 12:39:06.5280,4.11,4.61,0.17,6.17
2022-11-11 12:39:06.5400,4.67,4.91,0.17,6.77
2022-11-11 12:39:06.5440,6.15,5.59,-0.16,8.31
2022-11-11 12:39:06.5550,7.32,6.52,-0.62,9.82
2022-11-11 12:39:06.5590,7.7,7.59,-0.86,10.84
2022-11-11 12:39:06.5720,8.01,8.88,-0.42,11.96
2022-11-11 12:39:06.5750,8.5,9.87,-0.16,13.02
2022-11-11 12:39:06.5880,9.29,9.7,-0.88,13.45
2022-11-11 12:39:06.6660,10.17,8.24,-2.06,13.25
2022-11-11 12:39:06.6700,11.45,6.29,-3.35,13.48
2022-11-11 12:39:06.6760,12.57,4.43,-4.4,14.03
2022-11-11 12:39:06.6900,13.39,3.54,-4.68,14.61
2022-11-11 12:39:06.6940,13.74,4.58,-4.44,15.14
2022-11-11 12:39:06.7050,13.27,6.26,-4.5,15.34
2022-11-11 12:39:06.7090,11.76,6.43,-5.17,14.36
2022-11-11 12:39:06.7220,9.79,4.84,-5.64,12.29
2022-11-11 12:39:06.7250,8.25,2.89,-5.85,10.51
2022-11-11 12:39:06.7390,7.11,1.51,-6.07,9.46
2022-11-11 12:39:06.8170,6.56,1.11,-5.93,8.91
2022-11-11 12:39:06.8210,5.51,1.12,-4.83,7.41
2022-11-11 12:39:06.8260,2.06,1.04,-3.27,4.0
2022-11-11 12:39:06.8400,-6.7,1.2,-1.16,6.9
2022-11-11 12:39:06.8430,-18.27,2.56,1.72,18.52
2022-11-11 12:39:06.8550,-15.36,5.66,5.22,17.18
2022-11-11 12:39:06.8590,-0.22,11.84,6.96,13.73
2022-11-11 12:39:06.8720,4.6,10.95,3.88,12.49
2022-11-11 12:39:06.8750,3.99,6.47,2.21,7.91
2022-11-11 12:39:06.8890,4.69,3.04,0.86,5.65
2022-11-11 12:39:06.9670,6.12,-0.16,-0.88,6.18
2022-11-11 12:39:06.9720,5.51,-3.23,-3.67,7.36
2022-11-11 12:39:06.9770,3.1,-5.19,-7.37,9.53
2022-11-11 12:39:06.9800,1.62,-4.75,-8.63,9.98
2022-11-11 12:39:06.9830,0.93,-2.64,-7.88,8.36
2022-11-11 12:39:06.9880,0.63,-2.23,-6.05,6.47
2022-11-11 12:39:06.9920,1.41,-1.93,-3.82,4.5
2022-11-11 12:39:07.0050,1.57,-0.79,-0.73,1.9
2022-11-11 12:39:07.0080,0.94,0.49,1.56,1.88
2022-11-11 12:39:07.0220,0.26,1.39,2.16,2.58
2022-11-11 12:39:07.1010,-0.86,1.84,2.26,3.03
2022-11-11 12:39:07.1050,-1.92,1.77,2.14,3.37
2022-11-11 12:39:07.1100,-2.15,1.07,1.15,2.66
2022-11-11 12:39:07.1230,-0.83,0.51,-0.08,0.97
2022-11-11 12:39:07.1270,1.58,0.5,-0.65,1.78
2022-11-11 12:39:07.1380,3.17,0.34,-1.06,3.35
2022-11-11 12:39:07.1420,3.4,-0.09,-1.61,3.76
2022-11-11 12:39:07.1550,3.17,-0.15,-1.84,3.66
2022-11-11 12:39:07.1580,2.19,0.03,-0.97,2.39
2022-11-11 12:39:07.1720,0.26,0.11,0.19,0.34
2022-11-11 12:39:07.2500,-1.35,0.05,0.5,1.44
2022-11-11 12:39:07.2550,-2.43,0.14,0.97,2.62
2022-11-11 12:39:07.2600,-3.45,0.35,0.54,3.5
2022-11-11 12:39:07.2730,-3.22,0.36,-0.71,3.31
2022-11-11 12:39:07.2770,-1.47,0.13,-1.4,2.03
2022-11-11 12:39:07.2890,0.16,-0.1,-2.09,2.09
2022-11-11 12:39:07.2920,1.51,0.16,-1.98,2.49
2022-11-11 12:39:07.3050,1.75,0.62,-1.92,2.67
2022-11-11 12:39:07.3080,0.92,0.73,-2.04,2.35
2022-11-11 12:39:07.3220,0.21,0.92,-1.81,2.04
2022-11-11 12:39:07.4010,-0.48,1.11,-1.53,1.95
2022-11-11 12:39:07.4050,-1.18,0.97,-0.72,1.68
2022-11-11 12:39:07.4100,-1.6,0.68,-1.25,2.14
2022-11-11 12:39:07.4230,-2.11,0.65,-0.92,2.39
2022-11-11 12:39:07.4260,-1.96,0.87,-0.56,2.21
2022-11-11 12:39:07.4380,-1.39,0.93,-0.24,1.68
2022-11-11 12:39:07.4420,-1.36,1.11,-0.05,1.75
2022-11-11 12:39:07.4550,-2.41,1.22,-0.32,2.72
2022-11-11 12:39:07.4590,-2.69,2.44,0.3,3.64
2022-11-11 12:39:07.4720,-2.76,3.83,0.26,4.72
2022-11-11 12:39:07.5520,-3.01,4.52,-0.27,5.43
2022-11-11 12:39:07.5570,-3.55,4.7,-0.43,5.9
2022-11-11 12:39:07.5610,-4.56,4.68,-0.9,6.59
2022-11-11 12:39:07.5730,-5.73,4.46,-1.73,7.46
2022-11-11 12:39:07.5760,-6.64,4.42,-2.0,8.22
2022-11-11 12:39:07.5880,-7.13,4.69,-1.76,8.71
2022-11-11 12:39:07.5910,-7.3,4.96,-1.73,8.99
2022-11-11 12:39:07.6050,-7.55,5.15,-1.72,9.29
2022-11-11 12:39:07.6080,-8.18,5.26,-1.25,9.8
2022-11-11 12:39:07.6210,-9.26,5.46,-0.22,10.75
2022-11-11 12:39:07.7020,-11.01,5.94,0.58,12.52
2022-11-11 12:39:07.7060,-13.22,5.88,0.65,14.48
2022-11-11 12:39:07.7230,-14.79,4.64,0.11,15.5
2022-11-11 12:39:07.7270,-15.33,2.72,-0.98,15.6
2022-11-11 12:39:07.7390,-13.84,2.81,-3.3,14.5
2022-11-11 12:39:07.7430,-11.72,5.64,-5.85,14.26
2022-11-11 12:39:07.7550,-11.71,9.45,-5.75,16.1
2022-11-11 12:39:07.7580,-11.86,11.81,-5.51,17.62
2022-11-11 12:39:07.7710,-8.14,11.55,-4.38,14.79
2022-11-11 12:39:07.7740,-2.28,10.43,-4.93,11.75
2022-11-11 12:39:07.8540,1.2,8.03,-6.25,10.24
2022-11-11 12:39:07.8580,-0.99,4.96,-5.72,7.63
2022-11-11 12:39:07.8740,-5.12,2.81,-4.9,7.62
2022-11-11 12:39:07.8770,-7.43,1.51,-4.26,8.69
2022-11-11 12:39:07.8900,-8.69,-0.49,-3.19,9.26
2022-11-11 12:39:07.8930,-6.97,-1.72,-2.11,7.48
2022-11-11 12:39:07.9050,-4.28,-2.28,-0.67,4.89
2022-11-11 12:39:07.9080,-4.33,-3.77,0.44,5.75
2022-11-11 12:39:07.9210,-5.48,-5.77,1.1,8.03
2022-11-11 12:39:07.9250,-5.87,-7.17,1.25,9.35
2022-11-11 12:39:08.0050,-6.2,-8.02,1.44,10.23
2022-11-11 12:39:08.0090,-6.96,-8.33,1.69,10.98
2022-11-11 12:39:08.0230,-7.19,-8.23,1.55,11.03
2022-11-11 12:39:08.0270,-7.25,-8.07,0.88,10.88
2022-11-11 12:39:08.0400,-7.49,-7.42,0.45,10.55
2022-11-11 12:39:08.0430,-6.71,-6.12,0.13,9.08
2022-11-11 12:39:08.0550,-4.72,-5.38,-0.36,7.16
2022-11-11 12:39:08.0580,-3.23,-5.21,-0.28,6.13
2022-11-11 12:39:08.0710,-2.01,-4.31,0.26,4.76
2022-11-11 12:39:08.0750,-0.96,-2.89,1.09,3.23
2022-11-11 12:39:08.1560,-0.67,-1.08,2.08,2.43
2022-11-11 12:39:08.1600,0.0,0.78,1.83,1.98
2022-11-11 12:39:08.1730,1.08,2.0,0.9,2.44
2022-11-11 12:39:08.1770,2.55,2.77,0.37,3.78
2022-11-11 12:39:08.1890,4.57,3.19,0.16,5.57
2022-11-11 12:39:08.1930,5.87,3.76,0.05,6.97
2022-11-11 12:39:08.2040,6.56,5.14,-0.29,8.33
2022-11-11 12:39:08.2080,6.76,7.0,-0.63,9.75
2022-11-11 12:39:08.2210,7.14,9.38,-0.83,11.81
2022-11-11 12:39:08.2240,8.95,11.17,-1.26,14.36
2022-11-11 12:39:08.3070,11.7,11.8,-2.14,16.75
2022-11-11 12:39:08.3110,13.53,11.58,-3.05,18.06
2022-11-11 12:39:08.3230,14.48,10.74,-3.82,18.42
2022-11-11 12:39:08.3270,15.1,9.39,-5.46,18.6
2022-11-11 12:39:08.3390,15.6,7.77,-7.02,18.78
2022-11-11 12:39:08.3430,16.32,6.6,-7.21,19.02
2022-11-11 12:39:08.3540,16.16,6.21,-6.44,18.47
2022-11-11 12:39:08.3580,14.71,6.33,-6.61,17.32
2022-11-11 12:39:08.3710,13.64,6.04,-7.22,16.57
2022-11-11 12:39:08.3750,13.1,5.28,-7.8,16.13
2022-11-11 12:39:08.4580,13.18,3.84,-7.92,15.84
2022-11-11 12:39:08.4620,12.02,1.96,-7.25,14.17
2022-11-11 12:39:08.4740,5.56,0.27,-6.09,8.25
2022-11-11 12:39:08.4770,-13.25,-0.51,-2.16,13.43
2022-11-11 12:39:08.4890,-32.47,1.42,4.51,32.81
2022-11-11 12:39:08.4930,-22.86,8.11,11.42,26.8
2022-11-11 12:39:08.5040,-0.21,19.27,10.92,22.15
2022-11-11 12:39:08.5070,9.01,16.65,6.08,19.88
2022-11-11 12:39:08.5210,4.76,6.55,2.91,8.6
2022-11-11 12:39:08.5240,2.07,-0.34,-1.35,2.49
2022-11-11 12:39:08.6080,3.85,-4.4,-3.86,7.0
2022-11-11 12:39:08.6120,6.54,-8.05,-9.04,13.75
2022-11-11 12:39:08.6230,9.6,-7.92,-12.27,17.47
2022-11-11 12:39:08.6260,11.15,-2.76,-9.82,15.11
2022-11-11 12:39:08.6390,6.55,0.07,-7.57,10.01
2022-11-11 12:39:08.6420,3.24,-0.58,-5.99,6.83
2022-11-11 12:39:08.6540,2.3,-0.78,-2.11,3.21
2022-11-11 12:39:08.6580,0.48,-0.2,1.66,1.73
2022-11-11 12:39:08.6710,-1.59,0.99,3.93,4.35
2022-11-11 12:39:08.6740,-3.14,2.49,4.81,6.26
2022-11-11 12:39:08.7590,-4.07,3.3,4.0,6.59
2022-11-11 12:39:08.7620,-4.22,2.94,1.33,5.31
2022-11-11 12:39:08.7740,-2.47,1.27,-1.25,3.04
2022-11-11 12:39:08.7770,0.73,-0.6,-2.57,2.73
2022-11-11 12:39:08.7890,3.87,-2.26,-3.05,5.42
2022-11-11 12:39:08.7920,5.09,-2.93,-3.08,6.63
2022-11-11 12:39:08.8040,3.71,-1.97,-2.08,4.68
2022-11-11 12:39:08.8070,1.74,-0.83,-0.04,1.92
2022-11-11 12:39:08.8210,0.56,0.15,1.58,1.68
2022-11-11 12:39:08.8250,-0.86,0.76,1.86,2.18
2022-11-11 12:39:08.9100,-2.05,1.17,1.53,2.81
2022-11-11 12:39:08.9140,-2.26,1.64,1.06,2.98
2022-11-11 12:39:08.9230,-2.1,1.49,-0.05,2.57
2022-11-11 12:39:08.9260,-1.43,0.81,-1.18,2.02
2022-11-11 12:39:08.9390,-0.87,0.03,-2.13,2.3
2022-11-11 12:39:08.9420,-0.86,-0.33,-2.1,2.29
2022-11-11 12:39:08.9540,-1.09,-0.09,-1.0,1.48
2022-11-11 12:39:08.9570,-1.44,0.73,-0.77,1.78
2022-11-11 12:39:08.9700,-1.69,1.24,-0.67,2.2
2022-11-11 12:39:08.9740,-1.07,1.44,-0.46,1.85
2022-11-11 12:39:09.0590,-0.33,1.36,-1.04,1.74
2022-11-11 12:39:09.0630,-0.11,1.31,-1.52,2.0
2022-11-11 12:39:09.0730,-0.31,1.74,-1.28,2.18
2022-11-11 12:39:09.0760,-0.61,2.2,-1.6,2.78
2022-11-11 12:39:09.0890,-0.88,2.18,-2.56,3.47
2022-11-11 12:39:09.0920,-1.71,1.83,-2.73,3.7
2022-11-11 12:39:09.1040,-2.59,2.1,-2.39,4.1
2022-11-11 12:39:09.1070,-3.11,2.71,-1.76,4.48
2022-11-11 12:39:09.1210,-3.79,3.41,-0.85,5.16
2022-11-11 12:39:09.1240,-4.43,4.09,0.09,6.03
2022-11-11 12:39:09.2140,-5.1,4.57,0.64,6.87
2022-11-11 12:39:09.2170,-5.84,4.69,0.85,7.53
2022-11-11 12:39:09.2390,-6.94,4.51,0.48,8.29
2022-11-11 12:39:09.2420,-8.05,4.46,0.09,9.2
2022-11-11 12:39:09.2550,-8.38,4.85,0.09,9.68
2022-11-11 12:39:09.2580,-8.57,5.16,0.2,10.0
2022-11-11 12:39:09.2710,-9.78,5.26,-0.15,11.1
2022-11-11 12:39:09.2740,-11.78,5.73,-0.71,13.11
2022-11-11 12:39:09.2870,-13.04,6.54,-1.01,14.62
2022-11-11 12:39:09.2910,-13.59,6.62,-2.52,15.32
2022-11-11 12:39:09.3800,-13.37,5.88,-4.78,15.36
2022-11-11 12:39:09.3850,-11.51,5.83,-6.15,14.29
2022-11-11 12:39:09.3890,-9.36,7.2,-7.62,14.05
2022-11-11 12:39:09.3930,-10.02,8.72,-6.77,14.9
2022-11-11 12:39:09.4050,-10.85,9.41,-5.72,15.45
2022-11-11 12:39:09.4090,-8.22,8.82,-3.49,12.55
2022-11-11 12:39:09.4200,-4.11,7.99,-2.24,9.26
2022-11-11 12:39:09.4240,-0.37,7.41,-4.05,8.45
2022-11-11 12:39:09.4370,-0.82,5.45,-4.86,7.34
2022-11-11 12:39:09.4400,-4.74,2.61,-4.18,6.83
2022-11-11 12:39:09.5320,-6.49,0.49,-3.16,7.23
2022-11-11 12:39:09.5370,-6.72,-1.93,-2.31,7.36
2022-11-11 12:39:09.5420,-6.76,-4.84,-1.27,8.41
2022-11-11 12:39:09.5560,-6.13,-7.15,0.13,9.41
2022-11-11 12:39:09.5590,-5.76,-7.58,1.04,9.57
2022-11-11 12:39:09.5710,-5.84,-6.67,1.37,8.97
2022-11-11 12:39:09.5740,-6.42,-6.57,1.73,9.34
2022-11-11 12:39:09.5870,-7.05,-7.04,2.15,10.19
2022-11-11 12:39:09.5910,-6.92,-7.29,2.47,10.35
2022-11-11 12:39:09.6030,-6.33,-7.17,2.62,9.91
2022-11-11 12:39:09.6920,-6.3,-7.14,2.5,9.84
2022-11-11 12:39:09.6960,-6.31,-7.17,1.99,9.75
2022-11-11 12:39:09.7060,-6.03,-6.93,1.35,9.28
2022-11-11 12:39:09.7090,-5.38,-6.26,0.88,8.3
2022-11-11 12:39:09.7210,-4.76,-5.26,1.1,7.17
2022-11-11 12:39:09.7250,-4.46,-3.89,1.89,6.21
2022-11-11 12:39:09.7370,-3.86,-2.06,3.39,5.53
2022-11-11 12:39:09.7400,-2.9,-0.08,4.55,5.39
2022-11-11 12:39:09.7530,-1.14,1.85,3.61,4.21
2022-11-11 12:39:09.7570,2.13,3.39,1.73,4.36
2022-11-11 12:39:09.8470,4.35,4.15,0.83,6.06
2022-11-11 12:39:09.8500,3.97,4.84,0.04,6.26
2022-11-11 12:39:09.8550,3.95,6.62,-0.35,7.71
2022-11-11 12:39:09.8590,4.85,8.92,-0.18,10.15
2022-11-11 12:39:09.8720,5.98,11.39,-0.46,12.87
2022-11-11 12:39:09.8750,7.24,13.4,-0.8,15.25
2022-11-11 12:39:09.8870,9.03,14.09,-1.61,16.81
2022-11-11 12:39:09.8910,11.79,13.73,-2.69,18.29
2022-11-11 12:39:09.9030,13.56,12.52,-4.11,18.9
2022-11-11 12:39:09.9070,14.06,10.48,-5.25,18.3
2022-11-11 12:39:09.9980,15.24,8.05,-5.83,18.19
2022-11-11 12:39:10.0020,16.19,6.12,-5.61,18.19
2022-11-11 12:39:10.0070,15.72,5.86,-5.12,17.54
2022-11-11 12:39:10.0220,15.34,6.91,-4.96,17.54
2022-11-11 12:39:10.0250,15.49,6.97,-5.49,17.85
2022-11-11 12:39:10.0370,15.25,5.03,-6.06,17.16
2022-11-11 12:39:10.0400,14.11,2.93,-6.37,15.75
2022-11-11 12:39:10.0530,12.44,2.12,-5.68,13.83
2022-11-11 12:39:10.0570,9.33,1.49,-4.78,10.58
2022-11-11 12:39:10.0700,1.88,0.26,-4.75,5.11
2022-11-11 12:39:10.1630,-14.6,-0.47,-3.08,14.92
2022-11-11 12:39:10.1660,-24.81,1.64,1.54,24.91
2022-11-11 12:39:10.1720,-11.79,8.02,7.93,16.31
2022-11-11 12:39:10.1750,3.85,15.47,9.2,18.4
2022-11-11 12:39:10.1880,6.32,11.7,4.24,13.95
2022-11-11 12:39:10.1920,1.46,4.81,2.42,5.57
2022-11-11 12:39:10.2040,1.1,1.2,-0.43,1.68
2022-11-11 12:39:10.2080,3.58,-0.84,-2.04,4.2
2022-11-11 12:39:10.2210,6.56,-3.51,-6.07,9.6
2022-11-11 12:39:10.2250,8.38,-4.48,-9.26,13.26
2022-11-11 12:39:10.3290,7.13,-2.77,-6.56,10.07
2022-11-11 12:39:10.3330,3.49,-0.82,-4.26,5.56
2022-11-11 12:39:10.3390,1.84,-0.57,-4.33,4.73
2022-11-11 12:39:10.3420,1.88,-0.96,-3.26,3.88
2022-11-11 12:39:10.3550,2.83,-0.3,-1.08,3.04
2022-11-11 12:39:10.3580,3.08,1.15,0.87,3.4
2022-11-11 12:39:10.3700,1.8,2.44,1.53,3.39
2022-11-11 12:39:10.3730,0.08,2.99,1.85,3.51
2022-11-11 12:39:10.3860,-1.71,2.62,2.34,3.9
2022-11-11 12:39:10.3900,-3.97,1.15,2.15,4.65
2022-11-11 12:39:10.4850,-4.65,-0.78,0.49,4.74
2022-11-11 12:39:10.4880,-2.61,-2.19,-1.48,3.71
2022-11-11 12:39:10.5050,-0.81,-2.49,-2.65,3.72
2022-11-11 12:39:10.5090,-0.06,-2.16,-3.01,3.7
2022-11-11 12:39:10.5210,0.15,-1.7,-3.07,3.51
2022-11-11 12:39:10.5240,0.47,-1.25,-2.78,3.08
2022-11-11 12:39:10.5360,0.78,-0.7,-1.87,2.14
2022-11-11 12:39:10.5400,0.59,-0.05,-1.01,1.17
2022-11-11 12:39:10.5530,0.55,0.82,0.04,0.98
2022-11-11 12:39:10.5560,0.62,1.72,0.89,2.03
2022-11-11 12:39:10.6510,0.26,1.98,1.61,2.56
2022-11-11 12:39:10.6550,-0.54,1.61,1.94,2.57
2022-11-11 12:39:10.6720,-1.34,0.91,1.45,2.17
2022-11-11 12:39:10.6750,-1.87,0.35,1.02,2.15
2022-11-11 12:39:10.6880,-1.85,0.2,0.2,1.87
2022-11-11 12:39:10.6910,-1.73,-0.07,-0.46,1.79
2022-11-11 12:39:10.7030,-1.0,-0.2,-1.28,1.63
2022-11-11 12:39:10.7060,-0.24,0.05,-2.03,2.04
2022-11-11 12:39:10.7190,-0.14,0.47,-2.52,2.56
2022-11-11 12:39:10.7230,0.29,1.06,-2.01,2.29
2022-11-11 12:39:10.8190,0.58,1.32,-1.75,2.26
2022-11-11 12:39:10.8220,0.36,1.76,-1.15,2.13
2022-11-11 12:39:10.8380,-0.49,2.44,-1.03,2.69
2022-11-11 12:39:10.8420,-1.79,2.38,-1.08,3.16
2022-11-11 12:39:10.8540,-2.48,2.2,-0.86,3.42
2022-11-11 12:39:10.8580,-3.09,2.01,-0.94,3.8
2022-11-11 12:39:10.8690,-3.59,2.32,-0.61,4.31
2022-11-11 12:39:10.8730,-4.03,2.89,-0.5,4.98
2022-11-11 12:39:10.8860,-4.26,3.52,-0.02,5.52
2022-11-11 12:39:10.8890,-4.24,4.32,0.4,6.06
2022-11-11 12:39:10.9860,-4.61,4.89,0.57,6.74
2022-11-11 12:39:10.9890,-5.06,5.16,0.66,7.25
2022-11-11 12:39:11.0050,-5.52,5.02,0.43,7.47
2022-11-11 12:39:11.0080,-6.3,4.77,0.22,7.9
2022-11-11 12:39:11.0210,-7.3,4.66,0.17,8.66
2022-11-11 12:39:11.0250,-8.92,4.47,-0.1,9.97
2022-11-11 12:39:11.0360,-10.96,4.68,-0.67,11.93
2022-11-11 12:39:11.0390,-12.26,5.62,-1.23,13.54
2022-11-11 12:39:11.0530,-12.41,6.38,-2.4,14.15
2022-11-11 12:39:11.0560,-12.01,5.8,-4.79,14.17
2022-11-11 12:39:11.1540,-12.12,4.1,-5.42,13.89
2022-11-11 12:39:11.1580,-10.97,3.94,-4.83,12.61
2022-11-11 12:39:11.1710,-9.01,5.61,-5.69,12.04
2022-11-11 12:39:11.1750,-10.07,7.07,-5.4,13.43
2022-11-11 12:39:11.1880,-10.96,7.52,-4.96,14.18
2022-11-11 12:39:11.1910,-7.7,7.85,-3.01,11.4
2022-11-11 12:39:11.2030,-3.09,8.18,-2.18,9.01
2022-11-11 12:39:11.2060,1.06,7.35,-4.12,8.49
2022-11-11 12:39:11.2190,0.54,4.87,-4.72,6.8
2022-11-11 12:39:11.2230,-2.98,2.01,-4.24,5.55
2022-11-11 12:39:11.3230,-4.44,-0.12,-3.6,5.71
2022-11-11 12:39:11.3280,-5.44,-2.53,-3.21,6.8
2022-11-11 12:39:11.3380,-6.75,-5.27,-2.44,8.9
2022-11-11 12:39:11.3420,-7.93,-7.26,-0.46,10.76
2022-11-11 12:39:11.3540,-6.42,-6.66,0.7,9.27
2022-11-11 12:39:11.3570,-4.37,-5.72,0.61,7.22
2022-11-11 12:39:11.3690,-4.49,-6.66,0.24,8.03
2022-11-11 12:39:11.3730,-5.51,-7.78,0.12,9.53
2022-11-11 12:39:11.3860,-5.95,-7.92,0.27,9.9
2022-11-11 12:39:11.3900,-5.73,-7.7,0.65,9.62
2022-11-11 12:39:11.4890,-5.61,-7.44,0.83,9.35
2022-11-11 12:39:11.4920,-5.46,-7.1,0.61,8.97
2022-11-11 12:39:11.5050,-5.23,-6.67,0.29,8.48
2022-11-11 12:39:11.5080,-4.8,-6.19,0.23,7.83
2022-11-11 12:39:11.5210,-4.13,-5.47,0.11,6.85
2022-11-11 12:39:11.5240,-3.05,-4.43,0.3,5.38
2022-11-11 12:39:11.5360,-1.93,-2.89,1.11,3.64
2022-11-11 12:39:11.5390,-1.25,-0.64,1.14,1.8
2022-11-11 12:39:11.5520,-0.29,1.87,0.28,1.91
2022-11-11 12:39:11.5560,1.69,4.5,0.12,4.8
2022-11-11 12:39:11.6570,4.13,6.87,0.22,8.01
2022-11-11 12:39:11.6600,5.2,7.84,0.09,9.4
2022-11-11 12:39:11.6710,5.85,8.22,-0.5,10.1
2022-11-11 12:39:11.6750,6.95,8.63,-1.38,11.16
2022-11-11 12:39:11.6870,8.21,8.9,-2.11,12.29
2022-11-11 12:39:11.6910,9.75,9.26,-2.9,13.75
2022-11-11 12:39:11.7020,11.04,9.13,-3.84,14.83
2022-11-11 12:39:11.7060,12.14,8.41,-4.78,15.52
2022-11-11 12:39:11.7190,13.39,7.33,-5.48,16.21
2022-11-11 12:39:11.7220,15.03,6.33,-6.08,17.4
2022-11-11 12:39:11.8250,15.88,5.71,-6.84,18.2
2022-11-11 12:39:11.8290,15.2,4.85,-6.71,17.3
2022-11-11 12:39:11.8380,14.09,3.52,-5.44,15.5
2022-11-11 12:39:11.8420,12.54,2.69,-4.47,13.58
2022-11-11 12:39:11.8530,11.39,2.93,-4.11,12.45
2022-11-11 12:39:11.8570,10.88,3.07,-3.73,11.9
2022-11-11 12:39:11.8690,9.79,2.8,-3.22,10.67
2022-11-11 12:39:11.8720,5.72,2.82,-3.02,7.05
2022-11-11 12:39:11.8860,-5.85,3.24,0.11,6.68
2022-11-11 12:39:11.8890,-13.77,5.44,4.39,15.44
2022-11-11 12:39:11.9920,-4.72,10.49,8.71,14.42
2022-11-11 12:39:11.9960,4.66,12.88,5.54,14.77
2022-11-11 12:39:12.0040,7.01,9.1,-1.29,11.55
2022-11-11 12:39:12.0080,7.19,2.98,-4.71,9.09
2022-11-11 12:39:12.0200,7.94,-0.06,-4.87,9.31
2022-11-11 12:39:12.0240,5.01,0.11,-3.07,5.87
2022-11-11 12:39:12.0360,0.91,-0.9,-3.4,3.63
2022-11-11 12:39:12.0390,5.98,-2.37,-3.16,7.16
2022-11-11 12:39:12.0520,10.2,-1.96,-1.99,10.57
2022-11-11 12:39:12.0560,6.51,-1.16,-3.61,7.53
2022-11-11 12:39:12.1620,0.91,0.08,-1.07,1.4
2022-11-11 12:39:12.1660,-1.94,0.6,0.37,2.06
2022-11-11 12:39:12.1710,-3.61,0.18,0.68,3.67
2022-11-11 12:39:12.1750,-3.94,0.77,1.12,4.16
2022-11-11 12:39:12.1880,-2.2,1.27,-0.72,2.64
2022-11-11 12:39:12.1910,0.8,1.17,-1.03,1.75
2022-11-11 12:39:12.2020,2.3,0.7,-0.92,2.57
2022-11-11 12:39:12.2050,2.3,0.17,-1.18,2.59
2022-11-11 12:39:12.2190,1.41,0.08,-1.15,1.82
2022-11-11 12:39:12.2220,0.3,-0.11,-0.91,0.96
2022-11-11 12:39:12.3290,-0.24,-0.45,-0.56,0.75
2022-11-11 12:39:12.3330,-0.87,-0.74,-0.26,1.17
2022-11-11 12:39:12.3380,-1.36,-0.88,-0.22,1.63
2022-11-11 12:39:12.3410,-1.63,-0.84,-0.5,1.9
2022-11-11 12:39:12.3530,-1.95,-0.63,-0.64,2.14
2022-11-11 12:39:12.3570,-1.91,-0.47,-0.79,2.11
2022-11-11 12:39:12.3690,-1.7,-0.5,-1.17,2.12
2022-11-11 12:39:12.3720,-1.06,-0.18,-1.21,1.61
2022-11-11 12:39:12.3850,0.03,0.52,-0.85,0.99
2022-11-11 12:39:12.3890,0.6,0.9,-0.59,1.23
2022-11-11 12:39:12.4960,0.61,0.71,0.01,0.93
2022-11-11 12:39:12.5000,0.12,0.41,0.53,0.68
2022-11-11 12:39:12.5050,-0.76,0.27,0.47,0.93
2022-11-11 12:39:12.5200,-1.61,0.16,0.23,1.63
2022-11-11 12:39:12.5240,-1.79,0.1,-0.06,1.79
2022-11-11 12:39:12.5350,-1.22,0.11,-0.26,1.25
2022-11-11 12:39:12.5390,-0.39,0.22,-0.53,0.69
2022-11-11 12:39:12.5520,0.21,0.62,-0.74,0.98
2022-11-11 12:39:12.5550,0.25,0.96,-0.74,1.23
2022-11-11 12:39:12.5690,-0.03,1.01,-0.42,1.09
2022-11-11 12:39:12.6760,-0.59,0.77,-0.09,0.97
2022-11-11 12:39:12.6790,-1.51,0.15,-0.24,1.53
2022-11-11 12:39:12.6870,-2.37,-0.34,-0.21,2.4
2022-11-11 12:39:12.6910,-3.16,-0.26,-0.56,3.21
2022-11-11 12:39:12.7030,-3.43,0.05,-1.33,3.67
2022-11-11 12:39:12.7070,-2.04,0.94,-1.19,2.54
2022-11-11 12:39:12.7190,-0.86,1.83,-1.54,2.54
2022-11-11 12:39:12.7220,0.04,2.53,-1.28,2.83
2022-11-11 12:39:12.7350,0.4,2.87,-1.2,3.13
2022-11-11 12:39:12.7390,-0.11,2.66,-1.01,2.84
2022-11-11 12:39:12.8450,-1.2,2.37,-0.77,2.76
2022-11-11 12:39:12.8490,-2.78,2.35,-0.14,3.64
2022-11-11 12:39:12.8550,-4.7,2.7,0.33,5.43
2022-11-11 12:39:12.8580,-5.85,3.2,1.1,6.75
2022-11-11 12:39:12.8700,-5.99,4.24,1.87,7.57
2022-11-11 12:39:12.8730,-6.59,5.48,1.06,8.63
2022-11-11 12:39:12.8850,-7.72,6.8,0.01,10.28
2022-11-11 12:39:12.8890,-9.05,7.79,-1.11,11.99
2022-11-11 12:39:12.9020,-10.11,8.31,-1.76,13.2
2022-11-11 12:39:12.9050,-10.5,8.15,-2.07,13.45
2022-11-11 12:39:13.0140,-10.75,6.93,-2.52,13.03
2022-11-11 12:39:13.0190,-10.89,5.33,-3.34,12.57
2022-11-11 12:39:13.0230,-9.96,4.26,-3.08,11.26
2022-11-11 12:39:13.0370,-7.3,4.4,-2.64,8.92
2022-11-11 12:39:13.0400,-3.28,5.39,-3.62,7.27
2022-11-11 12:39:13.0520,-1.94,4.91,-5.26,7.45
2022-11-11 12:39:13.0550,-4.97,2.22,-6.9,8.78
2022-11-11 12:39:13.0680,-5.99,-0.39,-8.26,10.21
2022-11-11 12:39:13.0720,-4.37,-2.47,-7.63,9.13
2022-11-11 12:39:13.0850,-1.87,-4.45,-5.97,7.67
2022-11-11 12:39:13.1960,-0.12,-5.94,-4.55,7.48
2022-11-11 12:39:13.2000,0.08,-6.14,-3.44,7.03
2022-11-11 12:39:13.2050,-0.82,-4.61,-2.7,5.4
2022-11-11 12:39:13.2200,-2.05,-3.21,-2.32,4.45
2022-11-11 12:39:13.2230,-2.76,-3.21,-2.25,4.79
2022-11-11 12:39:13.2350,-3.11,-4.22,-2.36,5.74
2022-11-11 12:39:13.2380,-3.86,-5.09,-2.35,6.8
2022-11-11 12:39:13.2520,-4.49,-5.27,-2.41,7.33
2022-11-11 12:39:13.2550,-4.55,-5.35,-2.82,7.56
2022-11-11 12:39:13.2680,-4.58,-5.34,-2.97,7.63
2022-11-11 12:39:13.3790,-4.07,-4.99,-2.78,7.01
2022-11-11 12:39:13.3840,-2.98,-4.44,-2.66,5.97
2022-11-11 12:39:13.3890,-2.38,-3.87,-2.51,5.19
2022-11-11 12:39:13.4030,-2.71,-3.18,-2.55,4.89
2022-11-11 12:39:13.4070,-2.98,-2.19,-2.82,4.65
2022-11-11 12:39:13.4180,-2.46,-0.96,-3.15,4.11
2022-11-11 12:39:13.4220,-1.62,0.32,-3.35,3.73
2022-11-11 12:39:13.4350,-1.33,1.33,-3.67,4.12
2022-11-11 12:39:13.4380,-1.68,1.69,-4.3,4.91
2022-11-11 12:39:13.4520,-2.29,1.64,-4.93,5.67
2022-11-11 12:39:13.5660,-2.52,1.58,-5.75,6.47
2022-11-11 12:39:13.5690,-2.56,1.49,-6.78,7.39
2022-11-11 12:39:13.5870,-2.7,1.48,-7.84,8.42
2022-11-11 12:39:13.5900,-2.44,1.79,-8.95,9.44
2022-11-11 12:39:13.6030,-1.57,2.24,-9.82,10.19
2022-11-11 12:39:13.6060,-0.26,2.77,-10.55,10.91
2022-11-11 12:39:13.6180,1.31,3.39,-11.27,11.84
2022-11-11 12:39:13.6210,3.03,3.74,-12.46,13.35
2022-11-11 12:39:13.6350,4.42,3.38,-13.68,14.76
2022-11-11 12:39:13.6380,5.36,2.29,-14.27,15.41
2022-11-11 12:39:13.7520,6.32,0.79,-14.59,15.91
2022-11-11 12:39:13.7550,7.44,-0.56,-14.57,16.36
2022-11-11 12:39:13.7700,8.05,-1.19,-14.05,16.23
2022-11-11 12:39:13.7740,7.81,-1.04,-13.45,15.58
2022-11-11 12:39:13.7860,6.37,-0.57,-11.97,13.57
2022-11-11 12:39:13.7900,4.6,-0.39,-9.96,10.97
2022-11-11 12:39:13.8010,3.27,-1.02,-8.17,8.85
2022-11-11 12:39:13.8050,2.21,-2.28,-7.01,7.69
2022-11-11 12:39:13.8180,1.05,-3.65,-5.67,6.82
2022-11-11 12:39:13.8210,0.97,-3.39,-1.6,3.87
2022-11-11 12:39:13.9360,6.5,2.99,4.66,8.53
2022-11-11 12:39:13.9390,10.74,9.53,6.09,15.59
2022-11-11 12:39:13.9540,1.33,6.8,4.62,8.32
2022-11-11 12:39:13.9570,-8.48,3.26,2.57,9.44
2022-11-11 12:39:13.9690,-8.92,2.16,1.9,9.37
2022-11-11 12:39:13.9730,-3.86,1.52,2.36,4.77
2022-11-11 12:39:13.9850,-1.33,1.16,0.47,1.82
2022-11-11 12:39:13.9880,0.05,0.99,-1.73,1.99
2022-11-11 12:39:14.0010,1.87,0.22,-3.58,4.04
2022-11-11 12:39:14.0050,4.11,-1.21,-4.58,6.27
2022-11-11 12:39:14.1210,4.56,-2.18,-3.67,6.24
2022-11-11 12:39:14.1240,1.73,-1.71,-2.17,3.25
2022-11-11 12:39:14.1370,-1.51,-0.58,-0.89,1.84
2022-11-11 12:39:14.1400,-3.54,-0.09,-0.78,3.62
2022-11-11 12:39:14.1530,-4.36,-0.1,-1.17,4.51
2022-11-11 12:39:14.1570,-4.19,-0.02,-0.83,4.27
2022-11-11 12:39:14.1680,-3.43,0.18,-0.41,3.45
2022-11-11 12:39:14.1710,-2.55,0.21,-0.69,2.65
2022-11-11 12:39:14.1850,-1.54,0.19,-0.92,1.8
2022-11-11 12:39:14.1880,-0.19,0.45,-1.02,1.13
2022-11-11 12:39:14.3060,1.52,0.89,-0.72,1.9
2022-11-11 12:39:14.3090,2.81,0.96,-0.43,3.0
2022-11-11 12:39:14.3200,2.67,0.38,-0.83,2.82
2022-11-11 12:39:14.3240,1.17,-0.23,-1.22,1.7
2022-11-11 12:39:14.3360,-0.28,-0.51,-1.57,1.67
2022-11-11 12:39:14.3400,-0.01,-0.29,-1.31,1.34
2022-11-11 12:39:14.3510,1.5,0.45,-0.04,1.56
2022-11-11 12:39:14.3540,1.68,0.55,1.02,2.04
2022-11-11 12:39:14.3680,0.95,0.11,1.77,2.01
2022-11-11 12:39:14.3710,0.01,-0.03,1.63,1.63
2022-11-11 12:39:14.4880,-0.88,-0.02,0.47,0.99
2022-11-11 12:39:14.4920,-1.05,0.33,0.06,1.1
2022-11-11 12:39:14.5030,-0.25,0.7,-0.82,1.1
2022-11-11 12:39:14.5060,0.06,0.3,-1.79,1.81
2022-11-11 12:39:14.5190,0.85,0.07,-1.78,1.97
2022-11-11 12:39:14.5230,1.17,0.01,-1.51,1.91
2022-11-11 12:39:14.5340,0.32,-0.13,-0.95,1.01
2022-11-11 12:39:14.5380,-0.92,-0.37,0.64,1.18
2022-11-11 12:39:14.5510,-1.83,-0.62,1.19,2.26
2022-11-11 12:39:14.5540,-2.52,-0.79,0.42,2.67
2022-11-11 12:39:14.6730,-2.81,-0.58,-0.18,2.87
2022-11-11 12:39:14.6760,-2.84,-0.43,-1.15,3.09
2022-11-11 12:39:14.6870,-1.18,-0.23,-1.41,1.85
2022-11-11 12:39:14.6900,0.67,-0.06,-1.45,1.59
2022-11-11 12:39:14.7020,1.03,-0.19,-1.57,1.88
2022-11-11 12:39:14.7070,0.6,-0.08,-1.06,1.22
2022-11-11 12:39:14.7180,0.47,0.27,-1.09,1.21
2022-11-11 12:39:14.7210,1.04,0.69,-0.65,1.4
2022-11-11 12:39:14.7340,0.95,1.03,0.08,1.4
2022-11-11 12:39:14.7370,0.48,1.05,0.39,1.21
2022-11-11 12:39:14.8580,0.02,0.84,0.33,0.9
2022-11-11 12:39:14.8620,-0.34,0.59,0.0,0.68
2022-11-11 12:39:14.8710,-0.6,0.26,-0.44,0.78
2022-11-11 12:39:14.8740,-0.89,0.17,-0.51,1.03
2022-11-11 12:39:14.8860,-0.82,0.58,-0.87,1.32
2022-11-11 12:39:14.8900,-1.13,0.74,-0.96,1.65
2022-11-11 12:39:14.9010,-1.35,0.83,-0.56,1.68
2022-11-11 12:39:14.9040,-1.13,0.86,-0.28,1.44
2022-11-11 12:39:14.9170,-1.48,0.77,0.07,1.66
2022-11-11 12:39:14.9210,-2.09,0.83,0.21,2.25
2022-11-11 12:39:15.0410,-2.72,0.79,-0.02,2.83
2022-11-11 12:39:15.0450,-2.59,1.05,0.08,2.79
2022-11-11 12:39:15.0530,-2.61,1.33,-0.41,2.95
2022-11-11 12:39:15.0570,-2.75,1.67,-0.86,3.33
2022-11-11 12:39:15.0690,-2.73,2.18,-1.94,3.99
2022-11-11 12:39:15.0730,-3.13,2.53,-2.87,4.94
2022-11-11 12:39:15.0840,-3.61,3.05,-2.82,5.5
2022-11-11 12:39:15.0870,-3.63,3.61,-2.75,5.81
2022-11-11 12:39:15.1010,-3.47,4.23,-2.62,6.06
2022-11-11 12:39:15.1040,-3.46,5.17,-2.65,6.76
2022-11-11 12:39:15.2250,-3.94,6.28,-2.95,7.97
2022-11-11 12:39:15.2280,-4.83,7.15,-3.07,9.15
2022-11-11 12:39:15.2360,-6.04,7.39,-3.4,10.13
2022-11-11 12:39:15.2400,-7.85,6.51,-4.37,11.09
2022-11-11 12:39:15.2520,-8.81,5.43,-4.99,11.48
2022-11-11 12:39:15.2560,-8.12,4.65,-5.42,10.81
2022-11-11 12:39:15.2680,-5.7,3.75,-6.66,9.53
2022-11-11 12:39:15.2710,-3.17,3.04,-7.24,8.46
2022-11-11 12:39:15.2840,-2.81,2.38,-6.67,7.61
2022-11-11 12:39:15.2880,-3.19,1.08,-6.73,7.52
2022-11-11 12:39:15.4100,-2.98,-0.61,-7.18,7.79
2022-11-11 12:39:15.4140,-4.09,-1.93,-6.89,8.24
2022-11-11 12:39:15.4200,-6.25,-2.57,-6.32,9.25
2022-11-11 12:39:15.4230,-6.67,-2.66,-5.89,9.28
2022-11-11 12:39:15.4360,-6.34,-2.58,-5.11,8.54
2022-11-11 12:39:15.4390,-6.42,-2.54,-4.12,8.04
2022-11-11 12:39:15.4510,-6.5,-3.37,-4.62,8.65
2022-11-11 12:39:15.4540,-7.03,-5.22,-4.56,9.87
2022-11-11 12:39:15.4670,-7.25,-5.96,-3.65,10.07
2022-11-11 12:39:15.4710,-6.78,-5.87,-3.19,9.51
2022-11-11 12:39:15.5930,-6.72,-5.95,-3.0,9.46
2022-11-11 12:39:15.5960,-6.61,-5.65,-2.7,9.1
2022-11-11 12:39:15.6030,-6.02,-4.92,-2.24,8.09
2022-11-11 12:39:15.6070,-5.45,-4.33,-1.83,7.19
2022-11-11 12:39:15.6190,-5.18,-3.81,-1.71,6.65
2022-11-11 12:39:15.6220,-4.95,-3.02,-1.72,6.04
2022-11-11 12:39:15.6340,-4.44,-1.83,-1.9,5.16
2022-11-11 12:39:15.6370,-3.32,-0.39,-2.45,4.14
2022-11-11 12:39:15.6510,-2.24,1.13,-2.81,3.76
2022-11-11 12:39:15.6540,-1.26,2.87,-2.88,4.25
2022-11-11 12:39:15.7790,0.16,4.26,-2.85,5.12
2022-11-11 12:39:15.7830,1.06,5.02,-2.66,5.77
2022-11-11 12:39:15.7880,1.69,5.86,-2.67,6.65
2022-11-11 12:39:15.8030,2.77,6.72,-2.85,7.8
2022-11-11 12:39:15.8060,4.21,7.0,-3.26,8.79
2022-11-11 12:39:15.8170,5.61,6.72,-3.67,9.49
2022-11-11 12:39:15.8200,6.45,5.82,-3.51,9.36
2022-11-11 12:39:15.8340,7.01,4.67,-3.02,8.94
2022-11-11 12:39:15.8370,7.12,3.94,-3.06,8.69
2022-11-11 12:39:15.8500,7.32,3.43,-3.3,8.73
2022-11-11 12:39:15.9780,7.98,2.91,-3.5,9.18
2022-11-11 12:39:15.9830,8.76,2.43,-3.76,9.83
2022-11-11 12:39:15.9880,9.35,2.26,-4.02,10.42
2022-11-11 12:39:16.0020,9.38,2.75,-3.84,10.5
2022-11-11 12:39:16.0050,9.09,3.56,-2.7,10.12
2022-11-11 12:39:16.0170,8.5,3.87,-1.39,9.44
2022-11-11 12:39:16.0200,6.81,3.92,-0.06,7.85
2022-11-11 12:39:16.0340,5.23,3.98,0.91,6.63
2022-11-11 12:39:16.0370,4.35,3.61,1.42,5.82
2022-11-11 12:39:16.0500,4.1,2.91,1.59,5.27
2022-11-11 12:39:16.1780,4.68,2.86,1.54,5.69
2022-11-11 12:39:16.1820,5.48,3.26,1.52,6.55
2022-11-11 12:39:16.1870,6.26,4.02,1.34,7.55
2022-11-11 12:39:16.2020,6.52,4.58,1.01,8.03
2022-11-11 12:39:16.2060,6.74,4.76,0.21,8.25
2022-11-11 12:39:16.2170,7.92,4.53,-1.33,9.22
2022-11-11 12:39:16.2200,8.27,3.4,-2.77,9.36
2022-11-11 12:39:16.2340,5.09,1.48,-6.16,8.12
2022-11-11 12:39:16.2370,-10.75,-2.41,-8.91,14.16
2022-11-11 12:39:16.2500,-28.31,1.03,-3.4,28.53
2022-11-11 12:39:16.3580,-13.36,10.71,1.72,17.2
2022-11-11 12:39:16.3620,6.28,14.63,9.34,18.45
2022-11-11 12:39:16.3690,8.17,6.98,4.48,11.64
2022-11-11 12:39:16.3720,-0.05,0.64,2.75,2.82
2022-11-11 12:39:16.3850,0.25,0.57,3.0,3.06
2022-11-11 12:39:16.3880,3.98,1.83,2.54,5.06
2022-11-11 12:39:16.4000,3.4,0.69,0.49,3.5
2022-11-11 12:39:16.4040,3.72,-0.04,-0.56,3.76
2022-11-11 12:39:16.4170,4.11,0.22,-1.51,4.38
2022-11-11 12:39:16.4210,3.05,0.57,-2.89,4.24
2022-11-11 12:39:16.5300,2.18,0.77,-3.11,3.87
2022-11-11 12:39:16.5350,3.18,0.73,-2.15,3.9
2022-11-11 12:39:16.5390,3.79,0.66,-0.53,3.88
2022-11-11 12:39:16.5520,3.02,0.83,0.87,3.25
2022-11-11 12:39:16.5560,1.81,1.22,1.94,2.92
2022-11-11 12:39:16.5670,0.35,1.51,1.95,2.49
2022-11-11 12:39:16.5710,-0.72,1.2,1.45,2.01
2022-11-11 12:39:16.5840,-1.35,0.32,0.76,1.58
2022-11-11 12:39:16.5880,-1.56,-0.83,-0.39,1.8
2022-11-11 12:39:16.6000,-0.03,-1.46,-1.89,2.38
2022-11-11 12:39:16.7110,1.89,-1.5,-3.19,3.99
2022-11-11 12:39:16.7160,2.67,-1.52,-4.12,5.13
2022-11-11 12:39:16.7210,2.71,-1.09,-3.73,4.73
2022-11-11 12:39:16.7350,1.32,-0.22,-2.42,2.76
2022-11-11 12:39:16.7380,0.22,0.4,-1.08,1.17
2022-11-11 12:39:16.7500,-0.92,0.5,-0.24,1.07
2022-11-11 12:39:16.7540,-2.67,0.1,0.16,2.67
2022-11-11 12:39:16.7670,-3.01,-0.12,0.39,3.03
2022-11-11 12:39:16.7700,-3.39,-0.41,-0.22,3.42
2022-11-11 12:39:16.7840,-3.58,-1.06,-0.99,3.86
2022-11-11 12:39:16.8940,-2.96,-1.29,-1.72,3.65
2022-11-11 12:39:16.8980,-2.96,-1.25,-2.53,4.08
2022-11-11 12:39:16.9030,-1.36,-0.65,-1.72,2.28
2022-11-11 12:39:16.9180,1.92,0.83,0.07,2.09
2022-11-11 12:39:16.9220,1.2,0.8,-0.26,1.46
2022-11-11 12:39:16.9330,-0.62,-0.14,-0.07,0.63
2022-11-11 12:39:16.9370,0.22,0.09,1.27,1.29
2022-11-11 12:39:16.9500,-0.65,0.21,1.74,1.86
2022-11-11 12:39:16.9530,-1.01,0.59,1.82,2.16
2022-11-11 12:39:16.9670,-0.5,0.95,1.24,1.64
2022-11-11 12:39:17.0850,-0.15,0.61,0.13,0.64
2022-11-11 12:39:17.0880,-0.1,0.11,-0.36,0.38
2022-11-11 12:39:17.1020,-0.21,0.04,-0.77,0.79
2022-11-11 12:39:17.1060,-0.59,0.33,-1.52,1.66
2022-11-11 12:39:17.1180,-0.82,0.76,-2.09,2.37
2022-11-11 12:39:17.1220,-1.38,0.49,-2.25,2.68
2022-11-11 12:39:17.1330,-2.07,0.61,-1.9,2.87
2022-11-11 12:39:17.1370,-1.86,1.69,-1.0,2.7
2022-11-11 12:39:17.1500,-1.45,2.99,-0.51,3.36
2022-11-11 12:39:17.1540,-0.89,4.05,-0.32,4.15
2022-11-11 12:39:17.2670,-1.28,4.75,-0.46,4.94
2022-11-11 12:39:17.2700,-2.37,5.16,-0.53,5.7
2022-11-11 12:39:17.2860,-3.33,5.69,0.01,6.59
2022-11-11 12:39:17.2890,-4.69,5.98,-0.03,7.59
2022-11-11 12:39:17.3020,-5.92,5.78,0.04,8.27
2022-11-11 12:39:17.3050,-6.66,5.54,0.67,8.68
2022-11-11 12:39:17.3170,-7.22,5.71,1.35,9.3
2022-11-11 12:39:17.3200,-7.6,6.18,2.37,10.07
2022-11-11 12:39:17.3330,-9.04,6.41,2.53,11.36
2022-11-11 12:39:17.3360,-12.01,6.45,2.14,13.79
2022-11-11 12:39:17.4490,-14.87,6.6,1.31,16.32
2022-11-11 12:39:17.4520,-16.9,6.07,-0.78,17.97
2022-11-11 12:39:17.4690,-17.66,4.37,-3.85,18.59
2022-11-11 12:39:17.4720,-16.37,3.45,-5.55,17.62
2022-11-11 12:39:17.4850,-13.83,5.25,-5.4,15.74
2022-11-11 12:39:17.4880,-11.33,8.38,-6.65,15.58
2022-11-11 12:39:17.5000,-9.41,11.02,-6.63,15.93
2022-11-11 12:39:17.5030,-8.22,12.04,-5.18,15.47
2022-11-11 12:39:17.5170,-5.07,11.26,-4.56,13.16
2022-11-11 12:39:17.5200,-0.59,9.32,-5.5,10.83
2022-11-11 12:39:17.6340,1.56,6.45,-6.45,9.25
2022-11-11 12:39:17.6370,-0.84,3.09,-7.04,7.73
2022-11-11 12:39:17.6520,-4.38,1.05,-7.13,8.43
2022-11-11 12:39:17.6550,-7.29,-0.18,-6.51,9.77
2022-11-11 12:39:17.6680,-7.74,-1.28,-4.23,8.91
2022-11-11 12:39:17.6710,-6.16,-1.81,-1.17,6.52
2022-11-11 12:39:17.6830,-5.66,-2.6,0.42,6.24
2022-11-11 12:39:17.6870,-6.09,-4.81,0.54,7.77
2022-11-11 12:39:17.7000,-7.21,-7.06,0.75,10.11
2022-11-11 12:39:17.7030,-8.33,-8.06,0.83,11.62
2022-11-11 12:39:17.8200,-8.44,-8.22,0.86,11.81
2022-11-11 12:39:17.8240,-8.26,-8.16,0.75,11.63
2022-11-11 12:39:17.8350,-8.31,-7.76,0.46,11.37
2022-11-11 12:39:17.8390,-8.05,-7.1,0.06,10.73
2022-11-11 12:39:17.8510,-7.51,-6.82,-0.31,10.14
2022-11-11 12:39:17.8550,-7.04,-6.49,-0.73,9.6
2022-11-11 12:39:17.8670,-6.37,-6.13,-0.8,8.87
2022-11-11 12:39:17.8700,-5.53,-5.6,-0.75,7.9
2022-11-11 12:39:17.8830,-4.0,-4.17,-0.01,5.77
2022-11-11 12:39:17.8870,-2.02,-2.09,0.84,3.02
2022-11-11 12:39:18.0030,-0.91,-0.04,0.19,0.93
2022-11-11 12:39:18.0060,0.59,1.97,-1.85,2.76
2022-11-11 12:39:18.0190,3.2,3.64,-3.0,5.69
2022-11-11 12:39:18.0220,4.72,4.52,-2.52,7.0
2022-11-11 12:39:18.0350,5.03,4.47,-1.98,7.01
2022-11-11 12:39:18.0380,5.78,4.74,-1.36,7.59
2022-11-11 12:39:18.0500,6.17,5.73,-0.86,8.46
2022-11-11 12:39:18.0530,6.0,7.32,-0.49,9.47
2022-11-11 12:39:18.0660,7.06,9.44,-0.65,11.8
2022-11-11 12:39:18.0700,8.95,11.43,-1.34,14.57
2022-11-11 12:39:18.1880,9.79,12.98,-2.2,16.4
2022-11-11 12:39:18.1920,10.98,13.79,-3.68,18.0
2022-11-11 12:39:18.2020,12.74,13.23,-5.68,19.22
2022-11-11 12:39:18.2050,15.03,10.69,-7.34,19.85
2022-11-11 12:39:18.2180,17.46,7.09,-7.9,20.43
2022-11-11 12:39:18.2210,17.84,4.53,-7.24,19.77
2022-11-11 12:39:18.2330,17.19,5.4,-6.03,19.0
2022-11-11 12:39:18.2360,15.9,7.25,-5.16,18.22
2022-11-11 12:39:18.2500,14.21,6.58,-4.96,16.42
2022-11-11 12:39:18.2530,13.37,4.64,-5.58,15.21
2022-11-11 12:39:18.3710,10.73,2.29,-6.05,12.52
2022-11-11 12:39:18.3750,3.32,1.03,-6.83,7.66
2022-11-11 12:39:18.3850,-15.07,1.77,-2.72,15.41
2022-11-11 12:39:18.3890,-22.18,5.05,5.41,23.38
2022-11-11 12:39:18.4010,-5.28,12.89,10.3,17.32
2022-11-11 12:39:18.4050,6.63,19.02,6.53,21.17
2022-11-11 12:39:18.4160,8.15,14.5,3.23,16.94
2022-11-11 12:39:18.4200,4.3,4.63,1.48,6.48
2022-11-11 12:39:18.4330,4.72,-1.33,-0.36,4.91
2022-11-11 12:39:18.4370,7.29,-4.25,0.27,8.44
2022-11-11 12:39:18.5570,8.96,-6.19,-2.38,11.14
2022-11-11 12:39:18.5600,7.91,-4.57,-7.19,11.62
2022-11-11 12:39:18.5690,4.94,-1.31,-7.6,9.15
2022-11-11 12:39:18.5720,2.38,-0.03,-6.16,6.6
2022-11-11 12:39:18.5840,2.08,-0.17,-5.17,5.57
2022-11-11 12:39:18.5880,3.09,0.05,-3.07,4.35
2022-11-11 12:39:18.6000,3.22,1.05,-0.81,3.48
2022-11-11 12:39:18.6030,2.2,1.87,0.68,2.96
2022-11-11 12:39:18.6160,0.77,2.01,1.77,2.78
2022-11-11 12:39:18.6200,-0.92,1.45,2.72,3.21
2022-11-11 12:39:18.7390,-2.7,0.68,3.35,4.35
2022-11-11 12:39:18.7430,-3.96,0.31,2.96,4.95
2022-11-11 12:39:18.7520,-3.93,0.04,0.95,4.04
2022-11-11 12:39:18.7550,-2.35,-0.76,-1.4,2.83
2022-11-11 12:39:18.7680,0.01,-1.69,-2.72,3.2
2022-11-11 12:39:18.7710,1.89,-2.05,-3.07,4.14
2022-11-11 12:39:18.7830,2.23,-1.46,-2.58,3.7
2022-11-11 12:39:18.7860,1.05,-0.59,-1.75,2.12
2022-11-11 12:39:18.7990,-0.37,-0.2,-0.49,0.64
2022-11-11 12:39:18.8030,-1.51,-0.02,0.9,1.75
2022-11-11 12:39:18.9210,-3.22,0.09,0.91,3.34
2022-11-11 12:39:18.9240,-4.46,0.22,0.34,4.47
2022-11-11 12:39:18.9350,-3.98,0.58,-0.39,4.04
2022-11-11 12:39:18.9390,-1.96,0.82,-1.02,2.35
2022-11-11 12:39:18.9510,0.45,0.88,-1.41,1.72
2022-11-11 12:39:18.9540,2.11,0.96,-1.62,2.82
2022-11-11 12:39:18.9660,2.54,1.1,-1.33,3.07
2022-11-11 12:39:18.9700,1.99,1.5,-0.28,2.5
2022-11-11 12:39:18.9830,0.41,1.81,0.18,1.86
2022-11-11 12:39:18.9860,-1.59,1.51,0.57,2.26
2022-11-11 12:39:19.1060,-2.91,1.59,0.99,3.46
2022-11-11 12:39:19.1100,-3.38,2.05,0.33,3.96
2022-11-11 12:39:19.1190,-2.98,2.65,-0.19,3.99
2022-11-11 12:39:19.1220,-1.98,2.84,-1.16,3.65
2022-11-11 12:39:19.1340,-1.52,2.7,-1.53,3.45
2022-11-11 12:39:19.1380,-2.19,2.82,-1.84,4.01
2022-11-11 12:39:19.1500,-2.98,3.66,-1.22,4.87
2022-11-11 12:39:19.1530,-4.0,4.09,-1.19,5.84
2022-11-11 12:39:19.1660,-4.71,4.37,-0.52,6.44
2022-11-11 12:39:19.1700,-5.5,4.65,0.08,7.2
2022-11-11 12:39:21.0460,-6.41,4.77,0.64,8.01
2022-11-11 12:39:21.0570,-7.14,4.81,1.26,8.7
2022-11-11 12:39:21.0710,-7.65,4.83,1.51,9.17
2022-11-11 12:39:21.0810,-8.53,5.03,1.5,10.01
2022-11-11 12:39:21.0920,-9.65,5.35,1.3,11.11
2022-11-11 12:39:21.1020,-11.19,5.24,0.92,12.39
2022-11-11 12:39:21.1120,-12.42,5.24,1.05,13.52
2022-11-11 12:39:21.1220,-13.37,5.64,0.07,14.51
2022-11-11 12:39:21.1330,-14.12,5.63,-3.59,15.61
2022-11-11 12:39:21.1430,-13.42,5.29,-6.02,15.63
2022-11-11 12:39:21.1740,-12.02,6.59,-6.33,15.09
2022-11-11 12:39:21.1850,-11.95,9.41,-7.25,16.84
2022-11-11 12:39:21.1950,-14.35,11.19,-7.03,19.5
2022-11-11 12:39:21.2060,-13.13,11.36,-5.72,18.28
2022-11-11 12:39:21.2160,-6.67,10.89,-4.54,13.55
2022-11-11 12:39:21.2250,-0.78,9.36,-5.85,11.06
2022-11-11 12:39:21.2360,0.55,6.1,-6.62,9.01
2022-11-11 12:39:21.9950,-3.02,2.65,-5.98,7.2
2022-11-11 12:39:22.2680,-5.21,0.68,-5.8,7.82
2022-11-11 12:39:22.3600,-6.34,-1.29,-5.16,8.27
2022-11-11 12:39:22.4150,-6.97,-3.58,-3.69,8.66
2022-11-11 12:39:22.4370,-6.27,-5.13,-0.69,8.13
2022-11-11 12:39:22.4480,-4.47,-5.16,1.28,6.94
2022-11-11 12:39:22.4590,-3.65,-5.29,1.17,6.53
2022-11-11 12:39:22.4690,-4.46,-6.29,0.7,7.74
2022-11-11 12:39:22.4800,-5.52,-7.43,0.37,9.26
2022-11-11 12:39:22.4960,-6.13,-8.13,0.38,10.18
2022-11-11 12:39:22.5080,-6.44,-8.26,0.33,10.47
2022-11-11 12:39:22.5200,-6.8,-8.04,0.2,10.53
2022-11-11 12:39:22.5320,-6.92,-7.76,-0.12,10.39
2022-11-11 12:39:22.5760,-6.52,-7.18,-0.5,9.71
2022-11-11 12:39:22.5870,-4.88,-6.28,-0.9,8.0
2022-11-11 12:39:22.5980,-3.63,-5.77,-1.53,6.98
2022-11-11 12:39:22.6080,-4.06,-5.49,-1.64,7.02
2022-11-11 12:39:22.6180,-4.58,-4.29,-0.72,6.31
2022-11-11 12:39:22.6300,-3.37,-1.5,1.47,3.97
2022-11-11 12:39:22.6430,-1.05,1.78,2.31,3.09
2022-11-11 12:39:22.6530,1.04,3.57,0.29,3.72
2022-11-11 12:39:22.6650,2.68,4.22,-1.49,5.21
2022-11-11 12:39:22.6800,3.25,4.73,-0.88,5.8
2022-11-11 12:39:22.7100,3.23,5.35,0.2,6.25
2022-11-11 12:39:22.7200,3.91,6.5,0.22,7.58
2022-11-11 12:39:22.7310,5.17,8.28,-0.48,9.77
2022-11-11 12:39:22.7630,6.19,10.81,-1.04,12.5
2022-11-11 12:39:22.7740,7.23,13.49,-1.32,15.36
2022-11-11 12:39:22.7860,9.25,15.13,-1.53,17.79
2022-11-11 12:39:22.7980,11.72,15.45,-2.25,19.52
2022-11-11 12:39:22.8090,14.08,14.59,-4.15,20.69
2022-11-11 12:39:22.8370,16.29,11.98,-5.86,21.05
2022-11-11 12:39:22.8480,18.35,8.16,-6.28,21.04
2022-11-11 12:39:22.8840,18.91,5.04,-5.17,20.24
2022-11-11 12:39:22.9030,16.77,5.35,-3.49,17.94
2022-11-11 12:39:22.9160,14.64,7.04,-2.94,16.5
2022-11-11 12:39:22.9280,13.82,6.88,-3.84,15.9
2022-11-11 12:39:22.9400,13.83,5.49,-4.83,15.64
2022-11-11 12:39:22.9530,13.74,4.01,-5.2,15.22
2022-11-11 12:39:22.9670,12.53,1.99,-5.38,13.78
2022-11-11 12:39:22.9860,7.07,-0.24,-5.92,9.22
2022-11-11 12:39:22.9960,-9.9,-0.95,-3.42,10.51
2022-11-11 12:39:23.0070,-23.18,1.86,4.12,23.61
2022-11-11 12:39:23.0870,-12.75,8.16,10.83,18.61
2022-11-11 12:39:23.1020,3.45,16.67,8.5,19.02
2022-11-11 12:39:23.1220,8.52,15.72,2.57,18.06
2022-11-11 12:39:23.1340,3.42,8.08,2.24,9.05
2022-11-11 12:39:23.1780,1.88,2.19,0.6,2.94
2022-11-11 12:39:23.1880,5.57,-0.96,0.58,5.68
2022-11-11 12:39:23.1980,8.07,-4.18,-1.02,9.14
2022-11-11 12:39:23.2150,7.53,-5.8,-5.88,11.17
2022-11-11 12:39:23.2260,6.02,-3.42,-7.62,10.29
2022-11-11 12:39:23.2390,3.15,-0.59,-6.34,7.1
2022-11-11 12:39:23.2970,1.0,-0.07,-5.31,5.4
2022-11-11 12:39:23.3070,1.24,-0.41,-3.84,4.05
2022-11-11 12:39:23.3180,1.68,-0.04,-1.72,2.4
2022-11-11 12:39:23.3270,1.07,0.76,0.22,1.33
2022-11-11 12:39:23.3370,-0.06,1.42,2.04,2.48
2022-11-11 12:39:23.3720,-1.92,1.56,2.94,3.84
2022-11-11 12:39:23.3820,-3.0,1.04,2.66,4.14
2022-11-11 12:39:23.3930,-2.45,0.47,1.67,3.0
2022-11-11 12:39:23.4040,-1.21,-0.06,-0.06,1.21
2022-11-11 12:39:23.4140,0.74,-0.72,-1.52,1.83
2022-11-11 12:39:23.4470,1.99,-1.23,-2.43,3.37
2022-11-11 12:39:23.4600,2.54,-1.4,-2.66,3.93
2022-11-11 12:39:23.4740,2.0,-1.07,-1.63,2.79
2022-11-11 12:39:23.4940,0.85,-0.4,-0.53,1.07
2022-11-11 12:39:23.5040,-0.37,-0.12,0.36,0.53
2022-11-11 12:39:23.5140,-1.32,-0.01,0.99,1.65
2022-11-11 12:39:23.5240,-1.8,0.1,0.79,1.96
2022-11-11 12:39:23.5340,-2.05,0.19,0.24,2.07
2022-11-11 12:39:23.5450,-1.6,0.32,-0.4,1.68
2022-11-11 12:39:23.5550,-0.68,0.58,-0.72,1.14
2022-11-11 12:39:23.5850,0.2,0.6,-0.68,0.92
2022-11-11 12:39:23.5950,0.78,0.71,-0.42,1.13
2022-11-11 12:39:23.6040,0.63,1.09,0.16,1.26
2022-11-11 12:39:23.6140,-0.56,1.13,0.76,1.47
2022-11-11 12:39:23.6240,-1.33,1.18,0.94,2.01
2022-11-11 12:39:23.6340,-1.41,1.23,0.36,1.9
2022-11-11 12:39:23.6450,-1.47,0.7,-0.45,1.68
2022-11-11 12:39:23.6550,-1.25,0.31,-0.99,1.62
2022-11-11 12:39:23.6650,-0.66,0.89,-1.05,1.52
2022-11-11 12:39:23.6750,-0.44,1.61,-0.96,1.92
2022-11-11 12:39:23.7030,-0.23,2.01,-1.43,2.47
2022-11-11 12:39:23.7130,-0.56,2.61,-1.67,3.14
2022-11-11 12:39:23.7240,-1.4,3.05,-2.3,4.06
2022-11-11 12:39:23.7330,-2.5,3.03,-2.24,4.52
2022-11-11 12:39:23.7450,-3.63,2.97,-1.64,4.96
2022-11-11 12:39:23.7550,-4.54,3.15,-0.5,5.54
2022-11-11 12:39:23.7650,-5.09,3.65,0.05,6.26
2022-11-11 12:39:23.7740,-5.22,4.17,0.59,6.7
2022-11-11 12:39:23.7840,-4.95,4.96,0.64,7.03
2022-11-11 12:39:23.7940,-5.2,5.38,0.31,7.48
2022-11-11 12:39:23.8230,-5.82,5.35,-0.2,7.9
2022-11-11 12:39:23.8330,-6.67,5.22,-0.57,8.48
2022-11-11 12:39:23.8460,-7.81,5.1,-0.68,9.35
2022-11-11 12:39:23.8580,-9.29,4.95,-0.8,10.55
2022-11-11 12:39:23.8680,-11.17,5.13,-1.38,12.36
2022-11-11 12:39:23.8790,-13.15,5.88,-2.29,14.58
2022-11-11 12:39:23.8920,-14.29,7.1,-3.35,16.3
2022-11-11 12:39:23.9020,-13.73,7.78,-5.57,16.73
2022-11-11 12:39:23.9120,-12.54,7.35,-6.52,15.93
2022-11-11 12:39:23.9220,-10.91,7.47,-5.23,14.21
2022-11-11 12:39:23.9520,-8.95,8.08,-6.83,13.85
2022-11-11 12:39:23.9650,-10.49,7.53,-7.63,14.99
2022-11-11 12:39:23.9750,-11.72,6.83,-5.97,14.82
2022-11-11 12:39:23.9850,-8.97,6.86,-4.02,11.98
2022-11-11 12:39:23.9940,-5.7,6.67,-3.69,9.51
2022-11-11 12:39:24.0040,-2.73,5.86,-4.2,7.7
2022-11-11 12:39:24.0140,-1.88,4.18,-4.43,6.37
2022-11-11 12:39:24.0240,-2.61,1.76,-4.58,5.55
2022-11-11 12:39:24.0330,-3.87,-0.71,-3.64,5.36
2022-11-11 12:39:24.0430,-5.63,-3.05,-1.84,6.66
2022-11-11 12:39:24.0730,-5.9,-5.08,-0.13,7.78
2022-11-11 12:39:24.0830,-5.22,-6.26,1.53,8.29
2022-11-11 12:39:24.0930,-4.72,-6.23,2.06,8.08
2022-11-11 12:39:24.1030,-4.56,-6.67,1.8,8.27
2022-11-11 12:39:24.1150,-5.44,-7.6,1.72,9.5
2022-11-11 12:39:24.1250,-6.36,-7.77,1.92,10.22
2022-11-11 12:39:24.1370,-6.11,-7.58,1.96,9.93
2022-11-11 12:39:24.1470,-5.25,-7.28,1.69,9.13
2022-11-11 12:39:24.1570,-5.12,-7.14,1.48,8.9
2022-11-11 12:39:24.1670,-5.05,-6.8,1.37,8.58
2022-11-11 12:39:24.1960,-4.48,-5.98,1.27,7.57
2022-11-11 12:39:24.2060,-3.98,-5.29,1.32,6.75
2022-11-11 12:39:24.2160,-4.14,-4.75,1.7,6.52
2022-11-11 12:39:35.5260,-4.09,-3.97,2.24,6.12
2022-11-11 12:39:35.5320,-3.21,-2.85,2.57,5.0
2022-11-11 12:39:35.5340,-1.65,-0.81,3.16,3.65
2022-11-11 12:39:35.5400,-0.04,1.86,2.69,3.27
2022-11-11 12:39:35.5530,1.45,4.0,1.21,4.42
2022-11-11 12:39:35.5550,3.29,5.47,0.64,6.41
2022-11-11 12:39:35.5570,4.59,6.93,1.4,8.42
2022-11-11 12:39:35.5920,4.65,7.96,1.84,9.4
2022-11-11 12:39:35.5980,5.61,9.09,1.45,10.77
2022-11-11 12:39:35.6090,6.8,9.96,0.67,12.07
2022-11-11 12:39:35.6130,7.87,10.52,-0.29,13.14
2022-11-11 12:39:35.6250,9.39,10.73,-1.25,14.31
2022-11-11 12:39:35.6300,11.37,10.33,-1.78,15.46
2022-11-11 12:39:35.6450,13.11,9.52,-1.97,16.32
2022-11-11 12:39:35.6530,14.36,8.83,-2.61,17.05
2022-11-11 12:39:35.6620,15.18,7.84,-3.68,17.47
2022-11-11 12:39:35.6700,14.99,6.15,-4.19,16.73
2022-11-11 12:39:35.7110,14.7,5.08,-3.91,16.03
2022-11-11 12:39:35.7150,14.58,5.26,-3.75,15.94
2022-11-11 12:39:35.7250,13.89,5.92,-4.07,15.63
2022-11-11 12:39:35.7290,13.16,5.93,-4.95,15.25
2022-11-11 12:39:35.7420,12.35,4.88,-5.92,14.53
2022-11-11 12:39:35.7460,11.43,3.38,-6.69,13.66
2022-11-11 12:39:35.7590,9.97,1.74,-6.96,12.28
2022-11-11 12:39:35.7630,6.36,0.16,-7.06,9.5
2022-11-11 12:39:35.7760,-5.95,-0.89,-5.91,8.43
2022-11-11 12:39:35.7800,-24.13,1.05,0.61,24.16
2022-11-11 12:39:35.8140,-19.5,6.64,7.87,22.05
2022-11-11 12:39:35.8190,-1.74,14.84,11.63,18.93
2022-11-11 12:39:35.8250,6.61,14.67,5.34,16.95
2022-11-11 12:39:35.8290,3.6,7.1,3.61,8.74
2022-11-11 12:39:35.8430,-0.2,1.56,2.67,3.09
2022-11-11 12:39:35.8480,1.5,-1.23,0.75,2.07
2022-11-11 12:39:35.8610,4.38,-4.12,-0.9,6.08
2022-11-11 12:39:35.8660,7.28,-6.03,-7.1,11.82
2022-11-11 12:39:35.8770,8.3,-4.07,-9.88,13.53
2022-11-11 12:39:35.8860,5.46,-1.08,-7.1,9.02
2022-11-11 12:39:35.9210,2.71,0.01,-5.62,6.23
2022-11-11 12:39:35.9260,2.53,-0.1,-4.8,5.42
2022-11-11 12:39:35.9300,2.76,0.21,-2.67,3.84
2022-11-11 12:39:35.9430,2.85,1.01,-0.19,3.02
2022-11-11 12:39:35.9470,2.61,2.26,1.96,3.97
2022-11-11 12:39:35.9710,1.24,2.91,2.97,4.33
2022-11-11 12:39:35.9860,-0.63,2.38,3.83,4.55
2022-11-11 12:39:36.0090,-1.88,1.17,4.33,4.86
2022-11-11 12:39:36.0110,-1.97,0.03,3.07,3.64
2022-11-11 12:39:36.0150,-1.58,-0.75,0.76,1.9
2022-11-11 12:39:36.0510,-0.43,-1.26,-1.16,1.76
2022-11-11 12:39:36.0540,1.7,-1.33,-2.21,3.08
2022-11-11 12:39:36.0580,3.51,-0.95,-2.7,4.52
2022-11-11 12:39:36.0700,4.07,-0.41,-2.67,4.88
2022-11-11 12:39:36.0750,3.21,0.23,-1.85,3.71
2022-11-11 12:39:36.0860,1.08,0.52,-0.76,1.41
2022-11-11 12:39:36.0890,-1.41,0.23,0.11,1.43
2022-11-11 12:39:36.0920,-3.72,-0.29,0.56,3.77
