time,ax,ay,az,atotal
2022-11-11 12:38:47.0250,-0.14,0.14,-0.12,0.23
2022-11-11 12:38:47.0530,0.2,0.48,0.08,0.52
2022-11-11 12:38:47.0550,0.12,0.11,-0.03,0.16
2022-11-11 12:38:47.0560,-0.13,-0.13,-0.13,0.22
2022-11-11 12:38:47.0660,-0.09,-0.06,0.02,0.1
2022-11-11 12:38:47.0740,-0.06,0.07,-0.01,0.09
2022-11-11 12:38:47.0840,-0.06,0.08,-0.11,0.14
2022-11-11 12:38:47.0940,-0.04,0.04,-0.11,0.12
2022-11-11 12:38:47.1040,-0.03,0.01,-0.06,0.06
2022-11-11 12:38:47.1140,-0.17,0.05,0.09,0.19
2022-11-11 12:38:47.1240,-0.36,0.11,0.06,0.38
2022-11-11 12:38:47.1540,-0.35,0.09,-0.02,0.36
2022-11-11 12:38:47.1560,-0.15,0.05,-0.05,0.16
2022-11-11 12:38:47.1570,0.09,-0.02,-0.13,0.15
2022-11-11 12:38:47.1640,0.21,-0.05,-0.26,0.33
2022-11-11 12:38:47.1730,0.27,-0.04,-0.26,0.37
2022-11-11 12:38:47.1840,0.25,-0.04,-0.16,0.29
2022-11-11 12:38:47.1940,0.07,0.01,-0.07,0.09
2022-11-11 12:38:47.2040,-0.04,0.03,-0.03,0.05
2022-11-11 12:38:47.2140,-0.06,0.01,0.03,0.06
2022-11-11 12:38:47.2230,-0.06,-0.01,0.03,0.06
2022-11-11 12:38:47.2340,-0.01,-0.04,0.14,0.14
2022-11-11 12:38:47.2570,0.02,-0.08,0.17,0.18
2022-11-11 12:38:47.2590,-0.07,-0.09,0.37,0.38
2022-11-11 12:38:47.2630,-0.27,0.04,0.48,0.55
2022-11-11 12:38:47.2730,-0.38,0.14,0.37,0.54
2022-11-11 12:38:47.2830,-0.35,0.13,0.13,0.39
2022-11-11 12:38:47.2930,-0.16,0.07,-0.05,0.18
2022-11-11 12:38:47.3030,0.1,0.0,-0.21,0.23
2022-11-11 12:38:47.3130,0.28,-0.03,-0.36,0.45
2022-11-11 12:38:47.3230,0.3,-0.04,-0.37,0.47
2022-11-11 12:38:47.3330,0.15,-0.04,-0.36,0.39
2022-11-11 12:38:47.3570,0.04,-0.04,-0.27,0.27
2022-11-11 12:38:47.3590,0.12,-0.06,-0.19,0.23
2022-11-11 12:38:47.3620,0.28,-0.09,-0.04,0.29
2022-11-11 12:38:47.3720,0.24,-0.01,-0.02,0.24
2022-11-11 12:38:47.3820,0.06,0.01,0.08,0.1
2022-11-11 12:38:47.3920,-0.03,-0.02,0.26,0.26
2022-11-11 12:38:47.4020,-0.1,-0.01,0.24,0.26
2022-11-11 12:38:47.4120,-0.2,0.01,0.21,0.29
2022-11-11 12:38:47.4220,-0.22,0.03,0.13,0.25
2022-11-11 12:38:47.4320,-0.17,-0.02,-0.13,0.21
2022-11-11 12:38:47.4570,-0.02,-0.06,-0.34,0.34
2022-11-11 12:38:47.4580,0.14,-0.03,-0.27,0.3
2022-11-11 12:38:47.4620,0.12,0.03,-0.01,0.12
2022-11-11 12:38:47.4720,-0.13,0.1,0.07,0.17
2022-11-11 12:38:47.4810,-0.32,0.1,0.11,0.35
2022-11-11 12:38:47.4920,-0.25,0.02,0.14,0.28
2022-11-11 12:38:47.5020,-0.04,-0.06,0.04,0.08
2022-11-11 12:38:47.5120,0.1,-0.1,-0.06,0.15
2022-11-11 12:38:47.5220,0.2,-0.09,0.03,0.22
2022-11-11 12:38:47.5320,0.21,0.01,0.06,0.21
2022-11-11 12:38:47.5570,0.04,0.04,-0.1,0.11
2022-11-11 12:38:47.5580,-0.17,-0.03,-0.14,0.22
2022-11-11 12:38:47.5610,-0.27,-0.05,0.0,0.27
2022-11-11 12:38:47.5710,-0.29,0.02,0.14,0.32
2022-11-11 12:38:47.5810,-0.28,0.08,0.23,0.37
2022-11-11 12:38:47.5910,-0.19,0.07,0.29,0.35
2022-11-11 12:38:47.6010,-0.07,0.01,0.09,0.11
2022-11-11 12:38:47.6110,0.06,-0.08,-0.14,0.17
2022-11-11 12:38:47.6210,0.23,-0.11,-0.15,0.29
2022-11-11 12:38:47.6310,0.39,-0.1,-0.15,0.42
2022-11-11 12:38:47.6640,0.48,-0.11,-0.1,0.5
2022-11-11 12:38:47.6650,0.35,-0.05,-0.05,0.35
2022-11-11 12:38:47.6670,0.16,-0.01,0.08,0.17
2022-11-11 12:38:47.6840,0.01,0.03,0.25,0.25
2022-11-11 12:38:47.6850,-0.05,0.02,0.25,0.25
2022-11-11 12:38:47.6910,0.01,-0.05,0.14,0.14
2022-11-11 12:38:47.7010,0.17,-0.11,0.16,0.25
2022-11-11 12:38:47.7100,0.36,-0.11,0.13,0.39
2022-11-11 12:38:47.7200,0.55,-0.11,-0.14,0.57
2022-11-11 12:38:47.7300,0.6,-0.13,-0.37,0.71
2022-11-11 12:38:47.7610,0.45,-0.09,-0.31,0.55
2022-11-11 12:38:47.7620,0.16,0.0,-0.3,0.34
2022-11-11 12:38:47.7640,0.05,0.01,-0.15,0.15
2022-11-11 12:38:47.7830,0.08,0.0,0.04,0.08
2022-11-11 12:38:47.7840,0.05,-0.05,0.07,0.09
2022-11-11 12:38:47.7900,0.08,-0.05,0.15,0.17
2022-11-11 12:38:47.8000,0.19,0.02,0.12,0.22
2022-11-11 12:38:47.8100,0.29,0.07,-0.01,0.29
2022-11-11 12:38:47.8200,0.37,0.08,0.13,0.4
2022-11-11 12:38:47.8300,0.15,0.14,0.14,0.24
2022-11-11 12:38:47.8590,-0.11,0.15,-0.01,0.18
2022-11-11 12:38:47.8610,-0.04,0.08,-0.21,0.22
2022-11-11 12:38:47.8620,0.18,-0.08,-0.39,0.43
2022-11-11 12:38:47.8690,0.34,-0.27,-0.48,0.64
2022-11-11 12:38:47.8790,0.26,-0.26,-0.21,0.42
2022-11-11 12:38:47.8890,-0.09,0.03,0.1,0.13
2022-11-11 12:38:47.8990,-0.57,0.26,0.14,0.64
2022-11-11 12:38:47.9090,-0.87,0.37,0.11,0.95
2022-11-11 12:38:47.9190,-0.79,0.36,0.01,0.86
2022-11-11 12:38:47.9290,-0.43,0.27,-0.01,0.5
2022-11-11 12:38:47.9580,-0.02,0.14,-0.13,0.19
2022-11-11 12:38:47.9590,0.26,-0.04,-0.19,0.32
2022-11-11 12:38:47.9610,0.44,-0.16,-0.02,0.46
2022-11-11 12:38:47.9690,0.42,-0.17,-0.05,0.45
2022-11-11 12:38:47.9780,0.37,-0.15,-0.18,0.43
2022-11-11 12:38:47.9880,0.29,-0.09,-0.06,0.3
2022-11-11 12:38:47.9990,0.16,0.06,0.13,0.21
2022-11-11 12:38:48.0080,0.13,0.14,0.05,0.19
2022-11-11 12:38:48.0190,0.29,0.01,-0.05,0.29
2022-11-11 12:38:48.0290,0.5,-0.18,-0.35,0.63
2022-11-11 12:38:48.0380,0.62,-0.33,-0.5,0.86
2022-11-11 12:38:48.0640,0.69,-0.26,-0.41,0.84
2022-11-11 12:38:48.0660,0.5,-0.16,-0.17,0.55
2022-11-11 12:38:48.0680,0.05,-0.05,0.06,0.09
2022-11-11 12:38:48.0830,-0.39,0.11,0.2,0.45
2022-11-11 12:38:48.0880,-0.48,0.28,0.27,0.61
2022-11-11 12:38:48.0980,-0.22,0.39,0.38,0.58
2022-11-11 12:38:48.1080,0.23,0.38,0.15,0.46
2022-11-11 12:38:48.1180,0.65,0.14,-0.27,0.71
2022-11-11 12:38:48.1280,0.82,-0.18,-0.44,0.94
2022-11-11 12:38:48.1380,0.67,-0.24,-0.29,0.76
2022-11-11 12:38:48.1630,0.27,-0.12,-0.09,0.3
2022-11-11 12:38:48.1650,-0.22,-0.1,-0.01,0.24
2022-11-11 12:38:48.1670,-0.56,-0.12,0.08,0.57
2022-11-11 12:38:48.1820,-0.58,-0.06,0.32,0.66
2022-11-11 12:38:48.1870,-0.35,0.07,0.49,0.6
2022-11-11 12:38:48.1970,0.01,0.22,0.36,0.42
2022-11-11 12:38:48.2070,0.34,0.3,0.04,0.45
2022-11-11 12:38:48.2170,0.52,0.18,-0.25,0.6
2022-11-11 12:38:48.2270,0.61,0.03,-0.22,0.64
2022-11-11 12:38:48.2370,0.53,-0.01,-0.42,0.67
2022-11-11 12:38:48.2620,0.35,-0.15,-0.54,0.66
2022-11-11 12:38:48.2640,0.04,-0.2,-0.55,0.58
2022-11-11 12:38:48.2660,-0.18,-0.17,-0.58,0.63
2022-11-11 12:38:48.2810,-0.3,-0.04,-0.38,0.48
2022-11-11 12:38:48.2870,-0.35,0.14,-0.19,0.42
2022-11-11 12:38:48.2970,-0.42,0.03,-0.06,0.42
2022-11-11 12:38:48.3070,-0.52,-0.06,0.35,0.62
2022-11-11 12:38:48.3170,-0.6,0.15,0.58,0.84
2022-11-11 12:38:48.3260,-0.48,0.39,0.53,0.81
2022-11-11 12:38:48.3360,-0.19,0.36,0.02,0.4
2022-11-11 12:38:48.3630,0.43,0.28,-0.51,0.72
2022-11-11 12:38:48.3650,0.83,0.03,-0.94,1.25
2022-11-11 12:38:48.3660,0.76,-0.2,-0.88,1.17
2022-11-11 12:38:48.3810,0.56,-0.26,-0.56,0.83
2022-11-11 12:38:48.3860,0.31,-0.27,-0.3,0.5
2022-11-11 12:38:48.3960,-0.06,-0.28,-0.31,0.42
2022-11-11 12:38:48.4060,-0.48,-0.37,-0.15,0.62
2022-11-11 12:38:48.4160,-0.67,-0.34,0.55,0.93
2022-11-11 12:38:48.4260,-0.63,0.02,1.02,1.19
2022-11-11 12:38:48.4360,-0.49,0.39,0.86,1.06
2022-11-11 12:38:48.4670,-0.24,0.5,0.26,0.61
2022-11-11 12:38:48.4690,0.27,0.44,-0.27,0.58
2022-11-11 12:38:48.4700,0.7,0.21,-0.83,1.1
2022-11-11 12:38:48.4810,0.69,-0.14,-0.62,0.93
2022-11-11 12:38:48.4850,0.17,-0.23,-0.07,0.29
2022-11-11 12:38:48.4960,-0.39,-0.21,0.28,0.52
2022-11-11 12:38:48.5050,-0.63,-0.11,0.47,0.79
2022-11-11 12:38:48.5150,-0.53,0.04,0.21,0.57
2022-11-11 12:38:48.5250,-0.07,0.13,-0.06,0.15
2022-11-11 12:38:48.5350,0.34,0.08,-0.38,0.51
2022-11-11 12:38:48.5650,0.57,-0.05,-0.38,0.68
2022-11-11 12:38:48.5670,0.38,-0.03,-0.03,0.38
2022-11-11 12:38:48.5680,-0.26,0.13,0.09,0.3
2022-11-11 12:38:48.5820,-0.61,0.23,0.16,0.67
2022-11-11 12:38:48.5840,-0.41,0.16,0.12,0.45
2022-11-11 12:38:48.5950,-0.02,-0.07,-0.24,0.25
2022-11-11 12:38:48.6050,0.45,-0.1,-0.39,0.6
2022-11-11 12:38:48.6150,0.82,0.07,-0.54,0.98
2022-11-11 12:38:48.6240,0.78,0.09,-0.65,1.01
2022-11-11 12:38:48.6350,0.39,0.09,-0.54,0.67
2022-11-11 12:38:48.6640,0.01,0.13,-0.42,0.43
2022-11-11 12:38:48.6660,-0.26,0.08,-0.39,0.47
2022-11-11 12:38:48.6680,-0.28,-0.09,-0.23,0.37
2022-11-11 12:38:48.6810,-0.21,-0.2,0.11,0.31
2022-11-11 12:38:48.6840,-0.23,-0.11,0.41,0.48
2022-11-11 12:38:48.6940,-0.23,0.03,0.4,0.46
2022-11-11 12:38:48.7040,-0.22,0.13,0.28,0.37
2022-11-11 12:38:48.7140,-0.29,0.23,0.14,0.39
2022-11-11 12:38:48.7240,-0.27,0.27,-0.02,0.38
2022-11-11 12:38:48.7340,-0.23,0.25,-0.26,0.42
2022-11-11 12:38:48.7640,-0.16,0.09,-0.41,0.44
2022-11-11 12:38:48.7660,0.08,-0.09,-0.3,0.32
2022-11-11 12:38:48.7680,0.28,-0.15,-0.24,0.39
2022-11-11 12:38:48.7730,0.27,-0.06,-0.3,0.4
2022-11-11 12:38:48.7830,0.15,0.08,-0.37,0.4
2022-11-11 12:38:48.7930,0.18,0.17,-0.56,0.61
2022-11-11 12:38:48.8030,0.27,-0.05,-0.55,0.61
2022-11-11 12:38:48.8130,0.09,-0.24,-0.02,0.25
2022-11-11 12:38:48.8230,-0.32,-0.08,0.25,0.41
2022-11-11 12:38:48.8330,-0.42,0.09,0.22,0.48
2022-11-11 12:38:48.8430,-0.26,0.21,0.13,0.35
2022-11-11 12:38:48.8690,-0.11,0.25,-0.13,0.3
2022-11-11 12:38:48.8710,0.01,0.11,-0.31,0.32
2022-11-11 12:38:48.8720,-0.03,-0.02,-0.13,0.13
2022-11-11 12:38:48.8830,-0.22,0.0,-0.07,0.23
2022-11-11 12:38:48.8930,-0.11,0.05,0.02,0.12
2022-11-11 12:38:48.9030,0.16,0.15,-0.14,0.26
2022-11-11 12:38:48.9130,0.31,0.14,-0.42,0.54
2022-11-11 12:38:48.9230,0.37,-0.08,-0.56,0.67
2022-11-11 12:38:48.9330,0.18,-0.24,-0.33,0.44
2022-11-11 12:38:48.9430,-0.11,-0.16,-0.03,0.19
2022-11-11 12:38:48.9690,-0.23,0.04,0.12,0.26
2022-11-11 12:38:48.9700,-0.18,0.19,0.12,0.28
2022-11-11 12:38:48.9720,-0.08,0.2,-0.05,0.22
2022-11-11 12:38:48.9820,0.04,0.14,-0.23,0.27
2022-11-11 12:38:48.9920,0.1,0.02,-0.24,0.26
2022-11-11 12:38:49.0020,0.01,-0.06,-0.15,0.16
2022-11-11 12:38:49.0120,-0.11,-0.06,0.13,0.18
2022-11-11 12:38:49.0220,-0.14,0.09,0.43,0.46
2022-11-11 12:38:49.0320,-0.19,0.25,0.25,0.4
2022-11-11 12:38:49.0420,-0.07,0.1,0.02,0.12
2022-11-11 12:38:49.0670,0.03,-0.08,-0.1,0.13
2022-11-11 12:38:49.0690,0.03,-0.05,-0.28,0.28
2022-11-11 12:38:49.0710,0.15,0.01,-0.49,0.51
2022-11-11 12:38:49.0810,0.25,-0.02,-0.75,0.79
2022-11-11 12:38:49.0910,0.31,-0.16,-0.63,0.72
2022-11-11 12:38:49.1020,0.18,-0.18,-0.12,0.28
2022-11-11 12:38:49.1110,-0.15,0.02,0.37,0.39
2022-11-11 12:38:49.1210,-0.36,0.26,0.48,0.65
2022-11-11 12:38:49.1310,-0.27,0.33,0.19,0.46
2022-11-11 12:38:49.1410,0.04,0.18,-0.17,0.25
2022-11-11 12:38:49.1680,0.26,0.0,-0.44,0.51
2022-11-11 12:38:49.1700,0.33,-0.06,-0.49,0.59
2022-11-11 12:38:49.1710,0.24,-0.08,-0.48,0.54
2022-11-11 12:38:49.1810,0.1,-0.17,-0.3,0.35
2022-11-11 12:38:49.1910,-0.03,-0.16,0.21,0.26
2022-11-11 12:38:49.2010,-0.29,0.06,0.49,0.57
2022-11-11 12:38:49.2110,-0.31,0.24,0.47,0.61
2022-11-11 12:38:49.2210,-0.02,0.24,0.16,0.28
2022-11-11 12:38:49.2310,0.28,0.1,-0.16,0.33
2022-11-11 12:38:49.2400,0.41,0.01,-0.44,0.6
2022-11-11 12:38:49.2720,0.35,0.03,-0.55,0.65
2022-11-11 12:38:49.2740,0.24,0.03,-0.5,0.55
2022-11-11 12:38:49.2750,0.03,-0.09,-0.27,0.28
2022-11-11 12:38:49.2800,-0.18,-0.18,0.21,0.33
2022-11-11 12:38:49.2900,-0.36,-0.06,0.52,0.63
2022-11-11 12:38:49.3000,-0.3,0.16,0.46,0.57
2022-11-11 12:38:49.3100,-0.03,0.22,0.14,0.26
2022-11-11 12:38:49.3200,0.28,0.14,-0.19,0.36
2022-11-11 12:38:49.3300,0.5,0.03,-0.42,0.65
2022-11-11 12:38:49.3400,0.5,-0.05,-0.57,0.75
2022-11-11 12:38:49.3690,0.28,-0.1,-0.49,0.57
2022-11-11 12:38:49.3710,0.1,-0.1,-0.1,0.17
2022-11-11 12:38:49.3720,-0.15,-0.04,0.25,0.29
2022-11-11 12:38:49.3790,-0.4,0.02,0.35,0.53
2022-11-11 12:38:49.3890,-0.35,0.09,0.29,0.46
2022-11-11 12:38:49.4000,-0.07,0.14,0.03,0.15
2022-11-11 12:38:49.4090,0.21,0.09,-0.16,0.27
2022-11-11 12:38:49.4190,0.32,0.0,-0.34,0.46
2022-11-11 12:38:49.4300,0.28,-0.06,-0.42,0.5
2022-11-11 12:38:49.4390,0.18,-0.09,-0.15,0.25
2022-11-11 12:38:49.4710,-0.08,-0.02,0.13,0.15
2022-11-11 12:38:49.4720,-0.23,0.09,0.21,0.32
2022-11-11 12:38:49.4740,-0.09,0.12,0.17,0.22
2022-11-11 12:38:49.4790,0.13,0.11,-0.04,0.17
2022-11-11 12:38:49.4890,0.22,0.0,-0.26,0.34
2022-11-11 12:38:49.4990,0.1,-0.13,-0.36,0.39
2022-11-11 12:38:49.5090,0.01,-0.06,-0.25,0.25
2022-11-11 12:38:49.5190,0.1,0.01,-0.19,0.21
2022-11-11 12:38:49.5290,0.14,0.0,-0.05,0.14
2022-11-11 12:38:49.5390,-0.11,0.09,0.12,0.18
2022-11-11 12:38:49.5700,-0.25,0.17,0.13,0.32
2022-11-11 12:38:49.5720,-0.05,0.17,0.05,0.18
2022-11-11 12:38:49.5730,0.15,0.05,-0.17,0.23
2022-11-11 12:38:49.5780,0.19,-0.09,-0.19,0.28
2022-11-11 12:38:49.5880,0.11,-0.13,-0.14,0.22
2022-11-11 12:38:49.5980,-0.03,-0.13,-0.2,0.24
2022-11-11 12:38:49.6080,0.05,-0.08,-0.31,0.32
2022-11-11 12:38:49.6180,0.12,-0.1,-0.38,0.41
2022-11-11 12:38:49.6280,0.07,-0.11,-0.07,0.14
2022-11-11 12:38:49.6380,-0.14,0.07,0.2,0.25
2022-11-11 12:38:49.6480,-0.31,0.21,0.19,0.41
2022-11-11 12:38:49.6740,-0.17,0.14,0.06,0.22
2022-11-11 12:38:49.6760,0.12,0.04,-0.11,0.16
2022-11-11 12:38:49.6770,0.29,0.02,-0.27,0.39
2022-11-11 12:38:49.6960,0.28,0.06,-0.3,0.41
2022-11-11 12:38:49.6970,0.17,0.1,-0.22,0.29
2022-11-11 12:38:49.7070,0.05,0.1,-0.22,0.24
2022-11-11 12:38:49.7180,0.03,-0.01,-0.27,0.27
2022-11-11 12:38:49.7280,-0.07,-0.08,-0.32,0.33
2022-11-11 12:38:49.7370,-0.16,-0.12,-0.14,0.24
2022-11-11 12:38:49.7470,-0.2,-0.04,0.1,0.22
2022-11-11 12:38:49.7720,-0.19,0.08,0.2,0.28
2022-11-11 12:38:49.7740,-0.15,0.15,0.07,0.22
2022-11-11 12:38:49.7770,0.0,0.15,-0.08,0.17
2022-11-11 12:38:49.7870,0.05,0.13,-0.18,0.22
2022-11-11 12:38:49.7970,-0.12,0.1,-0.29,0.32
2022-11-11 12:38:49.8070,-0.21,0.05,-0.17,0.27
2022-11-11 12:38:49.8170,-0.16,0.07,-0.14,0.22
2022-11-11 12:38:49.8270,-0.09,0.12,-0.17,0.22
2022-11-11 12:38:49.8370,-0.02,0.15,-0.19,0.24
2022-11-11 12:38:49.8470,-0.08,0.17,-0.16,0.24
2022-11-11 12:38:49.8740,-0.26,0.12,-0.04,0.28
2022-11-11 12:38:49.8760,-0.49,0.04,0.01,0.49
2022-11-11 12:38:49.8770,-0.58,-0.03,0.04,0.58
2022-11-11 12:38:49.8960,-0.51,-0.04,0.0,0.51
2022-11-11 12:38:49.8970,-0.35,0.01,-0.06,0.35
2022-11-11 12:38:49.9060,-0.2,0.07,-0.23,0.31
2022-11-11 12:38:49.9160,-0.15,0.09,-0.37,0.4
2022-11-11 12:38:49.9260,-0.17,0.07,-0.38,0.42
2022-11-11 12:38:49.9360,-0.05,-0.07,-0.27,0.28
2022-11-11 12:38:49.9460,0.19,-0.18,0.0,0.26
2022-11-11 12:38:49.9720,0.31,-0.21,0.11,0.39
2022-11-11 12:38:49.9740,0.35,-0.16,0.09,0.39
2022-11-11 12:38:49.9760,0.47,-0.07,0.03,0.47
2022-11-11 12:38:49.9860,0.48,-0.11,-0.23,0.54
2022-11-11 12:38:49.9960,0.43,-0.17,-0.32,0.56
2022-11-11 12:38:50.0050,0.41,-0.09,-0.12,0.43
2022-11-11 12:38:50.0150,0.3,0.05,-0.03,0.3
2022-11-11 12:38:50.0260,0.17,0.06,-0.06,0.19
2022-11-11 12:38:50.0360,0.15,0.01,-0.01,0.15
2022-11-11 12:38:50.0460,0.25,0.01,-0.05,0.25
2022-11-11 12:38:50.0770,0.43,-0.03,-0.11,0.44
2022-11-11 12:38:50.0780,0.49,-0.11,-0.27,0.57
2022-11-11 12:38:50.0800,0.41,-0.2,-0.25,0.52
2022-11-11 12:38:50.0960,0.26,-0.24,-0.11,0.37
2022-11-11 12:38:50.0970,0.08,-0.13,-0.02,0.15
2022-11-11 12:38:50.1050,0.06,0.03,0.21,0.22
2022-11-11 12:38:50.1150,-0.01,0.13,0.05,0.13
2022-11-11 12:38:50.1260,-0.09,0.15,-0.12,0.21
2022-11-11 12:38:50.1350,0.03,0.22,-0.13,0.25
2022-11-11 12:38:50.1450,0.11,0.21,-0.22,0.32
2022-11-11 12:38:50.1750,0.23,0.03,-0.12,0.26
2022-11-11 12:38:50.1760,0.14,-0.26,-0.17,0.34
2022-11-11 12:38:50.1780,-0.3,-0.33,-0.22,0.49
2022-11-11 12:38:50.1950,-0.66,-0.03,-0.05,0.66
2022-11-11 12:38:50.1960,-0.55,0.33,0.1,0.64
2022-11-11 12:38:50.2040,-0.26,0.42,0.01,0.49
2022-11-11 12:38:50.2140,0.0,0.19,-0.16,0.24
2022-11-11 12:38:50.2240,0.25,-0.07,-0.17,0.31
2022-11-11 12:38:50.2340,0.17,-0.1,-0.03,0.19
2022-11-11 12:38:50.2440,-0.19,-0.01,0.0,0.19
2022-11-11 12:38:50.2740,-0.19,0.04,0.1,0.21
2022-11-11 12:38:50.2750,0.14,0.11,-0.01,0.17
2022-11-11 12:38:50.2760,0.42,0.15,-0.32,0.54
2022-11-11 12:38:50.2840,0.49,0.08,-0.45,0.67
2022-11-11 12:38:50.2940,0.38,0.1,-0.29,0.48
2022-11-11 12:38:50.3040,0.14,0.13,-0.09,0.21
2022-11-11 12:38:50.3140,-0.15,0.04,-0.15,0.21
2022-11-11 12:38:50.3230,-0.25,-0.04,-0.11,0.27
2022-11-11 12:38:50.3340,-0.1,-0.08,0.0,0.12
2022-11-11 12:38:50.3440,0.07,-0.1,0.01,0.12
2022-11-11 12:38:50.3740,0.16,-0.05,-0.04,0.17
2022-11-11 12:38:50.3750,0.19,0.07,-0.06,0.21
2022-11-11 12:38:50.3770,0.19,0.17,-0.11,0.27
2022-11-11 12:38:50.3930,0.13,0.12,-0.18,0.25
2022-11-11 12:38:50.3950,0.08,0.0,-0.05,0.09
2022-11-11 12:38:50.4030,0.2,-0.1,0.22,0.31
2022-11-11 12:38:50.4130,0.11,-0.14,0.13,0.22
2022-11-11 12:38:50.4230,-0.3,-0.11,-0.09,0.33
2022-11-11 12:38:50.4330,-0.32,0.01,0.11,0.33
2022-11-11 12:38:50.4430,0.05,0.18,0.41,0.45
2022-11-11 12:38:50.4530,0.09,0.28,0.08,0.3
2022-11-11 12:38:50.4790,-0.16,0.29,-0.36,0.48
2022-11-11 12:38:50.4810,-0.14,0.23,-0.34,0.43
2022-11-11 12:38:50.4830,0.08,0.06,-0.29,0.3
2022-11-11 12:38:50.4930,0.27,-0.16,-0.32,0.44
2022-11-11 12:38:50.5020,0.26,-0.19,-0.28,0.42
2022-11-11 12:38:50.5120,-0.08,-0.06,-0.26,0.27
2022-11-11 12:38:50.5220,-0.15,0.11,-0.07,0.19
2022-11-11 12:38:50.5320,0.15,0.17,0.06,0.23
2022-11-11 12:38:50.5420,0.26,0.15,0.16,0.34
2022-11-11 12:38:50.5520,0.27,0.02,0.25,0.36
2022-11-11 12:38:50.5790,0.15,-0.17,0.31,0.38
2022-11-11 12:38:50.5800,0.06,-0.21,0.42,0.47
2022-11-11 12:38:50.5820,0.11,-0.08,0.47,0.48
2022-11-11 12:38:50.5940,-0.06,0.0,0.19,0.19
2022-11-11 12:38:50.6020,-0.28,-0.03,-0.3,0.41
2022-11-11 12:38:50.6120,-0.28,0.1,-0.52,0.59
2022-11-11 12:38:50.6220,-0.21,0.3,-0.21,0.42
2022-11-11 12:38:50.6320,-0.47,0.34,0.06,0.58
2022-11-11 12:38:50.6420,-0.86,0.17,0.15,0.88
2022-11-11 12:38:50.6520,-0.8,-0.05,0.33,0.86
2022-11-11 12:38:50.6780,-0.3,-0.16,0.37,0.5
2022-11-11 12:38:50.6790,0.34,-0.16,0.15,0.4
2022-11-11 12:38:50.6810,0.88,-0.05,-0.15,0.89
2022-11-11 12:38:50.6930,1.03,0.05,-0.32,1.07
2022-11-11 12:38:50.7010,0.56,0.02,-0.5,0.75
2022-11-11 12:38:50.7110,-0.13,-0.02,-0.72,0.73
2022-11-11 12:38:50.7210,-0.45,0.07,-0.31,0.55
2022-11-11 12:38:50.7310,-0.55,0.17,0.25,0.62
2022-11-11 12:38:50.7410,-0.63,0.1,0.34,0.72
2022-11-11 12:38:50.7510,-0.39,-0.14,0.24,0.47
2022-11-11 12:38:50.7770,0.07,-0.3,0.19,0.36
2022-11-11 12:38:50.7780,0.42,-0.23,0.08,0.48
2022-11-11 12:38:50.7800,0.69,-0.02,0.0,0.69
2022-11-11 12:38:50.7930,0.76,0.19,-0.03,0.78
2022-11-11 12:38:50.8010,0.61,0.24,-0.36,0.74
2022-11-11 12:38:50.8110,0.3,0.19,-0.41,0.54
2022-11-11 12:38:50.8200,0.05,0.09,-0.16,0.19
2022-11-11 12:38:50.8310,-0.11,-0.02,0.07,0.13
2022-11-11 12:38:50.8400,-0.17,-0.1,0.24,0.31
2022-11-11 12:38:50.8500,-0.2,-0.18,0.26,0.37
2022-11-11 12:38:50.8820,-0.28,-0.23,0.18,0.4
2022-11-11 12:38:50.8840,-0.21,-0.16,0.03,0.26
2022-11-11 12:38:50.8850,-0.01,-0.04,-0.13,0.13
2022-11-11 12:38:50.8900,0.2,0.0,-0.28,0.34
2022-11-11 12:38:50.9000,0.26,-0.01,-0.27,0.37
2022-11-11 12:38:50.9100,0.13,0.03,-0.08,0.15
2022-11-11 12:38:50.9190,-0.02,0.09,0.04,0.1
2022-11-11 12:38:50.9300,0.01,0.06,0.04,0.07
2022-11-11 12:38:50.9400,0.14,0.0,0.03,0.14
2022-11-11 12:38:50.9500,0.15,0.04,-0.02,0.15
2022-11-11 12:38:50.9820,0.09,0.14,-0.1,0.19
2022-11-11 12:38:50.9840,0.08,0.19,-0.08,0.22
2022-11-11 12:38:50.9850,-0.11,0.11,-0.01,0.15
2022-11-11 12:38:50.9910,-0.41,-0.02,0.05,0.41
2022-11-11 12:38:51.0070,-0.54,-0.04,0.06,0.54
2022-11-11 12:38:51.0090,-0.4,0.0,0.01,0.4
2022-11-11 12:38:51.0190,-0.11,0.01,-0.2,0.22
2022-11-11 12:38:51.0290,0.07,0.02,-0.37,0.37
2022-11-11 12:38:51.0390,0.15,0.1,-0.36,0.4
2022-11-11 12:38:51.0490,0.19,0.14,-0.27,0.35
2022-11-11 12:38:51.0800,0.15,0.12,-0.19,0.27
2022-11-11 12:38:51.0820,0.12,0.07,-0.1,0.17
2022-11-11 12:38:51.0830,0.12,0.02,-0.04,0.12
2022-11-11 12:38:51.0920,0.12,-0.07,0.02,0.14
2022-11-11 12:38:51.0990,0.13,-0.13,0.05,0.19
2022-11-11 12:38:51.1080,0.21,-0.17,-0.02,0.27
2022-11-11 12:38:51.1180,0.32,-0.18,-0.18,0.4
2022-11-11 12:38:51.1290,0.29,-0.11,-0.29,0.42
2022-11-11 12:38:51.1390,0.21,0.03,-0.22,0.3
2022-11-11 12:38:51.1480,0.11,0.16,-0.09,0.21
2022-11-11 12:38:51.1800,0.03,0.18,-0.02,0.18
2022-11-11 12:38:51.1820,-0.04,0.1,-0.06,0.12
2022-11-11 12:38:51.1830,-0.07,0.03,-0.03,0.08
2022-11-11 12:38:51.1930,-0.08,0.01,0.0,0.08
2022-11-11 12:38:51.1980,-0.07,0.02,-0.02,0.07
2022-11-11 12:38:51.2080,0.02,-0.03,-0.04,0.05
2022-11-11 12:38:51.2180,0.14,-0.06,-0.07,0.16
2022-11-11 12:38:51.2280,0.17,-0.05,-0.09,0.19
2022-11-11 12:38:51.2380,0.15,-0.03,-0.11,0.18
2022-11-11 12:38:51.2480,0.1,0.01,-0.13,0.16
2022-11-11 12:38:51.2580,-0.03,0.08,-0.07,0.11
2022-11-11 12:38:51.2840,-0.15,0.11,0.1,0.21
2022-11-11 12:38:51.2860,-0.19,0.08,0.18,0.27
2022-11-11 12:38:51.2870,-0.1,0.0,0.09,0.13
2022-11-11 12:38:51.2970,0.06,-0.06,-0.02,0.08
2022-11-11 12:38:51.3070,0.2,-0.09,-0.09,0.23
2022-11-11 12:38:51.3170,0.24,-0.08,-0.06,0.26
2022-11-11 12:38:51.3270,0.21,-0.1,0.01,0.23
2022-11-11 12:38:51.3370,0.18,-0.1,-0.01,0.2
2022-11-11 12:38:51.3470,0.14,-0.06,-0.14,0.2
2022-11-11 12:38:51.3570,0.1,0.02,-0.21,0.23
2022-11-11 12:38:51.3830,0.04,0.08,-0.11,0.14
2022-11-11 12:38:51.3850,-0.01,0.04,0.07,0.08
2022-11-11 12:38:51.3860,-0.06,-0.02,0.05,0.08
2022-11-11 12:38:51.3970,-0.02,-0.02,-0.04,0.04
2022-11-11 12:38:51.4070,0.14,-0.01,-0.11,0.17
2022-11-11 12:38:51.4160,0.25,0.0,-0.11,0.27
2022-11-11 12:38:51.4260,0.22,0.0,-0.16,0.27
2022-11-11 12:38:51.4370,0.1,0.0,-0.21,0.23
2022-11-11 12:38:51.4460,0.04,0.0,-0.19,0.19
2022-11-11 12:38:51.4560,0.05,0.0,-0.18,0.18
2022-11-11 12:38:51.4830,0.06,-0.01,-0.17,0.18
2022-11-11 12:38:51.4850,0.01,-0.02,-0.17,0.17
2022-11-11 12:38:51.4860,-0.14,-0.05,-0.05,0.15
2022-11-11 12:38:51.4960,-0.2,-0.05,0.07,0.21
2022-11-11 12:38:51.5060,-0.15,0.01,-0.01,0.15
2022-11-11 12:38:51.5160,-0.01,0.07,-0.15,0.16
2022-11-11 12:38:51.5260,0.1,0.1,-0.23,0.27
2022-11-11 12:38:51.5360,0.12,0.08,-0.21,0.25
2022-11-11 12:38:51.5460,0.12,0.06,-0.08,0.15
2022-11-11 12:38:51.5560,0.08,0.05,-0.01,0.09
2022-11-11 12:38:51.5840,-0.07,0.1,-0.12,0.17
2022-11-11 12:38:51.5850,-0.28,0.15,-0.11,0.33
2022-11-11 12:38:51.5870,-0.42,0.17,0.01,0.45
2022-11-11 12:38:51.5960,-0.49,0.12,0.05,0.5
2022-11-11 12:38:51.6050,-0.44,0.04,0.04,0.44
2022-11-11 12:38:51.6150,-0.27,0.01,0.06,0.27
2022-11-11 12:38:51.6250,-0.06,-0.02,0.06,0.08
2022-11-11 12:38:51.6350,0.12,-0.05,-0.06,0.14
2022-11-11 12:38:51.6450,0.24,-0.02,-0.17,0.29
2022-11-11 12:38:51.6550,0.13,0.07,-0.2,0.24
2022-11-11 12:38:51.6880,-0.12,0.13,-0.12,0.21
2022-11-11 12:38:51.6900,-0.23,0.09,-0.01,0.24
2022-11-11 12:38:51.6910,-0.27,0.0,0.04,0.27
2022-11-11 12:38:51.7080,-0.25,-0.07,0.03,0.26
2022-11-11 12:38:51.7100,-0.16,-0.1,0.01,0.18
2022-11-11 12:38:51.7140,0.0,-0.08,0.02,0.08
2022-11-11 12:38:51.7250,0.11,-0.02,-0.06,0.12
2022-11-11 12:38:51.7340,0.14,0.09,-0.17,0.23
2022-11-11 12:38:51.7450,0.19,0.15,-0.17,0.29
2022-11-11 12:38:51.7550,0.2,0.15,-0.07,0.25
2022-11-11 12:38:51.7870,0.15,0.06,0.02,0.16
2022-11-11 12:38:51.7880,0.13,-0.07,0.02,0.14
2022-11-11 12:38:51.7900,0.2,-0.1,-0.04,0.22
2022-11-11 12:38:51.8080,0.35,-0.02,-0.15,0.38
2022-11-11 12:38:51.8090,0.31,0.07,-0.24,0.39
2022-11-11 12:38:51.8140,0.13,0.08,-0.16,0.22
2022-11-11 12:38:51.8240,-0.1,0.05,-0.09,0.14
2022-11-11 12:38:51.8340,-0.2,0.0,-0.04,0.2
2022-11-11 12:38:51.8440,-0.13,-0.04,0.0,0.13
2022-11-11 12:38:51.8540,0.02,0.01,0.06,0.06
2022-11-11 12:38:51.8860,0.1,0.01,0.09,0.13
2022-11-11 12:38:51.8880,0.12,-0.01,0.08,0.14
2022-11-11 12:38:51.8890,0.14,0.0,-0.02,0.14
2022-11-11 12:38:51.9070,0.18,0.02,-0.14,0.22
2022-11-11 12:38:51.9090,0.23,0.03,-0.19,0.29
2022-11-11 12:38:51.9130,0.2,0.01,-0.19,0.27
2022-11-11 12:38:51.9230,0.09,-0.04,-0.12,0.15
2022-11-11 12:38:51.9330,-0.07,-0.02,0.0,0.07
2022-11-11 12:38:51.9440,-0.26,0.09,0.02,0.27
2022-11-11 12:38:51.9530,-0.36,0.21,-0.03,0.41
2022-11-11 12:38:51.9860,-0.29,0.23,-0.07,0.37
2022-11-11 12:38:51.9880,-0.22,0.14,-0.17,0.31
2022-11-11 12:38:51.9890,-0.17,-0.01,-0.14,0.22
2022-11-11 12:38:52.0070,-0.12,-0.1,-0.03,0.15
2022-11-11 12:38:52.0080,-0.12,-0.07,-0.03,0.14
2022-11-11 12:38:52.0130,-0.05,-0.03,-0.1,0.11
2022-11-11 12:38:52.0230,0.09,-0.01,-0.1,0.13
2022-11-11 12:38:52.0330,0.17,0.01,-0.1,0.19
2022-11-11 12:38:52.0430,0.14,0.06,-0.16,0.22
2022-11-11 12:38:52.0530,0.08,0.08,-0.1,0.15
2022-11-11 12:38:52.0630,-0.02,0.07,0.02,0.07
2022-11-11 12:38:52.0890,-0.11,0.07,-0.01,0.13
2022-11-11 12:38:52.0910,-0.08,0.05,-0.06,0.11
2022-11-11 12:38:52.0920,-0.04,0.06,-0.12,0.13
2022-11-11 12:38:52.1080,-0.07,0.06,-0.16,0.18
2022-11-11 12:38:52.1120,-0.09,0.02,-0.17,0.19
2022-11-11 12:38:52.1220,-0.05,0.02,-0.14,0.15
2022-11-11 12:38:52.1320,-0.04,0.06,-0.16,0.17
2022-11-11 12:38:52.1420,0.0,0.05,-0.11,0.12
2022-11-11 12:38:52.1520,0.19,0.04,-0.04,0.19
2022-11-11 12:38:52.1620,0.34,-0.02,-0.18,0.38
2022-11-11 12:38:52.1890,0.31,-0.08,-0.24,0.4
2022-11-11 12:38:52.1900,0.13,-0.07,-0.14,0.2
2022-11-11 12:38:52.1920,-0.07,-0.04,-0.08,0.11
2022-11-11 12:38:52.2070,-0.1,-0.01,0.0,0.1
2022-11-11 12:38:52.2110,0.03,0.03,0.03,0.05
2022-11-11 12:38:52.2210,0.18,0.07,-0.09,0.21
2022-11-11 12:38:52.2310,0.23,0.06,-0.16,0.28
2022-11-11 12:38:52.2420,0.25,-0.02,-0.15,0.29
2022-11-11 12:38:52.2510,0.22,-0.07,-0.07,0.24
2022-11-11 12:38:52.2610,0.13,-0.03,-0.06,0.14
2022-11-11 12:38:52.2890,0.03,0.04,-0.05,0.07
2022-11-11 12:38:52.2900,-0.01,0.12,-0.04,0.12
2022-11-11 12:38:52.2920,0.0,0.16,-0.03,0.16
2022-11-11 12:38:52.3070,-0.03,0.09,-0.05,0.1
2022-11-11 12:38:52.3110,-0.05,-0.04,-0.04,0.07
2022-11-11 12:38:52.3210,-0.07,-0.07,-0.08,0.12
2022-11-11 12:38:52.3310,-0.05,-0.05,-0.12,0.13
2022-11-11 12:38:52.3410,-0.01,-0.01,-0.14,0.14
2022-11-11 12:38:52.3510,0.03,0.0,-0.17,0.17
2022-11-11 12:38:52.3610,0.03,0.02,-0.11,0.11
2022-11-11 12:38:52.3870,-0.04,0.04,-0.06,0.08
2022-11-11 12:38:52.3890,-0.1,0.04,-0.02,0.1
2022-11-11 12:38:52.3900,-0.07,0.01,0.05,0.08
2022-11-11 12:38:52.4070,-0.02,-0.01,-0.03,0.03
2022-11-11 12:38:52.4100,0.02,0.02,-0.11,0.11
2022-11-11 12:38:52.4200,0.03,0.06,-0.13,0.14
2022-11-11 12:38:52.4300,0.03,0.07,-0.14,0.15
2022-11-11 12:38:52.4400,-0.05,0.04,-0.15,0.16
2022-11-11 12:38:52.4500,-0.15,0.01,-0.1,0.18
2022-11-11 12:38:52.4600,-0.18,0.01,-0.08,0.19
2022-11-11 12:38:52.4930,-0.11,0.05,-0.06,0.13
2022-11-11 12:38:52.4940,-0.01,0.05,-0.06,0.07
2022-11-11 12:38:52.4950,0.07,0.01,-0.06,0.09
2022-11-11 12:38:52.5070,0.14,-0.07,-0.07,0.17
2022-11-11 12:38:52.5090,0.19,-0.07,-0.08,0.21
2022-11-11 12:38:52.5190,0.2,-0.02,-0.07,0.21
2022-11-11 12:38:52.5290,0.15,0.04,-0.05,0.16
2022-11-11 12:38:52.5400,0.05,0.07,-0.03,0.09
2022-11-11 12:38:52.5490,-0.06,0.04,-0.01,0.07
2022-11-11 12:38:52.5600,-0.11,0.01,0.0,0.11
2022-11-11 12:38:52.5910,-0.14,-0.01,0.04,0.14
2022-11-11 12:38:52.5930,-0.18,0.01,0.0,0.18
2022-11-11 12:38:52.5940,-0.11,0.03,-0.01,0.11
2022-11-11 12:38:52.6070,0.05,0.07,0.09,0.12
2022-11-11 12:38:52.6090,0.19,0.02,0.13,0.23
2022-11-11 12:38:52.6190,0.31,-0.07,0.04,0.32
2022-11-11 12:38:52.6290,0.43,-0.1,-0.07,0.44
2022-11-11 12:38:52.6390,0.32,-0.04,-0.22,0.39
2022-11-11 12:38:52.6490,0.02,0.02,-0.23,0.23
2022-11-11 12:38:52.6590,-0.22,0.07,-0.15,0.27
2022-11-11 12:38:52.6880,-0.35,0.1,-0.03,0.36
2022-11-11 12:38:52.6900,-0.37,0.1,0.1,0.39
2022-11-11 12:38:52.6910,-0.33,0.08,0.18,0.38
2022-11-11 12:38:52.7070,-0.22,0.05,0.11,0.25
2022-11-11 12:38:52.7090,-0.03,0.0,-0.03,0.04
2022-11-11 12:38:52.7180,0.19,-0.04,-0.12,0.22
2022-11-11 12:38:52.7280,0.34,-0.08,-0.13,0.37
2022-11-11 12:38:52.7380,0.34,-0.1,-0.13,0.37
2022-11-11 12:38:52.7480,0.24,-0.08,-0.15,0.29
2022-11-11 12:38:52.7580,0.07,0.01,-0.11,0.13
2022-11-11 12:38:52.7890,-0.1,0.08,-0.02,0.12
2022-11-11 12:38:52.7900,-0.21,0.09,0.05,0.23
2022-11-11 12:38:52.7920,-0.2,0.04,0.12,0.23
2022-11-11 12:38:52.8060,-0.11,0.02,0.07,0.13
2022-11-11 12:38:52.8080,0.03,0.01,-0.08,0.08
2022-11-11 12:38:52.8170,0.14,0.04,-0.18,0.23
2022-11-11 12:38:52.8280,0.12,0.07,-0.22,0.26
2022-11-11 12:38:52.8370,0.0,0.06,-0.16,0.17
2022-11-11 12:38:52.8480,-0.09,0.04,-0.01,0.09
2022-11-11 12:38:52.8580,-0.12,0.0,0.11,0.16
2022-11-11 12:38:52.8680,-0.08,0.01,0.13,0.15
2022-11-11 12:38:52.8940,-0.05,0.0,0.04,0.06
2022-11-11 12:38:52.8950,0.04,-0.03,-0.04,0.06
2022-11-11 12:38:52.8970,0.12,-0.03,-0.11,0.16
2022-11-11 12:38:52.9070,0.12,0.03,-0.16,0.2
2022-11-11 12:38:52.9170,0.05,0.08,-0.19,0.21
2022-11-11 12:38:52.9270,-0.04,0.06,-0.14,0.15
2022-11-11 12:38:52.9370,-0.12,0.02,-0.01,0.12
2022-11-11 12:38:52.9470,-0.19,0.01,0.06,0.19
2022-11-11 12:38:52.9570,-0.21,0.04,0.04,0.21
2022-11-11 12:38:52.9670,-0.17,0.06,0.01,0.18
2022-11-11 12:38:52.9940,-0.07,0.03,-0.05,0.09
2022-11-11 12:38:52.9960,0.03,0.0,-0.11,0.11
2022-11-11 12:38:52.9970,0.1,-0.02,-0.12,0.15
2022-11-11 12:38:53.0060,0.13,-0.01,-0.16,0.2
2022-11-11 12:38:53.0160,0.12,0.04,-0.13,0.18
2022-11-11 12:38:53.0260,0.07,0.1,-0.11,0.16
2022-11-11 12:38:53.0360,-0.01,0.11,-0.1,0.14
2022-11-11 12:38:53.0460,-0.07,0.05,-0.08,0.11
2022-11-11 12:38:53.0560,-0.05,-0.02,-0.1,0.11
2022-11-11 12:38:53.0660,0.05,-0.07,-0.14,0.16
2022-11-11 12:38:53.0930,0.17,-0.04,-0.17,0.24
2022-11-11 12:38:53.0950,0.22,0.02,-0.23,0.31
2022-11-11 12:38:53.0960,0.11,0.05,-0.21,0.24
2022-11-11 12:38:53.1060,-0.05,0.03,-0.11,0.12
2022-11-11 12:38:53.1150,-0.16,0.02,0.04,0.16
2022-11-11 12:38:53.1260,-0.18,0.01,0.06,0.19
2022-11-11 12:38:53.1360,-0.14,0.01,-0.02,0.14
2022-11-11 12:38:53.1460,-0.03,0.01,-0.1,0.1
2022-11-11 12:38:53.1560,0.07,0.04,-0.13,0.15
2022-11-11 12:38:53.1660,0.03,0.07,-0.2,0.21
2022-11-11 12:38:53.1910,-0.06,0.05,-0.21,0.22
2022-11-11 12:38:53.1930,-0.11,0.03,-0.15,0.18
2022-11-11 12:38:53.1950,-0.15,0.02,-0.07,0.16
2022-11-11 12:38:53.2050,-0.14,0.02,0.0,0.14
2022-11-11 12:38:53.2150,-0.08,0.04,0.01,0.09
2022-11-11 12:38:53.2250,0.03,0.04,-0.01,0.05
2022-11-11 12:38:53.2350,0.13,0.01,-0.07,0.14
2022-11-11 12:38:53.2450,0.2,-0.02,-0.07,0.21
2022-11-11 12:38:53.2550,0.2,-0.03,-0.05,0.2
2022-11-11 12:38:53.2650,0.17,-0.04,-0.03,0.17
2022-11-11 12:38:53.2970,0.13,-0.02,-0.06,0.14
2022-11-11 12:38:53.2980,0.02,0.02,-0.07,0.07
2022-11-11 12:38:53.3000,-0.11,0.03,-0.02,0.11
2022-11-11 12:38:53.3040,-0.17,0.05,0.0,0.17
2022-11-11 12:38:53.3140,-0.08,0.1,0.04,0.13
2022-11-11 12:38:53.3240,0.03,0.12,-0.03,0.12
2022-11-11 12:38:53.3340,0.1,0.07,-0.09,0.15
2022-11-11 12:38:53.3440,0.05,-0.01,-0.11,0.12
2022-11-11 12:38:53.3540,-0.08,-0.04,-0.12,0.14
2022-11-11 12:38:53.3640,-0.18,-0.05,-0.11,0.21
2022-11-11 12:38:53.3950,-0.19,-0.01,-0.08,0.2
2022-11-11 12:38:53.3960,-0.19,0.06,-0.07,0.21
2022-11-11 12:38:53.3980,-0.2,0.12,-0.11,0.25
2022-11-11 12:38:53.4040,-0.15,0.14,-0.15,0.25
2022-11-11 12:38:53.4190,-0.06,0.09,-0.07,0.12
2022-11-11 12:38:53.4240,0.05,0.01,-0.01,0.05
2022-11-11 12:38:53.4340,0.13,-0.05,-0.03,0.14
2022-11-11 12:38:53.4440,0.21,-0.07,-0.08,0.23
2022-11-11 12:38:53.4540,0.32,-0.06,-0.12,0.34
2022-11-11 12:38:53.4640,0.38,-0.05,-0.14,0.4
2022-11-11 12:38:53.4930,0.4,-0.01,-0.15,0.42
2022-11-11 12:38:53.4950,0.34,0.05,-0.15,0.37
2022-11-11 12:38:53.4960,0.27,0.08,-0.16,0.32
2022-11-11 12:38:53.5030,0.18,0.05,-0.13,0.22
2022-11-11 12:38:53.5130,0.13,-0.02,-0.12,0.17
2022-11-11 12:38:53.5230,0.08,-0.06,-0.09,0.13
2022-11-11 12:38:53.5330,-0.04,-0.02,-0.11,0.11
2022-11-11 12:38:53.5430,-0.14,0.02,-0.07,0.15
2022-11-11 12:38:53.5530,-0.11,0.04,-0.02,0.11
2022-11-11 12:38:53.5630,-0.01,0.04,-0.01,0.04
2022-11-11 12:38:53.5930,0.07,0.05,-0.04,0.09
2022-11-11 12:38:53.5950,0.11,0.02,-0.01,0.11
2022-11-11 12:38:53.5970,0.07,-0.03,-0.03,0.08
2022-11-11 12:38:53.6020,0.0,-0.03,-0.03,0.04
2022-11-11 12:38:53.6120,-0.06,0.05,-0.03,0.08
2022-11-11 12:38:53.6230,-0.15,0.15,-0.09,0.23
2022-11-11 12:38:53.6320,-0.24,0.13,-0.08,0.28
2022-11-11 12:38:53.6420,-0.24,0.08,-0.01,0.25
2022-11-11 12:38:53.6530,-0.2,0.02,0.02,0.2
2022-11-11 12:38:53.6620,-0.15,-0.01,0.01,0.15
2022-11-11 12:38:53.6720,-0.08,0.0,0.0,0.08
2022-11-11 12:38:53.7000,-0.02,0.03,-0.05,0.06
2022-11-11 12:38:53.7020,0.04,0.07,-0.1,0.12
2022-11-11 12:38:53.7030,0.06,0.09,-0.12,0.16
2022-11-11 12:38:53.7210,0.01,0.07,-0.09,0.11
2022-11-11 12:38:53.7220,-0.04,0.0,-0.05,0.06
2022-11-11 12:38:53.7310,-0.09,-0.1,-0.02,0.13
2022-11-11 12:38:53.7420,-0.08,-0.09,-0.02,0.12
2022-11-11 12:38:53.7520,-0.01,-0.02,-0.01,0.02
2022-11-11 12:38:53.7620,0.08,0.06,-0.07,0.12
2022-11-11 12:38:53.7720,0.14,0.08,-0.15,0.22
2022-11-11 12:38:53.7970,0.16,0.02,-0.15,0.22
2022-11-11 12:38:53.7990,0.15,-0.06,-0.1,0.19
2022-11-11 12:38:53.8010,0.13,-0.11,-0.08,0.18
2022-11-11 12:38:53.8110,0.14,-0.06,-0.06,0.16
2022-11-11 12:38:53.8210,0.21,0.0,-0.05,0.21
2022-11-11 12:38:53.8310,0.26,0.01,-0.13,0.29
2022-11-11 12:38:53.8410,0.24,-0.05,-0.09,0.26
2022-11-11 12:38:53.8510,0.18,-0.09,-0.02,0.2
2022-11-11 12:38:53.8610,0.06,-0.06,0.04,0.09
2022-11-11 12:38:53.8710,-0.01,0.04,0.07,0.08
2022-11-11 12:38:53.8960,-0.04,0.15,-0.04,0.16
2022-11-11 12:38:53.8970,0.02,0.17,-0.1,0.19
2022-11-11 12:38:53.9010,0.07,0.08,-0.07,0.12
2022-11-11 12:38:53.9110,0.03,-0.04,-0.09,0.1
2022-11-11 12:38:53.9210,0.07,-0.12,-0.03,0.14
2022-11-11 12:38:53.9300,0.09,-0.06,-0.06,0.12
2022-11-11 12:38:53.9400,0.08,0.05,-0.16,0.18
2022-11-11 12:38:53.9510,0.01,0.1,-0.18,0.2
2022-11-11 12:38:53.9600,-0.06,0.11,-0.11,0.16
2022-11-11 12:38:53.9710,-0.15,0.04,0.04,0.16
2022-11-11 12:38:53.9940,-0.16,-0.04,0.12,0.2
2022-11-11 12:38:53.9960,-0.14,-0.01,0.01,0.14
2022-11-11 12:38:54.0000,-0.19,0.06,-0.09,0.21
2022-11-11 12:38:54.0100,-0.22,0.12,-0.11,0.27
2022-11-11 12:38:54.0200,-0.19,0.14,-0.1,0.25
2022-11-11 12:38:54.0300,-0.12,0.1,-0.13,0.2
2022-11-11 12:38:54.0400,-0.06,-0.01,-0.09,0.1
2022-11-11 12:38:54.0500,-0.06,-0.1,-0.04,0.12
2022-11-11 12:38:54.0600,-0.08,0.05,-0.2,0.22
2022-11-11 12:38:54.0700,0.02,0.2,-0.3,0.36
2022-11-11 12:38:54.1020,0.2,0.16,-0.26,0.36
2022-11-11 12:38:54.1040,0.19,0.03,-0.07,0.2
2022-11-11 12:38:54.1050,-0.12,-0.04,-0.06,0.13
2022-11-11 12:38:54.1200,-0.44,0.01,-0.08,0.44
2022-11-11 12:38:54.1210,-0.52,0.08,-0.05,0.52
2022-11-11 12:38:54.1290,-0.35,0.15,-0.09,0.39
2022-11-11 12:38:54.1390,-0.1,0.05,-0.07,0.13
2022-11-11 12:38:54.1490,0.07,-0.09,-0.01,0.11
2022-11-11 12:38:54.1590,0.22,-0.07,-0.05,0.23
2022-11-11 12:38:54.1690,0.35,0.05,-0.17,0.39
2022-11-11 12:38:54.2000,0.42,0.05,-0.19,0.46
2022-11-11 12:38:54.2020,0.4,-0.03,-0.09,0.41
2022-11-11 12:38:54.2040,0.26,-0.02,-0.05,0.26
2022-11-11 12:38:54.2200,0.02,0.02,-0.12,0.12
2022-11-11 12:38:54.2210,-0.16,0.09,-0.09,0.2
2022-11-11 12:38:54.2280,-0.13,0.09,-0.02,0.15
2022-11-11 12:38:54.2390,0.01,0.04,-0.04,0.05
2022-11-11 12:38:54.2490,0.02,0.0,-0.15,0.15
2022-11-11 12:38:54.2590,-0.08,-0.05,-0.2,0.22
2022-11-11 12:38:54.2690,-0.17,-0.16,-0.11,0.25
2022-11-11 12:38:54.2980,-0.17,-0.19,0.07,0.26
2022-11-11 12:38:54.3000,-0.15,-0.08,0.15,0.22
2022-11-11 12:38:54.3010,-0.15,0.14,0.03,0.2
2022-11-11 12:38:54.3080,-0.06,0.32,-0.12,0.34
2022-11-11 12:38:54.3180,0.11,0.35,-0.06,0.37
2022-11-11 12:38:54.3280,0.17,0.19,0.01,0.25
2022-11-11 12:38:54.3380,0.01,-0.06,0.0,0.06
2022-11-11 12:38:54.3480,-0.13,-0.2,-0.04,0.24
2022-11-11 12:38:54.3580,-0.13,-0.18,-0.05,0.22
2022-11-11 12:38:54.3680,-0.06,-0.04,-0.08,0.1
2022-11-11 12:38:54.3980,-0.01,0.09,-0.07,0.11
2022-11-11 12:38:54.3990,-0.01,0.11,-0.01,0.11
2022-11-11 12:38:54.4000,-0.04,0.05,0.01,0.06
2022-11-11 12:38:54.4200,-0.07,-0.05,-0.01,0.08
2022-11-11 12:38:54.4210,-0.07,-0.09,-0.06,0.12
2022-11-11 12:38:54.4270,-0.05,0.0,-0.12,0.13
2022-11-11 12:38:54.4370,0.0,0.2,-0.14,0.24
2022-11-11 12:38:54.4470,0.01,0.36,-0.14,0.38
2022-11-11 12:38:54.4570,-0.01,0.34,-0.06,0.34
2022-11-11 12:38:54.4670,0.0,0.09,0.07,0.11
2022-11-11 12:38:54.4770,0.08,-0.18,0.07,0.2
2022-11-11 12:38:54.5020,0.21,-0.27,-0.05,0.34
2022-11-11 12:38:54.5040,0.33,-0.2,-0.1,0.39
2022-11-11 12:38:54.5060,0.33,-0.06,-0.1,0.35
2022-11-11 12:38:54.5190,0.17,0.04,-0.13,0.21
2022-11-11 12:38:54.5270,-0.05,0.07,-0.09,0.12
2022-11-11 12:38:54.5370,-0.26,0.01,0.0,0.26
2022-11-11 12:38:54.5470,-0.41,-0.09,0.04,0.42
2022-11-11 12:38:54.5570,-0.4,-0.1,0.06,0.41
2022-11-11 12:38:54.5670,-0.24,0.02,0.12,0.26
2022-11-11 12:38:54.5770,-0.03,0.16,0.11,0.19
2022-11-11 12:38:54.6030,0.16,0.26,-0.02,0.3
2022-11-11 12:38:54.6050,0.34,0.42,-0.16,0.56
2022-11-11 12:38:54.6070,0.42,0.63,-0.22,0.78
2022-11-11 12:38:54.6190,0.41,0.87,-0.16,0.97
2022-11-11 12:38:54.6260,0.34,1.22,-0.11,1.27
2022-11-11 12:38:54.6360,0.24,1.51,-0.1,1.53
2022-11-11 12:38:54.6460,0.16,1.32,0.02,1.32
2022-11-11 12:38:54.6560,0.05,0.29,0.13,0.32
2022-11-11 12:38:54.6660,-0.05,-2.38,0.35,2.4
2022-11-11 12:38:54.6760,-0.49,-2.73,-0.09,2.77
2022-11-11 12:38:54.7020,-0.48,-0.36,-0.67,0.89
2022-11-11 12:38:54.7040,0.03,0.95,-0.55,1.09
2022-11-11 12:38:54.7050,0.48,0.71,-0.2,0.88
2022-11-11 12:38:54.7200,0.47,-0.7,0.06,0.84
2022-11-11 12:38:54.7250,0.16,-1.89,0.07,1.89
2022-11-11 12:38:54.7350,-0.16,-2.0,0.08,2.0
2022-11-11 12:38:54.7450,-0.27,-1.11,0.13,1.14
2022-11-11 12:38:54.7560,-0.16,-0.24,-0.04,0.29
2022-11-11 12:38:54.7650,-0.01,0.16,-0.22,0.27
2022-11-11 12:38:54.7750,0.03,0.24,-0.29,0.37
2022-11-11 12:38:54.8020,-0.04,0.2,-0.18,0.27
2022-11-11 12:38:54.8030,-0.23,0.2,-0.02,0.3
2022-11-11 12:38:54.8050,-0.41,0.38,0.09,0.56
2022-11-11 12:38:54.8190,-0.44,0.59,0.18,0.75
2022-11-11 12:38:54.8250,-0.34,0.74,0.09,0.81
2022-11-11 12:38:54.8350,-0.08,0.74,-0.08,0.74
2022-11-11 12:38:54.8450,0.2,0.67,-0.26,0.74
2022-11-11 12:38:54.8550,0.41,0.53,-0.45,0.8
2022-11-11 12:38:54.8650,0.43,0.27,-0.49,0.7
2022-11-11 12:38:54.8750,0.27,-0.06,-0.33,0.43
2022-11-11 12:38:54.9050,0.03,-0.36,-0.15,0.39
2022-11-11 12:38:54.9070,-0.09,-0.4,-0.03,0.41
2022-11-11 12:38:54.9090,-0.04,-0.25,0.08,0.26
2022-11-11 12:38:54.9180,0.06,-0.05,0.05,0.09
2022-11-11 12:38:54.9240,0.13,0.11,-0.09,0.19
2022-11-11 12:38:54.9340,0.18,0.18,-0.24,0.34
2022-11-11 12:38:54.9440,0.22,0.16,-0.31,0.41
2022-11-11 12:38:54.9540,0.17,0.09,-0.29,0.34
2022-11-11 12:38:54.9640,0.05,0.06,-0.22,0.23
2022-11-11 12:38:54.9740,-0.05,0.06,-0.17,0.18
2022-11-11 12:38:55.0050,-0.05,0.05,-0.15,0.16
2022-11-11 12:38:55.0070,0.05,0.07,-0.2,0.21
2022-11-11 12:38:55.0080,0.06,0.14,-0.2,0.25
2022-11-11 12:38:55.0170,0.0,0.2,-0.1,0.22
2022-11-11 12:38:55.0240,-0.05,0.26,-0.06,0.27
2022-11-11 12:38:55.0330,-0.05,0.13,-0.07,0.15
2022-11-11 12:38:55.0430,0.09,-0.05,-0.06,0.11
2022-11-11 12:38:55.0540,0.27,-0.01,-0.09,0.28
2022-11-11 12:38:55.0630,0.33,0.13,-0.12,0.37
2022-11-11 12:38:55.0730,0.3,0.11,-0.06,0.32
2022-11-11 12:38:55.1040,0.27,-0.03,0.12,0.29
2022-11-11 12:38:55.1060,0.26,-0.19,0.16,0.35
2022-11-11 12:38:55.1070,0.3,-0.22,0.09,0.38
2022-11-11 12:38:55.1150,0.46,-0.15,0.02,0.48
2022-11-11 12:38:55.1230,0.6,0.01,-0.05,0.6
2022-11-11 12:38:55.1330,0.49,0.2,-0.13,0.54
2022-11-11 12:38:55.1430,0.31,0.15,-0.08,0.35
2022-11-11 12:38:55.1530,0.21,-0.04,0.07,0.22
2022-11-11 12:38:55.1630,0.23,-0.08,0.06,0.25
2022-11-11 12:38:55.1730,0.45,-0.16,0.05,0.48
2022-11-11 12:38:55.2050,0.69,-0.14,0.06,0.7
2022-11-11 12:38:55.2070,0.53,0.0,-0.14,0.54
2022-11-11 12:38:55.2080,0.24,0.05,-0.19,0.31
2022-11-11 12:38:55.2150,0.09,0.01,-0.04,0.09
2022-11-11 12:38:55.2220,0.08,-0.03,0.04,0.09
2022-11-11 12:38:55.2320,0.11,-0.13,-0.05,0.17
2022-11-11 12:38:55.2420,0.2,-0.24,-0.13,0.33
2022-11-11 12:38:55.2520,0.39,-0.24,-0.06,0.46
2022-11-11 12:38:55.2620,0.56,-0.16,-0.09,0.58
2022-11-11 12:38:55.2720,0.75,-0.18,-0.06,0.77
2022-11-11 12:38:55.2820,0.58,-0.21,-0.04,0.61
2022-11-11 12:38:55.3100,-0.06,-0.12,-0.33,0.35
2022-11-11 12:38:55.3110,-0.56,-0.13,-0.27,0.63
2022-11-11 12:38:55.3130,-0.64,-0.1,0.16,0.66
2022-11-11 12:38:55.3220,-0.41,0.02,0.42,0.58
2022-11-11 12:38:55.3310,-0.1,0.05,0.37,0.38
2022-11-11 12:38:55.3410,0.16,-0.01,0.24,0.28
2022-11-11 12:38:55.3520,0.38,-0.09,0.17,0.42
2022-11-11 12:38:55.3610,0.48,-0.18,0.16,0.53
2022-11-11 12:38:55.3710,0.52,-0.19,0.17,0.57
2022-11-11 12:38:55.3810,0.46,-0.16,0.07,0.49
2022-11-11 12:38:55.4080,0.36,-0.06,-0.09,0.37
2022-11-11 12:38:55.4100,0.38,0.13,-0.28,0.48
2022-11-11 12:38:55.4120,0.6,0.49,-0.4,0.87
2022-11-11 12:38:55.4210,0.81,0.92,-0.39,1.28
2022-11-11 12:38:55.4320,0.98,1.35,-0.46,1.73
2022-11-11 12:38:55.4410,1.23,1.71,-0.38,2.14
2022-11-11 12:38:55.4510,1.32,2.02,-0.36,2.43
2022-11-11 12:38:55.4610,1.25,2.21,-0.2,2.54
2022-11-11 12:38:55.4710,1.12,2.37,0.17,2.62
2022-11-11 12:38:55.4810,1.02,2.67,0.5,2.9
2022-11-11 12:38:55.5080,1.02,2.94,0.58,3.16
2022-11-11 12:38:55.5100,1.1,3.03,0.33,3.24
2022-11-11 12:38:55.5110,1.37,2.76,-0.08,3.08
2022-11-11 12:38:55.5200,1.74,2.15,-0.43,2.79
2022-11-11 12:38:55.5320,1.69,1.76,-0.89,2.59
2022-11-11 12:38:55.5410,1.62,1.78,-1.47,2.82
2022-11-11 12:38:55.5500,1.81,2.11,-1.55,3.18
2022-11-11 12:38:55.5600,2.24,2.69,-0.68,3.56
2022-11-11 12:38:55.5700,2.34,3.28,0.18,4.03
2022-11-11 12:38:55.5800,1.76,3.64,0.94,4.15
2022-11-11 12:38:55.6050,1.7,3.93,2.45,4.93
2022-11-11 12:38:55.6070,2.36,4.37,3.98,6.36
2022-11-11 12:38:55.6090,2.73,4.39,3.58,6.28
2022-11-11 12:38:55.6200,3.54,3.79,1.74,5.47
2022-11-11 12:38:55.6300,5.62,2.82,0.07,6.28
2022-11-11 12:38:55.6400,8.5,1.48,-1.87,8.82
2022-11-11 12:38:55.6500,10.9,-0.42,-3.62,11.49
2022-11-11 12:38:55.6600,12.17,-2.16,-3.96,12.97
2022-11-11 12:38:55.6700,11.03,-2.07,-3.12,11.64
2022-11-11 12:38:55.6800,8.21,-0.09,-1.73,8.39
2022-11-11 12:38:55.7100,6.2,1.22,-0.12,6.32
2022-11-11 12:38:55.7120,4.78,1.46,1.19,5.13
2022-11-11 12:38:55.7140,3.48,1.27,2.06,4.23
2022-11-11 12:38:55.7190,2.47,0.98,2.5,3.64
2022-11-11 12:38:55.7290,1.94,0.63,2.56,3.27
2022-11-11 12:38:55.7390,1.78,0.3,2.3,2.92
2022-11-11 12:38:55.7490,1.81,-0.1,1.87,2.6
2022-11-11 12:38:55.7590,1.76,-0.62,1.34,2.29
2022-11-11 12:38:55.7690,1.58,-1.01,0.81,2.04
2022-11-11 12:38:55.7790,1.36,-1.21,0.47,1.88
2022-11-11 12:38:55.8070,0.85,-1.43,0.09,1.66
2022-11-11 12:38:55.8090,-0.03,-1.53,-0.37,1.57
2022-11-11 12:38:55.8110,-0.8,-1.33,-0.46,1.61
2022-11-11 12:38:55.8190,-1.15,-0.89,-0.02,1.45
2022-11-11 12:38:55.8310,-1.43,-0.62,0.43,1.61
2022-11-11 12:38:55.8380,-1.89,-0.5,0.6,2.04
2022-11-11 12:38:55.8480,-2.58,-0.31,0.55,2.65
2022-11-11 12:38:55.8580,-3.41,0.05,0.54,3.45
2022-11-11 12:38:55.8690,-4.24,0.69,0.53,4.32
2022-11-11 12:38:55.8780,-4.95,1.35,0.39,5.14
2022-11-11 12:38:55.9090,-5.53,1.61,0.15,5.76
2022-11-11 12:38:55.9110,-6.03,1.46,-0.36,6.21
2022-11-11 12:38:55.9120,-6.37,1.1,-0.93,6.53
2022-11-11 12:38:55.9180,-6.27,0.8,-0.89,6.38
2022-11-11 12:38:55.9280,-5.98,0.53,-0.68,6.04
2022-11-11 12:38:55.9380,-5.74,0.19,-0.65,5.77
2022-11-11 12:38:55.9480,-5.67,-0.35,-0.72,5.72
2022-11-11 12:38:55.9580,-5.78,-0.81,-0.71,5.87
2022-11-11 12:38:55.9680,-5.81,-0.63,-0.69,5.88
2022-11-11 12:38:55.9780,-5.52,0.01,-0.71,5.56
2022-11-11 12:38:56.0090,-5.07,0.5,-0.75,5.14
2022-11-11 12:38:56.0110,-4.73,0.52,-1.02,4.86
2022-11-11 12:38:56.0120,-4.61,0.32,-1.42,4.83
2022-11-11 12:38:56.0170,-4.76,0.16,-1.65,5.04
2022-11-11 12:38:56.0270,-4.79,0.13,-1.33,4.97
2022-11-11 12:38:56.0370,-4.55,0.05,-1.33,4.74
2022-11-11 12:38:56.0470,-4.26,0.21,-1.79,4.62
2022-11-11 12:38:56.0570,-3.5,0.58,-2.87,4.56
2022-11-11 12:38:56.0670,0.16,1.31,-1.68,2.13
2022-11-11 12:38:56.0770,6.24,3.34,2.55,7.52
2022-11-11 12:38:56.0870,8.07,7.19,2.01,10.99
2022-11-11 12:38:56.1130,3.08,8.34,-2.59,9.26
2022-11-11 12:38:56.1150,-0.9,6.65,-3.61,7.62
2022-11-11 12:38:56.1160,-3.84,4.52,-2.52,6.44
2022-11-11 12:38:56.1330,-5.3,2.39,0.72,5.85
2022-11-11 12:38:56.1360,-4.3,1.03,3.19,5.45
2022-11-11 12:38:56.1460,-3.33,-1.3,2.05,4.12
2022-11-11 12:38:56.1570,-1.52,-4.39,0.83,4.71
2022-11-11 12:38:56.1670,0.7,-6.24,-1.65,6.49
2022-11-11 12:38:56.1760,1.31,-5.11,-4.4,6.86
2022-11-11 12:38:56.1860,1.14,-1.68,-2.92,3.55
2022-11-11 12:38:56.2140,0.5,0.66,-1.43,1.65
2022-11-11 12:38:56.2160,-0.96,1.91,-0.26,2.15
2022-11-11 12:38:56.2170,-2.69,2.8,0.62,3.93
2022-11-11 12:38:56.2330,-4.28,2.96,1.02,5.3
2022-11-11 12:38:56.2360,-5.5,2.55,1.53,6.25
2022-11-11 12:38:56.2460,-5.89,1.67,1.66,6.34
2022-11-11 12:38:56.2560,-4.95,0.92,1.36,5.21
2022-11-11 12:38:56.2660,-2.88,0.77,0.75,3.07
2022-11-11 12:38:56.2760,-0.96,0.41,-0.5,1.15
2022-11-11 12:38:56.2860,0.55,-0.27,-1.68,1.78
2022-11-11 12:38:56.3110,1.36,-0.91,-2.18,2.72
2022-11-11 12:38:56.3130,1.54,-0.96,-2.48,3.07
2022-11-11 12:38:56.3150,1.34,-0.83,-1.59,2.23
2022-11-11 12:38:56.3250,0.56,-0.47,-0.33,0.8
2022-11-11 12:38:56.3350,-0.08,0.02,0.36,0.36
2022-11-11 12:38:56.3450,0.06,0.45,0.42,0.61
2022-11-11 12:38:56.3550,0.4,0.66,0.1,0.77
2022-11-11 12:38:56.3650,0.32,0.49,-0.05,0.58
2022-11-11 12:38:56.3750,0.14,0.32,-0.05,0.35
2022-11-11 12:38:56.3850,0.09,0.18,-0.34,0.39
2022-11-11 12:38:56.4110,0.22,-0.1,-0.76,0.79
2022-11-11 12:38:56.4130,0.36,-0.42,-0.83,0.99
2022-11-11 12:38:56.4140,0.47,-0.61,-0.82,1.12
2022-11-11 12:38:56.4320,0.91,-0.74,-0.68,1.35
2022-11-11 12:38:56.4340,1.37,-0.54,-0.39,1.52
2022-11-11 12:38:56.4440,1.43,-0.19,-0.1,1.44
2022-11-11 12:38:56.4550,1.21,0.02,0.19,1.22
2022-11-11 12:38:56.4650,1.02,0.23,0.56,1.18
2022-11-11 12:38:56.4740,1.02,0.47,0.72,1.33
2022-11-11 12:38:56.4840,1.25,0.55,0.8,1.58
2022-11-11 12:38:56.5170,1.22,0.57,0.37,1.39
2022-11-11 12:38:56.5190,1.07,0.48,-0.26,1.2
2022-11-11 12:38:56.5200,0.94,0.34,-0.44,1.09
2022-11-11 12:38:56.5320,0.67,0.16,-0.22,0.72
2022-11-11 12:38:56.5340,0.32,0.04,0.22,0.39
2022-11-11 12:38:56.5440,0.07,0.27,0.4,0.48
2022-11-11 12:38:56.5540,0.01,0.62,0.57,0.84
2022-11-11 12:38:56.5640,0.01,1.16,0.29,1.19
2022-11-11 12:38:56.5740,0.18,1.5,-1.22,1.94
2022-11-11 12:38:56.5840,0.98,2.57,-0.69,2.83
2022-11-11 12:38:56.6130,1.22,3.53,-1.02,3.87
2022-11-11 12:38:56.6150,1.39,4.09,-0.39,4.33
2022-11-11 12:38:56.6160,1.3,4.18,-0.21,4.38
2022-11-11 12:38:56.6320,1.59,4.14,-0.07,4.43
2022-11-11 12:38:56.6330,2.03,4.52,-0.11,4.95
2022-11-11 12:38:56.6430,2.13,5.13,-0.46,5.57
2022-11-11 12:38:56.6530,2.66,5.55,-0.97,6.23
2022-11-11 12:38:56.6630,3.49,6.07,-0.5,7.01
2022-11-11 12:38:56.6730,4.15,6.11,-0.95,7.44
2022-11-11 12:38:56.6830,5.54,5.58,-1.29,7.96
2022-11-11 12:38:56.7130,6.97,5.38,-1.45,8.92
2022-11-11 12:38:56.7150,8.26,6.01,-1.54,10.33
2022-11-11 12:38:56.7160,9.48,7.23,-1.56,12.02
2022-11-11 12:38:56.7320,10.48,7.9,-0.64,13.13
2022-11-11 12:38:56.7330,11.46,8.19,0.81,14.1
2022-11-11 12:38:56.7430,12.84,7.81,1.23,15.07
2022-11-11 12:38:56.7530,12.31,6.49,-0.09,13.91
2022-11-11 12:38:56.7620,10.18,5.33,-3.27,11.94
2022-11-11 12:38:56.7730,9.02,6.65,-4.55,12.09
2022-11-11 12:38:56.7830,9.51,9.31,-3.38,13.73
2022-11-11 12:38:56.8120,10.21,11.27,-2.89,15.47
2022-11-11 12:38:56.8130,9.87,11.36,-2.98,15.34
2022-11-11 12:38:56.8150,8.36,9.77,-2.68,13.13
2022-11-11 12:38:56.8320,6.19,7.66,-3.3,10.38
2022-11-11 12:38:56.8330,3.54,5.24,-5.03,8.08
2022-11-11 12:38:56.8420,1.78,2.94,-4.39,5.57
2022-11-11 12:38:56.8520,2.25,1.62,-1.74,3.27
2022-11-11 12:38:56.8620,4.53,2.96,-0.23,5.41
2022-11-11 12:38:56.8720,6.19,3.73,-0.44,7.24
2022-11-11 12:38:56.8820,6.68,1.97,-0.58,6.98
2022-11-11 12:38:56.8920,6.41,-0.36,-0.07,6.42
2022-11-11 12:38:56.9180,5.82,-1.83,0.8,6.15
2022-11-11 12:38:56.9190,5.28,-2.49,1.21,5.96
2022-11-11 12:38:56.9210,5.56,-2.99,1.25,6.43
2022-11-11 12:38:56.9310,6.41,-3.92,0.91,7.56
2022-11-11 12:38:56.9410,7.1,-4.87,0.29,8.61
2022-11-11 12:38:56.9510,7.69,-4.86,-0.11,9.09
2022-11-11 12:38:56.9610,8.46,-4.04,-0.3,9.37
2022-11-11 12:38:56.9710,7.36,-3.41,-1.35,8.22
2022-11-11 12:38:56.9810,4.18,-3.16,-1.75,5.52
2022-11-11 12:38:56.9910,1.87,-3.02,-0.74,3.62
2022-11-11 12:38:57.0160,1.27,-2.14,0.49,2.53
2022-11-11 12:38:57.0180,0.12,-0.87,1.08,1.39
2022-11-11 12:38:57.0210,-2.76,0.3,1.18,3.01
2022-11-11 12:38:57.0310,-5.88,1.22,1.41,6.16
2022-11-11 12:38:57.0400,-7.95,1.91,2.12,8.44
2022-11-11 12:38:57.0510,-9.03,2.31,1.98,9.52
2022-11-11 12:38:57.0610,-8.8,2.41,1.0,9.17
2022-11-11 12:38:57.0710,-7.8,2.45,-0.34,8.18
2022-11-11 12:38:57.0810,-7.34,2.53,-2.18,8.06
2022-11-11 12:38:57.0900,-7.12,2.69,-3.22,8.26
2022-11-11 12:38:57.1150,-7.18,3.08,-3.34,8.49
2022-11-11 12:38:57.1170,-7.66,3.74,-3.17,9.09
2022-11-11 12:38:57.1200,-8.54,4.8,-2.51,10.11
2022-11-11 12:38:57.1300,-10.2,6.22,-2.06,12.12
2022-11-11 12:38:57.1400,-12.16,7.52,-1.98,14.43
2022-11-11 12:38:57.1500,-13.5,8.04,-2.23,15.87
2022-11-11 12:38:57.1600,-14.06,7.54,-2.93,16.22
2022-11-11 12:38:57.1700,-14.07,5.44,-3.88,15.57
2022-11-11 12:38:57.1800,-14.15,2.21,-4.99,15.16
2022-11-11 12:38:57.1900,-13.6,-1.13,-5.22,14.61
2022-11-11 12:38:57.2150,-12.52,-3.28,-5.44,14.03
2022-11-11 12:38:57.2160,-11.06,-2.84,-4.85,12.4
2022-11-11 12:38:57.2190,-10.3,-0.67,-3.99,11.06
2022-11-11 12:38:57.2300,-10.47,0.99,-3.33,11.03
2022-11-11 12:38:57.2390,-10.2,1.66,-2.24,10.57
2022-11-11 12:38:57.2490,-7.9,2.55,-1.62,8.45
2022-11-11 12:38:57.2590,0.07,3.73,3.09,4.84
2022-11-11 12:38:57.2690,9.87,6.16,11.9,16.64
2022-11-11 12:38:57.2790,9.03,11.13,7.17,16.02
2022-11-11 12:38:57.2890,0.1,10.93,-4.72,11.9
2022-11-11 12:38:57.3220,-3.94,7.47,-4.83,9.72
2022-11-11 12:38:57.3240,-5.61,3.28,-1.79,6.74
2022-11-11 12:38:57.3250,-5.4,0.6,-1.52,5.64
2022-11-11 12:38:57.3290,-3.84,-1.38,-1.05,4.21
2022-11-11 12:38:57.3390,-2.52,-3.57,0.41,4.38
2022-11-11 12:38:57.3490,-3.98,-4.38,-1.17,6.03
2022-11-11 12:38:57.3590,-6.23,-3.05,-3.89,7.95
2022-11-11 12:38:57.3690,-7.03,-1.54,-3.57,8.03
2022-11-11 12:38:57.3790,-5.26,-0.13,-1.4,5.44
2022-11-11 12:38:57.3890,-3.0,1.41,0.04,3.31
2022-11-11 12:38:57.4190,-1.15,2.09,0.89,2.54
2022-11-11 12:38:57.4200,0.15,1.95,-0.04,1.95
2022-11-11 12:38:57.4220,1.01,1.5,-0.48,1.87
2022-11-11 12:38:57.4290,1.87,0.91,-1.53,2.58
2022-11-11 12:38:57.4380,2.19,0.5,-1.55,2.72
2022-11-11 12:38:57.4480,1.24,0.44,-1.41,1.92
2022-11-11 12:38:57.4580,-0.62,0.13,-1.66,1.77
2022-11-11 12:38:57.4680,-2.61,-0.41,-1.15,2.88
2022-11-11 12:38:57.4780,-4.01,-0.53,0.22,4.05
2022-11-11 12:38:57.4880,-3.49,-0.13,1.45,3.78
2022-11-11 12:38:57.5190,-1.44,0.23,1.38,2.0
2022-11-11 12:38:57.5210,0.28,0.34,0.35,0.56
2022-11-11 12:38:57.5230,1.42,0.3,-0.63,1.58
2022-11-11 12:38:57.5270,1.77,0.5,-0.9,2.04
2022-11-11 12:38:57.5380,0.92,0.6,-0.67,1.28
2022-11-11 12:38:57.5470,-0.34,0.31,-0.2,0.5
2022-11-11 12:38:57.5580,-0.81,-0.02,0.32,0.87
2022-11-11 12:38:57.5680,-0.36,-0.14,0.39,0.54
2022-11-11 12:38:57.5770,0.32,-0.18,0.21,0.42
2022-11-11 12:38:57.5870,0.79,-0.02,0.05,0.79
2022-11-11 12:38:57.6200,1.22,0.12,0.58,1.35
2022-11-11 12:38:57.6210,1.25,0.12,1.28,1.79
2022-11-11 12:38:57.6230,1.23,0.07,0.87,1.5
2022-11-11 12:38:57.6270,1.53,0.09,-0.01,1.53
2022-11-11 12:38:57.6440,1.35,0.37,-0.67,1.55
2022-11-11 12:38:57.6470,0.64,0.83,-1.06,1.49
2022-11-11 12:38:57.6570,-0.05,1.34,-1.17,1.77
2022-11-11 12:38:57.6670,-0.55,1.57,-1.97,2.57
2022-11-11 12:38:57.6770,-0.21,1.88,-0.71,2.02
2022-11-11 12:38:57.6870,0.4,2.45,0.78,2.6
2022-11-11 12:38:57.6970,1.34,2.49,1.88,3.39
2022-11-11 12:38:57.7230,1.93,2.47,1.63,3.53
2022-11-11 12:38:57.7240,2.19,3.01,1.68,4.08
2022-11-11 12:38:57.7260,1.81,4.32,1.38,4.88
2022-11-11 12:38:57.7360,1.69,5.2,0.83,5.53
2022-11-11 12:38:57.7460,1.58,5.55,0.14,5.77
2022-11-11 12:38:57.7560,2.19,5.67,-0.65,6.11
2022-11-11 12:38:57.7660,3.43,5.71,-1.7,6.87
2022-11-11 12:38:57.7760,4.76,5.41,-2.78,7.72
2022-11-11 12:38:57.7860,5.78,5.32,-3.11,8.44
2022-11-11 12:38:57.7960,6.74,5.59,-3.43,9.4
2022-11-11 12:38:57.8220,7.78,5.75,-2.18,9.91
2022-11-11 12:38:57.8240,8.65,6.2,-1.03,10.69
2022-11-11 12:38:57.8260,10.18,6.86,-0.69,12.29
2022-11-11 12:38:57.8360,12.16,7.52,0.65,14.31
2022-11-11 12:38:57.8450,13.22,8.27,0.21,15.59
2022-11-11 12:38:57.8550,12.71,7.85,-2.51,15.14
2022-11-11 12:38:57.8650,11.19,7.05,-6.73,14.83
2022-11-11 12:38:57.8750,10.98,8.31,-7.85,15.85
2022-11-11 12:38:57.8850,11.62,11.11,-5.83,17.1
2022-11-11 12:38:57.8950,10.27,13.15,-4.8,17.36
2022-11-11 12:38:57.9210,7.88,12.42,-4.86,15.49
2022-11-11 12:38:57.9230,5.46,9.69,-4.44,11.97
2022-11-11 12:38:57.9250,3.68,6.99,-3.83,8.77
2022-11-11 12:38:57.9350,4.46,4.93,-1.8,6.88
2022-11-11 12:38:57.9450,7.27,4.51,0.88,8.6
2022-11-11 12:38:57.9550,8.53,3.24,1.19,9.2
2022-11-11 12:38:57.9650,7.81,0.9,0.25,7.86
2022-11-11 12:38:57.9750,6.25,-0.8,0.46,6.31
2022-11-11 12:38:57.9850,4.63,-1.67,1.36,5.1
2022-11-11 12:38:57.9950,3.91,-2.15,1.77,4.8
2022-11-11 12:38:58.0210,4.41,-2.91,1.38,5.46
2022-11-11 12:38:58.0220,5.71,-4.04,0.77,7.03
2022-11-11 12:38:58.0240,7.44,-5.04,0.62,9.0
2022-11-11 12:38:58.0340,8.78,-5.43,0.61,10.34
2022-11-11 12:38:58.0440,9.3,-4.83,0.46,10.48
2022-11-11 12:38:58.0540,9.23,-3.38,0.93,9.87
2022-11-11 12:38:58.0640,7.58,-2.12,1.42,7.99
2022-11-11 12:38:58.0740,4.33,-1.62,2.17,5.1
2022-11-11 12:38:58.0840,1.4,-1.16,2.63,3.19
2022-11-11 12:38:58.0940,-0.24,-0.1,2.11,2.12
2022-11-11 12:38:58.1240,-1.22,0.99,2.36,2.83
2022-11-11 12:38:58.1260,-3.05,1.58,2.37,4.17
2022-11-11 12:38:58.1270,-5.16,1.6,1.98,5.75
2022-11-11 12:38:58.1460,-6.28,1.25,1.83,6.65
2022-11-11 12:38:58.1470,-6.52,1.2,1.71,6.84
2022-11-11 12:38:58.1530,-6.23,2.16,1.42,6.74
2022-11-11 12:38:58.1640,-5.9,3.87,0.88,7.11
2022-11-11 12:38:58.1730,-6.35,5.13,-0.42,8.17
2022-11-11 12:38:58.1830,-7.08,5.8,-1.78,9.32
2022-11-11 12:38:58.1940,-7.25,5.79,-1.9,9.47
2022-11-11 12:38:58.2250,-7.1,5.74,-1.08,9.19
2022-11-11 12:38:58.2260,-7.89,6.11,-0.61,9.99
2022-11-11 12:38:58.2280,-10.49,6.74,-1.19,12.52
2022-11-11 12:38:58.2450,-13.45,7.1,-1.53,15.28
2022-11-11 12:38:58.2470,-14.08,6.84,-0.36,15.65
2022-11-11 12:38:58.2530,-13.06,6.14,-0.24,14.43
2022-11-11 12:38:58.2630,-12.6,4.95,-1.32,13.6
2022-11-11 12:38:58.2730,-12.46,3.16,-1.87,12.98
2022-11-11 12:38:58.2830,-12.26,0.93,-1.86,12.43
2022-11-11 12:38:58.2930,-12.12,-0.95,-2.37,12.38
2022-11-11 12:38:58.3250,-11.45,-1.51,-3.1,11.95
2022-11-11 12:38:58.3260,-10.6,-1.15,-3.52,11.22
2022-11-11 12:38:58.3280,-10.63,-0.27,-3.86,11.31
2022-11-11 12:38:58.3450,-11.09,0.49,-4.13,11.84
2022-11-11 12:38:58.3470,-11.01,1.26,-4.46,11.94
2022-11-11 12:38:58.3520,-7.65,2.41,-4.87,9.38
2022-11-11 12:38:58.3620,2.84,4.38,2.22,5.67
2022-11-11 12:38:58.3720,13.49,10.21,15.54,22.97
2022-11-11 12:38:58.3820,7.37,13.84,7.79,17.5
2022-11-11 12:38:58.3930,-2.72,11.64,-2.1,12.13
2022-11-11 12:38:58.4240,-7.25,7.44,-3.95,11.11
2022-11-11 12:38:58.4250,-9.37,1.99,-0.48,9.59
2022-11-11 12:38:58.4270,-7.97,-0.26,0.5,7.98
2022-11-11 12:38:58.4450,-5.16,-1.81,0.11,5.46
2022-11-11 12:38:58.4460,-2.5,-3.56,0.29,4.35
2022-11-11 12:38:58.4510,-1.55,-3.92,-0.96,4.32
2022-11-11 12:38:58.4620,-2.1,-2.8,-3.87,5.21
2022-11-11 12:38:58.4710,-3.36,-1.52,-6.33,7.32
2022-11-11 12:38:58.4810,-3.81,-0.35,-4.9,6.21
2022-11-11 12:38:58.4920,-3.54,0.88,-2.05,4.18
2022-11-11 12:38:58.5020,-3.41,1.81,0.33,3.87
2022-11-11 12:38:58.5280,-2.71,2.1,1.86,3.9
2022-11-11 12:38:58.5300,-1.71,1.77,1.88,3.09
2022-11-11 12:38:58.5310,-0.44,1.47,0.66,1.67
2022-11-11 12:38:58.5450,1.41,0.82,-0.59,1.73
2022-11-11 12:38:58.5510,2.79,0.05,-1.15,3.01
2022-11-11 12:38:58.5610,2.83,-0.35,-1.31,3.13
2022-11-11 12:38:58.5710,1.79,-0.53,-1.61,2.46
2022-11-11 12:38:58.5810,-0.09,-0.73,-1.33,1.51
2022-11-11 12:38:58.5910,-1.74,-0.9,-0.45,2.0
2022-11-11 12:38:58.6010,-2.51,-0.69,0.27,2.61
2022-11-11 12:38:58.6280,-2.24,0.03,1.33,2.6
2022-11-11 12:38:58.6300,-1.45,0.85,1.4,2.18
2022-11-11 12:38:58.6310,-0.5,1.25,0.78,1.55
2022-11-11 12:38:58.6450,0.69,1.11,0.1,1.31
2022-11-11 12:38:58.6500,1.49,0.71,-0.78,1.82
2022-11-11 12:38:58.6600,1.24,0.39,-0.89,1.57
2022-11-11 12:38:58.6700,0.33,0.37,-0.54,0.73
2022-11-11 12:38:58.6800,-0.35,0.36,0.11,0.51
2022-11-11 12:38:58.6900,-0.15,0.25,0.1,0.3
2022-11-11 12:38:58.7000,0.64,-0.04,-0.33,0.72
2022-11-11 12:38:58.7260,1.46,-0.1,-0.47,1.53
2022-11-11 12:38:58.7270,1.66,0.19,-0.46,1.73
2022-11-11 12:38:58.7290,1.1,0.64,-0.48,1.36
2022-11-11 12:38:58.7450,0.71,0.97,-0.02,1.2
2022-11-11 12:38:58.7500,0.43,1.11,-0.34,1.23
2022-11-11 12:38:58.7600,0.35,1.39,0.16,1.44
2022-11-11 12:38:58.7700,0.23,2.15,0.22,2.17
2022-11-11 12:38:58.7790,0.67,2.8,0.19,2.88
2022-11-11 12:38:58.7900,1.21,3.2,0.17,3.42
2022-11-11 12:38:58.8000,1.49,3.61,0.9,4.0
2022-11-11 12:38:58.8260,1.44,3.62,0.92,4.0
2022-11-11 12:38:58.8280,1.45,3.85,1.01,4.23
2022-11-11 12:38:58.8290,1.79,4.26,0.26,4.62
2022-11-11 12:38:58.8460,3.02,4.35,-0.19,5.29
2022-11-11 12:38:58.8490,4.22,4.06,-0.55,5.88
2022-11-11 12:38:58.8590,5.09,3.76,-0.9,6.39
2022-11-11 12:38:58.8690,5.57,3.84,-0.94,6.83
2022-11-11 12:38:58.8790,5.56,4.16,-1.08,7.02
2022-11-11 12:38:58.8890,5.6,4.43,-0.78,7.18
2022-11-11 12:38:58.8990,6.07,4.56,-0.23,7.59
2022-11-11 12:38:58.9320,6.5,4.65,0.83,8.03
2022-11-11 12:38:58.9340,7.31,5.71,1.23,9.35
2022-11-11 12:38:58.9350,9.02,7.24,1.77,11.7
2022-11-11 12:38:58.9440,11.33,8.39,2.43,14.3
2022-11-11 12:38:58.9480,12.61,8.41,-0.24,15.15
2022-11-11 12:38:58.9580,12.31,7.1,-5.31,15.17
2022-11-11 12:38:58.9680,11.19,6.55,-9.41,16.02
2022-11-11 12:38:58.9780,10.93,8.75,-9.14,16.72
2022-11-11 12:38:58.9880,11.16,12.01,-6.8,17.74
2022-11-11 12:38:58.9980,9.22,13.83,-6.61,17.88
2022-11-11 12:38:59.0310,5.92,12.72,-6.51,15.46
2022-11-11 12:38:59.0330,4.13,9.68,-4.59,11.48
2022-11-11 12:38:59.0340,3.34,7.06,-3.16,8.42
2022-11-11 12:38:59.0420,3.13,4.98,-1.78,6.14
2022-11-11 12:38:59.0480,3.89,3.36,0.26,5.14
2022-11-11 12:38:59.0580,4.57,2.13,1.79,5.35
2022-11-11 12:38:59.0680,4.06,0.88,1.93,4.58
2022-11-11 12:38:59.0780,3.55,-0.32,1.77,3.97
2022-11-11 12:38:59.0880,3.9,-1.4,1.9,4.55
2022-11-11 12:38:59.0980,4.44,-2.55,1.45,5.32
2022-11-11 12:38:59.1300,5.04,-4.04,0.69,6.49
2022-11-11 12:38:59.1320,6.58,-5.5,0.36,8.58
2022-11-11 12:38:59.1330,8.45,-6.03,0.28,10.38
2022-11-11 12:38:59.1430,9.51,-5.72,-0.25,11.1
2022-11-11 12:38:59.1470,9.82,-5.17,-0.51,11.1
2022-11-11 12:38:59.1570,9.16,-4.39,-0.47,10.16
2022-11-11 12:38:59.1670,7.46,-3.37,0.2,8.18
2022-11-11 12:38:59.1770,5.22,-2.55,1.02,5.89
2022-11-11 12:38:59.1870,2.87,-1.84,1.69,3.8
2022-11-11 12:38:59.1970,0.83,-0.82,1.75,2.1
2022-11-11 12:38:59.2300,-0.8,0.15,1.75,1.93
2022-11-11 12:38:59.2320,-2.17,0.52,1.91,2.93
2022-11-11 12:38:59.2330,-3.81,0.64,1.38,4.1
2022-11-11 12:38:59.2430,-5.71,0.75,0.83,5.81
2022-11-11 12:38:59.2460,-7.76,1.27,0.59,7.88
2022-11-11 12:38:59.2560,-9.14,2.44,0.72,9.48
2022-11-11 12:38:59.2660,-9.19,3.79,1.34,10.03
2022-11-11 12:38:59.2760,-8.57,4.8,1.03,9.87
2022-11-11 12:38:59.2860,-7.81,4.73,-0.13,9.13
2022-11-11 12:38:59.2970,-6.73,4.21,-0.76,7.97
2022-11-11 12:38:59.3070,-6.06,3.96,-0.96,7.3
2022-11-11 12:38:59.3340,-6.39,4.72,-2.03,8.19
2022-11-11 12:38:59.3350,-7.53,5.9,-2.86,9.98
2022-11-11 12:38:59.3370,-9.24,7.29,-2.7,12.07
2022-11-11 12:38:59.3460,-11.45,8.32,-2.57,14.38
2022-11-11 12:38:59.3580,-14.1,8.28,-3.05,16.63
2022-11-11 12:38:59.3660,-16.4,6.34,-3.48,17.92
2022-11-11 12:38:59.3760,-17.49,2.77,-3.27,18.0
2022-11-11 12:38:59.3860,-16.88,-0.21,-2.57,17.07
2022-11-11 12:38:59.3960,-14.78,-1.88,-2.33,15.08
2022-11-11 12:38:59.4060,-13.13,-2.63,-2.89,13.69
2022-11-11 12:38:59.4340,-12.97,-2.31,-3.92,13.74
2022-11-11 12:38:59.4350,-12.92,-1.03,-4.4,13.68
2022-11-11 12:38:59.4370,-12.26,0.28,-3.57,12.77
2022-11-11 12:38:59.4450,-10.61,1.37,-1.81,10.85
2022-11-11 12:38:59.4550,-4.17,3.25,0.97,5.37
2022-11-11 12:38:59.4650,10.4,5.83,11.05,16.25
2022-11-11 12:38:59.4750,19.42,10.5,15.45,26.94
2022-11-11 12:38:59.4850,8.45,12.36,-3.85,15.45
2022-11-11 12:38:59.4960,-0.11,11.29,-8.98,14.42
2022-11-11 12:38:59.5050,-3.33,6.69,-4.81,8.88
2022-11-11 12:38:59.5320,-5.55,1.81,-1.67,6.07
2022-11-11 12:38:59.5330,-6.32,-0.89,-1.09,6.47
2022-11-11 12:38:59.5350,-5.73,-2.67,0.95,6.39
2022-11-11 12:38:59.5440,-5.89,-4.45,0.81,7.42
2022-11-11 12:38:59.5540,-6.89,-4.53,-2.76,8.69
2022-11-11 12:38:59.5640,-7.39,-2.59,-5.07,9.32
2022-11-11 12:38:59.5740,-6.36,0.03,-3.65,7.33
2022-11-11 12:38:59.5840,-4.12,2.21,-0.66,4.72
2022-11-11 12:38:59.5940,-2.23,2.56,1.04,3.55
2022-11-11 12:38:59.6050,-1.01,1.85,1.12,2.38
2022-11-11 12:38:59.6320,-0.5,1.32,0.65,1.55
2022-11-11 12:38:59.6330,0.05,1.07,-0.19,1.08
2022-11-11 12:38:59.6350,1.03,0.84,-1.1,1.72
2022-11-11 12:38:59.6440,2.36,0.83,-0.87,2.64
2022-11-11 12:38:59.6540,3.14,0.71,-0.7,3.29
2022-11-11 12:38:59.6640,2.47,-0.17,-1.24,2.76
2022-11-11 12:38:59.6740,0.35,-1.44,-1.17,1.88
2022-11-11 12:38:59.6840,-1.83,-1.98,-0.33,2.71
2022-11-11 12:38:59.6940,-2.55,-1.51,0.24,2.97
2022-11-11 12:38:59.7040,-1.76,-0.61,0.43,1.91
2022-11-11 12:38:59.7390,-0.64,0.16,0.64,0.91
2022-11-11 12:38:59.7410,0.11,0.71,0.73,1.02
2022-11-11 12:38:59.7420,0.42,0.96,0.4,1.12
2022-11-11 12:38:59.7590,0.58,0.95,0.15,1.12
2022-11-11 12:38:59.7600,0.78,0.85,-0.11,1.15
2022-11-11 12:38:59.7630,0.91,0.55,-0.51,1.17
2022-11-11 12:38:59.7730,0.82,0.14,-0.94,1.25
2022-11-11 12:38:59.7830,1.01,-0.3,-0.82,1.33
2022-11-11 12:38:59.7930,1.25,-0.68,-0.46,1.49
2022-11-11 12:38:59.8030,1.52,-0.82,-0.29,1.75
2022-11-11 12:38:59.8390,1.96,-0.51,-0.24,2.03
2022-11-11 12:38:59.8400,2.04,-0.07,-0.18,2.04
2022-11-11 12:38:59.8420,1.42,0.22,0.13,1.44
2022-11-11 12:38:59.8600,0.49,0.34,0.19,0.62
2022-11-11 12:38:59.8610,-0.04,0.47,-0.14,0.49
2022-11-11 12:38:59.8630,-0.18,0.78,-0.65,1.03
2022-11-11 12:38:59.8720,-0.09,1.19,-0.81,1.44
2022-11-11 12:38:59.8820,-0.08,1.45,-0.82,1.66
2022-11-11 12:38:59.8920,0.1,1.45,-0.42,1.51
2022-11-11 12:38:59.9020,0.63,1.23,-0.72,1.55
2022-11-11 12:38:59.9350,1.44,1.61,0.75,2.28
2022-11-11 12:38:59.9370,1.48,2.32,1.06,2.94
2022-11-11 12:38:59.9380,1.6,2.9,1.26,3.54
2022-11-11 12:38:59.9420,1.58,3.42,0.17,3.77
2022-11-11 12:38:59.9520,1.65,4.2,0.94,4.6
2022-11-11 12:38:59.9620,1.59,4.82,0.73,5.12
2022-11-11 12:38:59.9720,2.04,4.92,0.56,5.35
2022-11-11 12:38:59.9820,2.67,4.97,0.16,5.64
2022-11-11 12:38:59.9920,3.55,4.98,-0.3,6.12
2022-11-11 12:39:00.0010,4.08,4.97,-0.39,6.44
2022-11-11 12:39:00.0360,4.27,4.79,-0.14,6.41
2022-11-11 12:39:00.0370,4.67,4.55,0.45,6.53
2022-11-11 12:39:00.0390,5.5,4.5,0.57,7.12
2022-11-11 12:39:00.0590,6.79,4.79,-0.21,8.31
2022-11-11 12:39:00.0610,8.86,5.25,0.0,10.29
2022-11-11 12:39:00.0630,10.54,5.75,-0.32,12.01
2022-11-11 12:39:00.0710,11.55,6.18,-0.47,13.1
2022-11-11 12:39:00.0810,11.82,6.44,-0.78,13.48
2022-11-11 12:39:00.0910,10.84,6.21,-1.79,12.62
2022-11-11 12:39:00.1010,9.7,5.77,-2.99,11.67
2022-11-11 12:39:00.1110,7.75,6.31,-5.43,11.37
2022-11-11 12:39:00.1400,5.84,7.94,-6.12,11.6
2022-11-11 12:39:00.1410,4.97,9.28,-4.83,11.58
2022-11-11 12:39:00.1430,4.1,9.69,-3.45,11.07
2022-11-11 12:39:00.1590,2.98,8.74,-3.37,9.82
2022-11-11 12:39:00.1600,2.17,6.97,-3.4,8.05
2022-11-11 12:39:00.1700,2.49,4.97,-2.62,6.14
2022-11-11 12:39:00.1810,4.59,3.0,-0.13,5.48
2022-11-11 12:39:00.1910,6.63,1.18,1.42,6.88
2022-11-11 12:39:00.2000,6.61,-0.64,0.58,6.66
2022-11-11 12:39:00.2100,6.16,-1.61,-0.05,6.36
2022-11-11 12:39:00.2390,6.15,-1.92,0.05,6.44
2022-11-11 12:39:00.2400,6.24,-2.21,0.07,6.62
2022-11-11 12:39:00.2410,6.57,-2.82,-0.25,7.15
2022-11-11 12:39:00.2580,7.46,-3.7,-0.36,8.33
2022-11-11 12:39:00.2600,8.4,-4.24,-0.58,9.42
2022-11-11 12:39:00.2700,8.52,-4.18,-1.06,9.54
2022-11-11 12:39:00.2800,7.81,-3.64,-1.15,8.69
2022-11-11 12:39:00.2900,6.53,-3.01,-0.57,7.21
2022-11-11 12:39:00.3000,4.49,-1.79,-0.24,4.83
2022-11-11 12:39:00.3100,2.75,-0.14,0.04,2.75
2022-11-11 12:39:00.3380,1.49,0.83,0.05,1.7
2022-11-11 12:39:00.3400,0.07,0.53,-1.13,1.25
2022-11-11 12:39:00.3410,-1.07,-0.18,-2.15,2.4
2022-11-11 12:39:00.3580,-1.87,-0.43,-2.61,3.23
2022-11-11 12:39:00.3590,-2.58,-0.26,-2.56,3.64
2022-11-11 12:39:00.3690,-3.73,0.37,-2.44,4.47
2022-11-11 12:39:00.3790,-5.25,1.53,-2.06,5.84
2022-11-11 12:39:00.3890,-6.81,2.95,-1.27,7.52
2022-11-11 12:39:00.3990,-7.79,3.99,-0.91,8.79
2022-11-11 12:39:00.4090,-7.66,3.93,-1.47,8.73
2022-11-11 12:39:00.4380,-6.97,2.85,-2.85,8.05
2022-11-11 12:39:00.4390,-6.53,1.21,-4.97,8.29
2022-11-11 12:39:00.4400,-6.49,-0.33,-6.96,9.52
2022-11-11 12:39:00.4580,-6.38,-1.16,-7.87,10.19
2022-11-11 12:39:00.4590,-6.07,-0.8,-7.92,10.01
2022-11-11 12:39:00.4680,-6.2,0.57,-8.03,10.16
2022-11-11 12:39:00.4790,-7.1,2.48,-8.44,11.3
2022-11-11 12:39:00.4880,-8.4,3.8,-8.81,12.75
2022-11-11 12:39:00.4980,-9.82,3.61,-8.63,13.56
2022-11-11 12:39:00.5090,-11.14,1.97,-8.91,14.4
2022-11-11 12:39:00.5430,-11.96,-0.63,-9.64,15.37
2022-11-11 12:39:00.5440,-12.13,-3.07,-9.71,15.83
2022-11-11 12:39:00.5450,-11.53,-4.32,-8.71,15.08
2022-11-11 12:39:00.5580,-10.63,-3.88,-7.76,13.72
2022-11-11 12:39:00.5590,-9.88,-2.29,-6.85,12.23
2022-11-11 12:39:00.5680,-9.16,-0.47,-5.59,10.74
2022-11-11 12:39:00.5780,-9.07,0.58,-3.73,9.82
2022-11-11 12:39:00.5880,-8.78,1.47,-0.01,8.9
2022-11-11 12:39:00.5980,-5.54,4.42,7.8,10.53
2022-11-11 12:39:00.6080,-0.88,5.73,9.93,11.49
2022-11-11 12:39:00.6420,3.38,7.96,3.05,9.16
2022-11-11 12:39:00.6430,4.37,10.18,-3.12,11.5
2022-11-11 12:39:00.6440,2.99,7.65,-6.61,10.54
2022-11-11 12:39:00.6570,-0.2,1.6,-10.41,10.53
2022-11-11 12:39:00.6590,-3.52,-1.57,-12.55,13.12
2022-11-11 12:39:00.6670,-5.06,-1.55,-6.72,8.55
2022-11-11 12:39:00.6770,-7.38,-0.44,1.62,7.56
2022-11-11 12:39:00.6870,-10.48,0.3,4.89,11.56
2022-11-11 12:39:00.6970,-9.32,0.19,4.02,10.15
2022-11-11 12:39:00.7070,-4.5,1.08,2.06,5.06
2022-11-11 12:39:00.7410,-0.04,1.47,-1.31,1.96
2022-11-11 12:39:00.7420,4.19,0.92,-3.64,5.62
2022-11-11 12:39:00.7430,6.33,0.62,-4.84,7.99
2022-11-11 12:39:00.7560,4.59,0.5,-5.21,6.96
2022-11-11 12:39:00.7570,0.93,-0.06,-3.25,3.38
2022-11-11 12:39:00.7670,-2.48,-0.41,0.14,2.51
2022-11-11 12:39:00.7770,-4.13,-0.26,2.48,4.82
2022-11-11 12:39:00.7870,-2.77,0.27,2.8,3.94
2022-11-11 12:39:00.7970,-0.64,0.57,1.52,1.74
2022-11-11 12:39:00.8060,0.44,0.27,-0.32,0.6
2022-11-11 12:39:00.8400,0.85,-0.47,-1.2,1.54
2022-11-11 12:39:00.8410,0.35,-0.96,-1.08,1.48
2022-11-11 12:39:00.8430,-0.59,-0.9,-0.43,1.15
2022-11-11 12:39:00.8560,-0.95,-0.35,0.13,1.02
2022-11-11 12:39:00.8570,-0.86,0.24,0.44,0.99
2022-11-11 12:39:00.8660,-0.47,0.3,0.61,0.82
2022-11-11 12:39:00.8760,0.42,0.14,-0.19,0.48
2022-11-11 12:39:00.8860,1.22,0.04,-1.21,1.71
2022-11-11 12:39:00.8960,1.34,0.14,-1.73,2.19
2022-11-11 12:39:00.9060,0.79,0.47,-0.92,1.3
2022-11-11 12:39:00.9160,-0.22,0.58,-0.11,0.63
2022-11-11 12:39:00.9440,-0.76,0.33,-0.01,0.82
2022-11-11 12:39:00.9460,-0.63,0.13,-0.04,0.64
2022-11-11 12:39:00.9470,-0.39,-0.03,0.08,0.39
2022-11-11 12:39:00.9560,-0.23,-0.3,-0.72,0.81
2022-11-11 12:39:00.9650,0.41,-0.32,-0.64,0.82
2022-11-11 12:39:00.9760,0.95,-0.01,-0.72,1.19
2022-11-11 12:39:00.9850,0.81,0.12,-0.95,1.25
2022-11-11 12:39:00.9950,0.2,0.12,-0.13,0.26
2022-11-11 12:39:01.0050,-0.28,0.31,0.51,0.65
2022-11-11 12:39:01.0150,-0.4,0.63,0.73,1.04
2022-11-11 12:39:01.0450,0.08,0.7,0.11,0.71
2022-11-11 12:39:01.0460,0.89,0.15,-0.5,1.03
2022-11-11 12:39:01.0470,1.82,-0.31,-0.7,1.97
2022-11-11 12:39:01.0550,2.3,-0.42,-0.89,2.5
2022-11-11 12:39:01.0650,1.94,-0.25,-1.24,2.31
2022-11-11 12:39:01.0750,1.26,0.15,-1.16,1.71
2022-11-11 12:39:01.0850,0.97,0.63,-0.7,1.35
2022-11-11 12:39:01.0950,0.91,0.86,-0.7,1.43
2022-11-11 12:39:01.1040,1.59,1.07,-1.07,2.19
2022-11-11 12:39:01.1140,2.45,1.22,-1.44,3.09
2022-11-11 12:39:01.1440,2.53,1.24,-1.33,3.11
2022-11-11 12:39:01.1450,2.45,1.35,-0.93,2.94
2022-11-11 12:39:01.1470,2.69,1.75,-1.06,3.37
2022-11-11 12:39:01.1550,3.27,2.25,-1.17,4.13
2022-11-11 12:39:01.1640,3.64,2.79,-1.02,4.69
2022-11-11 12:39:01.1740,4.05,3.67,-1.43,5.64
2022-11-11 12:39:01.1840,4.75,4.82,-2.28,7.14
2022-11-11 12:39:01.1940,5.74,5.65,-2.47,8.42
2022-11-11 12:39:01.2040,6.37,6.17,-2.87,9.32
2022-11-11 12:39:01.2140,6.2,6.44,-3.53,9.61
2022-11-11 12:39:01.2450,6.07,6.71,-3.0,9.53
2022-11-11 12:39:01.2460,6.15,7.01,-2.6,9.68
2022-11-11 12:39:01.2470,6.46,7.14,-2.63,9.98
2022-11-11 12:39:01.2540,6.82,7.56,-3.13,10.65
2022-11-11 12:39:01.2630,6.77,7.05,-4.26,10.66
2022-11-11 12:39:01.2740,5.53,4.9,-5.15,9.0
2022-11-11 12:39:01.2830,3.5,1.91,-5.58,6.85
2022-11-11 12:39:01.2930,0.69,-0.77,-6.3,6.38
2022-11-11 12:39:01.3030,-1.77,-2.8,-6.92,7.67
2022-11-11 12:39:01.3130,-2.72,-3.65,-6.91,8.27
2022-11-11 12:39:01.3490,-0.44,-1.24,-6.35,6.48
2022-11-11 12:39:01.3500,3.19,1.02,-6.9,7.66
2022-11-11 12:39:01.3510,5.15,0.82,-8.92,10.33
2022-11-11 12:39:01.3530,5.64,-0.57,-10.44,11.87
2022-11-11 12:39:01.3630,5.55,-2.19,-10.48,12.05
2022-11-11 12:39:01.3730,4.69,-3.3,-10.24,11.73
2022-11-11 12:39:01.3830,2.97,-4.07,-10.4,11.55
2022-11-11 12:39:01.3930,1.62,-4.4,-9.55,10.63
2022-11-11 12:39:01.4030,1.46,-3.6,-8.22,9.09
2022-11-11 12:39:01.4130,1.8,-1.97,-7.74,8.18
2022-11-11 12:39:01.4470,2.03,-0.83,-8.14,8.43
2022-11-11 12:39:01.4490,2.41,-0.43,-8.57,8.91
2022-11-11 12:39:01.4500,2.76,-0.51,-9.16,9.58
2022-11-11 12:39:01.4520,2.66,-0.99,-9.93,10.32
2022-11-11 12:39:01.4620,2.52,-1.5,-10.3,10.7
2022-11-11 12:39:01.4720,2.6,-1.85,-10.33,10.81
2022-11-11 12:39:01.4820,2.77,-2.03,-10.02,10.59
2022-11-11 12:39:01.4920,2.69,-2.09,-9.86,10.43
2022-11-11 12:39:01.5020,2.15,-2.22,-9.64,10.12
2022-11-11 12:39:01.5120,1.45,-2.31,-8.91,9.31
2022-11-11 12:39:01.5470,0.88,-1.89,-7.86,8.13
2022-11-11 12:39:01.5480,0.34,-1.45,-6.83,6.99
2022-11-11 12:39:01.5490,-0.31,-1.31,-6.09,6.23
2022-11-11 12:39:01.5510,-0.84,-1.34,-5.67,5.88
2022-11-11 12:39:01.5610,-1.12,-1.46,-5.37,5.67
2022-11-11 12:39:01.5720,-1.28,-1.73,-5.25,5.67
2022-11-11 12:39:01.5810,-1.49,-2.03,-5.28,5.84
2022-11-11 12:39:01.5910,-1.72,-2.11,-5.33,5.98
2022-11-11 12:39:01.6010,-1.93,-1.83,-5.18,5.82
2022-11-11 12:39:01.6110,-2.25,-1.4,-4.98,5.64
2022-11-11 12:39:01.6470,-2.7,-0.82,-4.69,5.47
2022-11-11 12:39:01.6480,-3.1,-0.1,-4.24,5.25
2022-11-11 12:39:01.6490,-3.66,0.76,-3.9,5.4
2022-11-11 12:39:01.6510,-4.56,1.64,-3.53,5.99
2022-11-11 12:39:01.6610,-6.08,2.5,-3.05,7.24
2022-11-11 12:39:01.6710,-7.88,3.08,-2.91,8.94
2022-11-11 12:39:01.6810,-9.37,3.58,-2.48,10.33
2022-11-11 12:39:01.6910,-9.59,3.83,-1.17,10.39
2022-11-11 12:39:01.7010,-8.79,3.48,-0.03,9.45
2022-11-11 12:39:01.7110,-8.21,2.81,-0.32,8.68
2022-11-11 12:39:01.7210,-8.2,1.84,-1.1,8.47
2022-11-11 12:39:01.7520,-8.23,0.64,-1.48,8.38
2022-11-11 12:39:01.7530,-8.13,-0.24,-1.83,8.33
2022-11-11 12:39:01.7540,-7.97,-0.39,-2.05,8.23
2022-11-11 12:39:01.7710,-7.75,0.02,-1.84,7.96
2022-11-11 12:39:01.7720,-7.52,0.69,-1.22,7.64
2022-11-11 12:39:01.7800,-7.32,1.16,-0.84,7.45
2022-11-11 12:39:01.7900,-7.31,1.12,-0.93,7.45
2022-11-11 12:39:01.8000,-7.17,0.7,-0.98,7.27
2022-11-11 12:39:01.8100,-6.88,0.36,-0.82,6.93
2022-11-11 12:39:01.8200,-6.25,0.14,-0.44,6.26
2022-11-11 12:39:01.8510,-5.41,-0.06,-0.05,5.41
2022-11-11 12:39:01.8520,-3.76,0.28,0.48,3.8
2022-11-11 12:39:01.8530,0.49,1.14,1.22,1.74
2022-11-11 12:39:01.8710,8.55,3.03,6.16,10.96
2022-11-11 12:39:01.8720,13.9,6.78,8.58,17.68
2022-11-11 12:39:01.8790,7.21,8.46,0.01,11.11
2022-11-11 12:39:01.8900,-0.27,5.99,-4.01,7.21
2022-11-11 12:39:01.8990,-4.0,2.46,-2.29,5.22
2022-11-11 12:39:01.9100,-5.32,-0.1,0.79,5.37
2022-11-11 12:39:01.9190,-4.2,-0.15,2.3,4.79
2022-11-11 12:39:01.9490,-3.46,-0.57,1.51,3.81
2022-11-11 12:39:01.9500,-2.53,-1.84,0.47,3.16
2022-11-11 12:39:01.9520,-1.35,-2.49,-0.63,2.9
2022-11-11 12:39:01.9710,0.01,-2.3,-1.71,2.86
2022-11-11 12:39:01.9720,1.4,-2.03,-2.04,3.2
2022-11-11 12:39:01.9790,1.65,-1.53,-2.07,3.05
2022-11-11 12:39:01.9890,0.71,-0.56,-1.95,2.14
2022-11-11 12:39:01.9990,-1.02,0.41,-2.3,2.54
2022-11-11 12:39:02.0090,-2.5,1.34,-1.85,3.38
2022-11-11 12:39:02.0190,-3.14,2.04,-0.92,3.85
2022-11-11 12:39:02.0470,-2.79,2.08,0.08,3.48
2022-11-11 12:39:02.0480,-1.83,1.42,0.57,2.38
2022-11-11 12:39:02.0490,-0.71,0.65,0.29,1.0
2022-11-11 12:39:02.0580,-0.19,-0.1,-0.67,0.7
2022-11-11 12:39:02.0680,-0.42,-0.72,-0.94,1.25
2022-11-11 12:39:02.0780,-0.9,-0.66,-0.56,1.24
2022-11-11 12:39:02.0880,-1.32,-0.07,0.01,1.32
2022-11-11 12:39:02.0980,-1.0,0.53,0.44,1.21
2022-11-11 12:39:02.1080,-0.36,0.77,0.18,0.86
2022-11-11 12:39:02.1180,0.03,0.44,-0.42,0.6
2022-11-11 12:39:02.1550,-0.04,0.08,-0.71,0.71
2022-11-11 12:39:02.1560,-0.36,-0.03,-0.73,0.81
2022-11-11 12:39:02.1570,-1.01,0.08,-0.36,1.07
2022-11-11 12:39:02.1700,-1.75,0.48,-0.14,1.82
2022-11-11 12:39:02.1710,-1.61,0.88,0.38,1.87
2022-11-11 12:39:02.1780,-0.44,0.87,0.31,1.02
2022-11-11 12:39:02.1880,0.77,0.3,0.0,0.82
2022-11-11 12:39:02.1970,1.81,-0.27,-0.27,1.84
2022-11-11 12:39:02.2080,2.47,-0.48,-0.82,2.64
2022-11-11 12:39:02.2170,2.53,-0.57,-1.03,2.79
2022-11-11 12:39:02.2540,2.04,-0.49,-0.86,2.26
2022-11-11 12:39:02.2550,0.97,-0.37,-0.45,1.13
2022-11-11 12:39:02.2560,-0.12,-0.2,-0.07,0.24
2022-11-11 12:39:02.2690,-0.47,0.02,0.15,0.49
2022-11-11 12:39:02.2700,0.56,0.08,0.4,0.69
2022-11-11 12:39:02.2770,2.1,0.07,0.4,2.13
2022-11-11 12:39:02.2870,3.0,-0.28,0.31,3.02
2022-11-11 12:39:02.2970,2.57,-0.38,-0.61,2.66
2022-11-11 12:39:02.3070,1.67,-0.21,-1.36,2.16
2022-11-11 12:39:02.3170,0.69,0.14,-1.09,1.29
2022-11-11 12:39:02.3530,-0.57,0.75,-0.54,1.08
2022-11-11 12:39:02.3540,-1.45,1.28,-0.5,1.99
2022-11-11 12:39:02.3550,-1.14,1.44,-0.02,1.83
2022-11-11 12:39:02.3700,0.12,1.45,0.0,1.45
2022-11-11 12:39:02.3710,1.44,1.43,-0.45,2.07
2022-11-11 12:39:02.3760,2.39,1.8,-0.67,3.06
2022-11-11 12:39:02.3870,2.28,2.96,-0.79,3.81
2022-11-11 12:39:02.3960,1.8,4.62,-0.14,4.96
2022-11-11 12:39:02.4060,0.88,5.59,0.45,5.67
2022-11-11 12:39:02.4160,0.27,5.7,0.5,5.72
2022-11-11 12:39:02.4530,1.11,5.35,0.1,5.46
2022-11-11 12:39:02.4540,2.57,5.28,-0.75,5.91
2022-11-11 12:39:02.4550,3.88,5.46,-1.65,6.89
2022-11-11 12:39:02.4690,4.92,5.8,-1.73,7.79
2022-11-11 12:39:02.4700,5.7,5.94,-1.83,8.43
2022-11-11 12:39:02.4760,6.37,5.59,-1.77,8.65
2022-11-11 12:39:02.4860,6.9,5.25,-1.79,8.85
2022-11-11 12:39:02.4960,7.74,5.08,-1.67,9.4
2022-11-11 12:39:02.5060,8.88,5.15,-1.48,10.37
2022-11-11 12:39:02.5160,10.21,5.2,-1.29,11.53
2022-11-11 12:39:02.5260,11.24,4.79,-0.32,12.22
2022-11-11 12:39:02.5560,12.23,4.33,-0.14,12.97
2022-11-11 12:39:02.5570,13.55,3.39,-1.04,14.0
2022-11-11 12:39:02.5580,12.46,2.53,-3.69,13.23
2022-11-11 12:39:02.5690,10.08,3.74,-5.68,12.15
2022-11-11 12:39:02.5750,9.37,7.16,-4.15,12.5
2022-11-11 12:39:02.5850,9.58,10.78,-2.05,14.56
2022-11-11 12:39:02.5950,8.84,12.83,-3.24,15.91
2022-11-11 12:39:02.6050,7.62,11.97,-5.34,15.16
2022-11-11 12:39:02.6150,6.36,9.48,-5.63,12.72
2022-11-11 12:39:02.6250,5.01,6.95,-4.49,9.67
2022-11-11 12:39:02.6560,4.6,5.14,-3.13,7.57
2022-11-11 12:39:02.6570,5.95,5.14,-1.43,7.99
2022-11-11 12:39:02.6580,7.4,6.09,-0.21,9.58
2022-11-11 12:39:02.6690,7.2,5.24,-0.21,8.9
2022-11-11 12:39:02.6740,6.25,3.19,-0.05,7.01
2022-11-11 12:39:02.6840,5.32,1.04,0.79,5.47
2022-11-11 12:39:02.6940,4.79,-0.45,1.61,5.07
2022-11-11 12:39:02.7040,4.87,-1.19,1.79,5.32
2022-11-11 12:39:02.7140,5.15,-2.17,0.97,5.67
2022-11-11 12:39:02.7240,5.51,-3.59,-0.05,6.57
2022-11-11 12:39:02.7550,6.57,-4.66,-0.15,8.05
2022-11-11 12:39:02.7560,7.78,-4.68,0.1,9.07
2022-11-11 12:39:02.7570,7.98,-4.41,-0.04,9.11
2022-11-11 12:39:02.7690,7.14,-3.82,-0.14,8.09
2022-11-11 12:39:02.7740,5.62,-3.16,0.18,6.44
2022-11-11 12:39:02.7840,3.6,-2.88,-0.09,4.61
2022-11-11 12:39:02.7940,1.74,-2.37,-0.52,2.98
2022-11-11 12:39:02.8040,0.28,-1.09,-1.1,1.57
2022-11-11 12:39:02.8140,-1.08,0.19,-0.84,1.38
2022-11-11 12:39:02.8240,-2.59,1.1,-0.32,2.83
2022-11-11 12:39:02.8550,-4.23,1.83,-0.68,4.65
2022-11-11 12:39:02.8560,-6.16,2.32,-1.58,6.76
2022-11-11 12:39:02.8570,-8.27,3.13,-2.17,9.1
2022-11-11 12:39:02.8690,-9.23,4.72,-1.77,10.51
2022-11-11 12:39:02.8730,-9.26,6.59,-1.47,11.46
2022-11-11 12:39:02.8830,-9.82,7.4,-2.32,12.51
2022-11-11 12:39:02.8930,-10.56,6.59,-2.67,12.73
2022-11-11 12:39:02.9030,-11.23,5.28,-2.34,12.62
2022-11-11 12:39:02.9130,-11.83,4.61,-2.27,12.89
2022-11-11 12:39:02.9230,-12.28,4.67,-2.56,13.38
2022-11-11 12:39:02.9600,-12.13,5.14,-2.78,13.46
2022-11-11 12:39:02.9610,-11.71,5.25,-3.34,13.26
2022-11-11 12:39:02.9620,-12.25,4.78,-3.99,13.74
2022-11-11 12:39:02.9650,-13.88,3.45,-4.16,14.89
2022-11-11 12:39:02.9840,-15.52,1.63,-3.15,15.92
2022-11-11 12:39:02.9850,-15.78,0.22,-1.97,15.9
2022-11-11 12:39:02.9920,-14.64,-0.71,-2.06,14.8
2022-11-11 12:39:03.0020,-13.6,-0.58,-3.17,13.97
2022-11-11 12:39:03.0120,-12.97,0.55,-4.42,13.71
2022-11-11 12:39:03.0220,-12.32,1.55,-4.85,13.33
2022-11-11 12:39:03.0590,-11.51,2.83,-5.01,12.86
2022-11-11 12:39:03.0600,-7.87,4.29,-5.23,10.37
2022-11-11 12:39:03.0610,4.77,5.44,2.51,7.65
2022-11-11 12:39:03.0660,19.67,10.83,15.75,27.42
2022-11-11 12:39:03.0720,14.74,13.74,-0.2,20.15
2022-11-11 12:39:03.0830,1.86,12.33,-8.35,15.0
2022-11-11 12:39:03.0920,-3.57,6.25,-4.92,8.71
2022-11-11 12:39:03.1020,-6.01,0.13,1.25,6.13
2022-11-11 12:39:03.1120,-7.09,-0.96,0.82,7.2
2022-11-11 12:39:03.1220,-6.57,-3.33,1.11,7.44
2022-11-11 12:39:03.1580,-5.88,-5.87,0.99,8.36
2022-11-11 12:39:03.1600,-6.38,-5.2,-0.59,8.25
2022-11-11 12:39:03.1610,-6.31,-2.01,-3.0,7.27
2022-11-11 12:39:03.1660,-5.45,0.05,-5.62,7.82
2022-11-11 12:39:03.1710,-3.8,1.23,-4.79,6.23
2022-11-11 12:39:03.1830,-1.87,2.27,-2.62,3.93
2022-11-11 12:39:03.1910,-1.64,2.41,-0.73,3.0
2022-11-11 12:39:03.2010,-1.81,1.96,1.24,2.94
2022-11-11 12:39:03.2110,-1.18,1.25,1.46,2.25
2022-11-11 12:39:03.2210,0.23,0.73,0.24,0.8
2022-11-11 12:39:03.2610,2.21,0.1,-0.75,2.33
2022-11-11 12:39:03.2630,3.92,-0.28,-1.15,4.09
2022-11-11 12:39:03.2630,3.7,-0.35,-1.39,3.96
2022-11-11 12:39:03.2650,1.29,-0.15,-1.1,1.7
2022-11-11 12:39:03.2700,-1.77,0.04,-0.57,1.85
2022-11-11 12:39:03.2810,-3.72,-0.08,0.33,3.73
2022-11-11 12:39:03.2900,-3.86,0.0,0.96,3.97
2022-11-11 12:39:03.3010,-2.32,0.1,1.1,2.56
2022-11-11 12:39:03.3100,-0.27,0.2,0.42,0.53
2022-11-11 12:39:03.3210,1.45,0.17,-0.08,1.46
2022-11-11 12:39:03.3300,2.45,0.01,-0.49,2.49
2022-11-11 12:39:03.3630,2.52,-0.21,-0.85,2.66
2022-11-11 12:39:03.3640,2.05,-0.38,-1.08,2.34
2022-11-11 12:39:03.3650,1.03,-0.05,-1.18,1.56
2022-11-11 12:39:03.3850,-0.15,0.35,-0.99,1.06
2022-11-11 12:39:03.3860,-0.52,0.43,-0.58,0.88
2022-11-11 12:39:03.3900,-0.14,0.36,-0.01,0.38
2022-11-11 12:39:03.4000,0.46,0.46,0.05,0.65
2022-11-11 12:39:03.4100,1.05,0.57,-0.08,1.19
2022-11-11 12:39:03.4200,1.4,0.8,0.06,1.61
2022-11-11 12:39:03.4290,1.12,1.01,0.41,1.56
2022-11-11 12:39:03.4610,0.47,1.22,0.75,1.5
2022-11-11 12:39:03.4620,-0.44,1.67,0.79,1.89
2022-11-11 12:39:03.4630,-0.69,2.4,-0.26,2.51
2022-11-11 12:39:03.4690,0.3,3.73,0.26,3.75
2022-11-11 12:39:03.4790,1.34,4.26,-0.07,4.46
2022-11-11 12:39:03.4890,2.23,4.2,-0.14,4.75
2022-11-11 12:39:03.4990,3.48,3.72,-1.17,5.22
2022-11-11 12:39:03.5090,3.85,3.77,-0.41,5.4
2022-11-11 12:39:03.5190,3.24,4.01,-0.31,5.16
2022-11-11 12:39:03.5290,2.77,4.34,0.6,5.18
2022-11-11 12:39:03.5610,3.11,4.86,0.62,5.8
2022-11-11 12:39:03.5620,4.46,5.16,-0.09,6.82
2022-11-11 12:39:03.5630,6.06,5.24,-1.21,8.1
2022-11-11 12:39:03.5690,7.25,5.25,-2.08,9.18
2022-11-11 12:39:03.5790,8.26,5.21,-2.31,10.03
2022-11-11 12:39:03.5890,8.85,4.82,-2.29,10.33
2022-11-11 12:39:03.5990,8.55,4.23,-1.66,9.68
2022-11-11 12:39:03.6080,8.58,4.71,-0.77,9.81
2022-11-11 12:39:03.6190,10.8,6.22,-0.24,12.46
2022-11-11 12:39:03.6280,12.72,6.74,0.78,14.41
2022-11-11 12:39:03.6600,12.68,6.34,-1.18,14.22
2022-11-11 12:39:03.6610,11.27,5.68,-4.71,13.47
2022-11-11 12:39:03.6620,10.55,6.86,-6.42,14.12
2022-11-11 12:39:03.6680,10.73,9.72,-5.94,15.64
2022-11-11 12:39:03.6780,10.29,12.27,-5.4,16.89
2022-11-11 12:39:03.6880,8.42,13.11,-5.72,16.59
2022-11-11 12:39:03.6980,6.37,11.7,-5.77,14.51
2022-11-11 12:39:03.7080,5.0,9.15,-4.39,11.31
2022-11-11 12:39:03.7180,4.32,7.47,-3.74,9.4
2022-11-11 12:39:03.7280,4.93,6.77,-2.78,8.82
2022-11-11 12:39:03.7650,6.43,6.8,-1.15,9.42
2022-11-11 12:39:03.7660,6.72,5.86,-0.89,8.96
2022-11-11 12:39:03.7670,5.83,3.89,-0.4,7.02
2022-11-11 12:39:03.7840,4.4,1.65,0.8,4.76
2022-11-11 12:39:03.7850,3.13,-0.4,1.78,3.62
2022-11-11 12:39:03.7870,2.76,-1.91,1.89,3.85
2022-11-11 12:39:03.7970,3.71,-3.01,1.59,5.03
2022-11-11 12:39:03.8070,5.53,-3.81,1.26,6.83
2022-11-11 12:39:03.8170,7.16,-4.58,0.78,8.53
2022-11-11 12:39:03.8270,8.07,-5.36,-0.02,9.68
2022-11-11 12:39:03.8640,8.59,-5.61,-0.37,10.26
2022-11-11 12:39:03.8650,8.64,-5.23,-0.44,10.1
2022-11-11 12:39:03.8660,7.87,-4.66,-0.37,9.15
2022-11-11 12:39:03.8830,6.1,-3.92,-0.11,7.25
2022-11-11 12:39:03.8840,3.63,-3.57,0.13,5.09
2022-11-11 12:39:03.8870,1.47,-3.47,1.59,4.09
2022-11-11 12:39:03.8970,0.06,-2.18,2.55,3.35
2022-11-11 12:39:03.9070,-1.52,-0.42,1.83,2.41
2022-11-11 12:39:03.9170,-4.13,1.01,0.7,4.3
2022-11-11 12:39:03.9260,-7.21,1.92,-0.11,7.46
2022-11-11 12:39:03.9640,-9.76,2.46,-0.7,10.08
2022-11-11 12:39:03.9650,-10.43,3.04,-0.53,10.87
2022-11-11 12:39:03.9660,-9.64,3.92,-0.41,10.41
2022-11-11 12:39:03.9840,-8.78,5.31,-1.28,10.34
2022-11-11 12:39:03.9850,-8.7,6.18,-3.66,11.28
2022-11-11 12:39:03.9870,-9.5,6.39,-6.08,12.96
2022-11-11 12:39:03.9960,-10.78,6.52,-6.31,14.09
2022-11-11 12:39:04.0060,-12.94,6.64,-4.72,15.29
2022-11-11 12:39:04.0160,-16.04,6.74,-4.04,17.86
2022-11-11 12:39:04.0260,-18.4,6.71,-2.75,19.77
2022-11-11 12:39:04.0610,-18.87,5.97,-1.7,19.86
2022-11-11 12:39:04.0620,-18.11,4.27,-1.94,18.7
2022-11-11 12:39:04.0630,-16.8,1.81,-3.39,17.23
2022-11-11 12:39:04.0830,-15.31,-0.22,-4.4,15.93
2022-11-11 12:39:04.0840,-13.35,-1.08,-4.66,14.18
2022-11-11 12:39:04.0860,-11.73,-0.96,-5.36,12.93
2022-11-11 12:39:04.0950,-10.73,0.05,-5.4,12.01
2022-11-11 12:39:04.1050,-9.92,0.93,-4.77,11.04
2022-11-11 12:39:04.1150,-8.49,1.39,-4.55,9.73
2022-11-11 12:39:04.1250,-0.75,2.98,-0.32,3.08
2022-11-11 12:39:04.1350,13.99,7.7,14.27,21.41
2022-11-11 12:39:04.1650,16.81,13.89,9.01,23.59
2022-11-11 12:39:04.1660,4.21,13.64,-6.3,15.6
2022-11-11 12:39:04.1670,-2.27,9.64,-7.03,12.14
2022-11-11 12:39:04.1830,-5.99,2.84,-3.24,7.37
2022-11-11 12:39:04.1850,-7.34,-1.41,-0.52,7.49
2022-11-11 12:39:04.1950,-6.48,-3.1,0.22,7.18
2022-11-11 12:39:04.2050,-4.84,-4.79,0.89,6.86
2022-11-11 12:39:04.2150,-4.46,-4.78,-2.01,6.83
2022-11-11 12:39:04.2250,-4.64,-2.76,-6.14,8.17
2022-11-11 12:39:04.2350,-4.23,-0.56,-6.45,7.73
2022-11-11 12:39:04.2660,-3.0,1.43,-3.54,4.85
2022-11-11 12:39:04.2670,-2.06,2.45,-0.26,3.21
2022-11-11 12:39:04.2680,-2.16,2.32,1.0,3.32
2022-11-11 12:39:04.2820,-3.0,1.63,1.6,3.77
2022-11-11 12:39:04.2840,-3.34,1.46,1.67,4.0
2022-11-11 12:39:04.2940,-2.09,1.54,1.3,2.9
2022-11-11 12:39:04.3040,0.3,1.3,0.9,1.6
2022-11-11 12:39:04.3140,2.55,0.78,-0.37,2.69
2022-11-11 12:39:04.3240,3.83,-0.2,-2.04,4.34
2022-11-11 12:39:04.3340,3.16,-1.12,-2.31,4.07
2022-11-11 12:39:04.3650,1.01,-1.6,-2.1,2.82
2022-11-11 12:39:04.3660,-0.91,-1.69,-1.41,2.38
2022-11-11 12:39:04.3670,-1.62,-0.86,-0.45,1.88
2022-11-11 12:39:04.3820,-1.37,0.08,0.57,1.48
2022-11-11 12:39:04.3840,-0.79,0.3,0.62,1.04
2022-11-11 12:39:04.3930,-0.15,0.27,0.19,0.36
2022-11-11 12:39:04.4030,0.6,0.32,-0.01,0.68
2022-11-11 12:39:04.4130,1.1,0.57,-0.45,1.31
2022-11-11 12:39:04.4230,0.81,0.67,-0.49,1.15
2022-11-11 12:39:04.4330,0.37,0.48,-0.63,0.87
2022-11-11 12:39:04.4640,0.6,0.11,-0.56,0.82
2022-11-11 12:39:04.4650,1.53,-0.18,-0.17,1.54
2022-11-11 12:39:04.4660,2.48,-0.17,-0.31,2.5
2022-11-11 12:39:04.4800,2.52,0.05,-0.66,2.6
2022-11-11 12:39:04.4830,1.76,0.33,-0.52,1.86
2022-11-11 12:39:04.4930,0.77,0.76,-0.09,1.08
2022-11-11 12:39:04.5030,-0.11,1.1,0.37,1.16
2022-11-11 12:39:04.5130,-0.26,1.4,0.58,1.53
2022-11-11 12:39:04.5230,0.09,1.87,-0.05,1.87
2022-11-11 12:39:04.5330,0.89,2.1,-1.25,2.6
2022-11-11 12:39:04.5700,1.84,2.76,-0.58,3.36
2022-11-11 12:39:04.5710,2.01,3.3,-0.46,3.89
2022-11-11 12:39:04.5720,2.43,3.45,-0.11,4.22
2022-11-11 12:39:04.5800,2.87,3.51,-0.25,4.54
2022-11-11 12:39:04.5820,3.18,4.08,0.4,5.18
2022-11-11 12:39:04.5920,3.45,4.28,0.43,5.51
2022-11-11 12:39:04.6020,4.08,4.31,0.76,5.98
2022-11-11 12:39:04.6120,4.57,4.46,-0.13,6.38
2022-11-11 12:39:04.6220,5.02,4.87,-0.83,7.04
2022-11-11 12:39:04.6320,5.39,5.47,-0.93,7.73
2022-11-11 12:39:04.6680,5.93,5.92,-0.69,8.4
2022-11-11 12:39:04.6690,6.94,5.85,-0.37,9.08
2022-11-11 12:39:04.6700,8.0,5.26,-0.17,9.57
2022-11-11 12:39:04.6820,8.92,4.72,-0.06,10.09
2022-11-11 12:39:04.6820,10.1,4.86,-0.43,11.21
2022-11-11 12:39:04.6920,11.36,5.64,-1.26,12.74
2022-11-11 12:39:04.7020,11.67,6.46,-1.21,13.39
2022-11-11 12:39:04.7110,13.01,7.16,-1.48,14.92
2022-11-11 12:39:04.7210,12.41,6.77,-3.91,14.66
2022-11-11 12:39:04.7310,9.86,7.41,-7.31,14.33
2022-11-11 12:39:04.7670,8.47,9.74,-8.25,15.31
2022-11-11 12:39:04.7680,8.27,11.72,-6.7,15.83
2022-11-11 12:39:04.7700,7.71,12.35,-5.58,15.59
2022-11-11 12:39:04.7810,6.7,10.93,-5.6,13.98
2022-11-11 12:39:04.7820,5.58,8.69,-6.02,11.95
2022-11-11 12:39:04.7910,4.15,7.17,-6.54,10.55
2022-11-11 12:39:04.8010,3.14,5.92,-5.47,8.65
2022-11-11 12:39:04.8110,3.48,5.14,-3.11,6.94
2022-11-11 12:39:04.8210,4.27,4.35,-0.66,6.13
2022-11-11 12:39:04.8310,4.24,2.38,0.58,4.89
2022-11-11 12:39:04.8660,3.52,-0.17,1.33,3.76
2022-11-11 12:39:04.8670,2.68,-2.59,1.81,4.14
2022-11-11 12:39:04.8680,2.39,-4.31,1.93,5.29
2022-11-11 12:39:04.8810,2.97,-4.62,1.72,5.75
2022-11-11 12:39:04.8820,4.34,-4.35,1.4,6.3
2022-11-11 12:39:04.8900,5.94,-4.77,1.22,7.71
2022-11-11 12:39:04.9000,7.31,-5.9,0.84,9.43
2022-11-11 12:39:04.9100,7.82,-6.88,0.07,10.41
2022-11-11 12:39:04.9200,7.72,-6.65,-0.45,10.19
2022-11-11 12:39:04.9300,8.0,-5.15,-0.38,9.52
2022-11-11 12:39:04.9400,7.44,-4.19,-0.72,8.56
2022-11-11 12:39:04.9720,5.1,-3.83,-0.67,6.41
2022-11-11 12:39:04.9730,2.2,-3.46,0.22,4.1
2022-11-11 12:39:04.9740,-0.21,-2.75,1.14,2.98
2022-11-11 12:39:04.9800,-2.11,-1.57,0.69,2.71
2022-11-11 12:39:04.9900,-3.96,-0.18,-0.04,3.96
2022-11-11 12:39:05.0000,-5.8,0.99,-0.5,5.9
2022-11-11 12:39:05.0100,-7.74,1.48,-1.24,7.97
2022-11-11 12:39:05.0200,-9.26,1.41,-1.91,9.55
2022-11-11 12:39:05.0290,-9.47,1.58,-2.17,9.84
2022-11-11 12:39:05.0390,-8.34,2.7,-1.95,8.98
2022-11-11 12:39:05.0700,-7.61,3.92,-2.5,8.91
2022-11-11 12:39:05.0710,-7.97,4.77,-3.74,10.01
2022-11-11 12:39:05.0720,-8.66,5.52,-4.71,11.29
2022-11-11 12:39:05.0800,-9.34,6.19,-4.93,12.24
2022-11-11 12:39:05.0890,-10.45,7.09,-4.85,13.52
2022-11-11 12:39:05.0990,-11.96,8.5,-4.93,15.47
2022-11-11 12:39:05.1090,-13.34,9.68,-4.45,17.07
2022-11-11 12:39:05.1190,-14.32,9.15,-3.96,17.44
2022-11-11 12:39:05.1290,-15.58,5.87,-3.5,17.01
2022-11-11 12:39:05.1390,-17.07,1.59,-3.05,17.41
2022-11-11 12:39:05.1700,-17.13,-0.78,-2.55,17.33
2022-11-11 12:39:05.1710,-14.9,-1.46,-2.21,15.13
2022-11-11 12:39:05.1720,-11.86,-1.19,-1.86,12.06
2022-11-11 12:39:05.1800,-9.71,-0.3,-2.48,10.02
2022-11-11 12:39:05.1880,-8.34,0.73,-3.04,8.9
2022-11-11 12:39:05.1980,-6.94,1.73,-2.35,7.52
2022-11-11 12:39:05.2080,-5.13,2.95,-1.18,6.03
2022-11-11 12:39:05.2180,0.01,4.63,0.21,4.63
2022-11-11 12:39:05.2280,15.03,7.12,10.85,19.85
2022-11-11 12:39:05.2380,26.24,10.81,16.02,32.58
2022-11-11 12:39:05.2680,11.64,10.84,-3.98,16.39
2022-11-11 12:39:05.2690,-0.89,8.96,-8.2,12.17
2022-11-11 12:39:05.2700,-6.05,4.34,-5.93,9.51
2022-11-11 12:39:05.2800,-8.74,0.62,-0.32,8.76
2022-11-11 12:39:05.2880,-8.67,-0.8,0.42,8.71
2022-11-11 12:39:05.2980,-7.27,-2.03,1.84,7.76
2022-11-11 12:39:05.3080,-6.32,-3.74,1.07,7.42
2022-11-11 12:39:05.3180,-6.21,-4.15,-2.28,7.8
2022-11-11 12:39:05.3280,-5.91,-2.87,-6.28,9.08
2022-11-11 12:39:05.3370,-4.83,-0.82,-5.88,7.65
2022-11-11 12:39:05.3740,-3.37,1.62,-3.34,5.01
2022-11-11 12:39:05.3750,-2.98,2.44,-0.53,3.88
2022-11-11 12:39:05.3760,-2.4,2.46,1.73,3.84
2022-11-11 12:39:05.3770,-1.8,2.24,2.1,3.55
2022-11-11 12:39:05.3870,-1.05,1.92,1.23,2.51
2022-11-11 12:39:05.3970,0.24,1.43,0.14,1.45
2022-11-11 12:39:05.4070,1.7,1.08,-0.47,2.06
2022-11-11 12:39:05.4170,2.47,0.87,-0.77,2.72
2022-11-11 12:39:05.4270,1.98,0.38,-1.33,2.41
2022-11-11 12:39:05.4370,0.01,-0.49,-1.04,1.14
2022-11-11 12:39:05.4720,-2.48,-1.24,-0.47,2.81
2022-11-11 12:39:05.4740,-3.14,-1.41,0.01,3.44
2022-11-11 12:39:05.4750,-1.05,-0.92,0.3,1.42
2022-11-11 12:39:05.4770,1.31,-0.41,-0.27,1.39
2022-11-11 12:39:05.4860,2.39,-0.14,-0.77,2.51
2022-11-11 12:39:05.4960,2.44,-0.03,-0.77,2.55
2022-11-11 12:39:05.5060,1.9,0.05,-0.8,2.06
2022-11-11 12:39:05.5160,1.1,0.05,-0.49,1.2
2022-11-11 12:39:05.5260,0.44,0.02,-0.32,0.54
2022-11-11 12:39:05.5360,0.44,0.02,-0.18,0.47
2022-11-11 12:39:05.5720,1.15,-0.14,-0.1,1.16
2022-11-11 12:39:05.5730,1.79,-0.29,0.01,1.81
2022-11-11 12:39:05.5740,1.92,-0.34,-0.21,1.96
2022-11-11 12:39:05.5760,1.99,-0.21,0.03,2.0
2022-11-11 12:39:05.5860,1.85,0.11,0.41,1.89
2022-11-11 12:39:05.5960,1.24,0.42,0.13,1.31
2022-11-11 12:39:05.6060,0.45,0.74,-0.45,0.97
2022-11-11 12:39:05.6160,-0.05,0.96,-0.34,1.01
2022-11-11 12:39:05.6260,0.04,1.07,-0.31,1.11
2022-11-11 12:39:05.6360,0.53,1.01,-0.42,1.21
2022-11-11 12:39:05.6700,1.28,1.11,-0.29,1.71
2022-11-11 12:39:05.6710,1.86,1.31,-0.5,2.32
2022-11-11 12:39:05.6720,2.26,1.76,-0.34,2.88
2022-11-11 12:39:05.6760,2.25,2.38,-0.22,3.28
2022-11-11 12:39:05.6850,2.21,2.94,0.27,3.68
2022-11-11 12:39:05.6950,2.18,3.31,0.36,3.97
2022-11-11 12:39:05.7050,2.15,3.43,-0.08,4.04
2022-11-11 12:39:05.7150,2.18,3.57,-0.78,4.25
2022-11-11 12:39:05.7250,2.38,3.95,-0.08,4.61
2022-11-11 12:39:05.7350,2.56,4.14,-0.05,4.86
2022-11-11 12:39:05.7450,3.05,4.24,0.46,5.24
2022-11-11 12:39:05.7740,3.59,4.62,0.8,5.9
2022-11-11 12:39:05.7750,4.61,5.25,0.45,7.0
2022-11-11 12:39:05.7760,6.38,6.45,-0.09,9.07
2022-11-11 12:39:05.7970,8.41,8.08,-0.04,11.66
2022-11-11 12:39:05.7980,9.6,9.4,-0.14,13.43
2022-11-11 12:39:05.8040,9.83,9.87,-0.35,13.93
2022-11-11 12:39:05.8150,9.39,9.76,-1.33,13.6
2022-11-11 12:39:05.8240,9.69,9.04,-1.43,13.32
2022-11-11 12:39:05.8340,8.83,8.21,-3.52,12.56
2022-11-11 12:39:05.8440,6.0,8.1,-6.62,12.05
2022-11-11 12:39:05.8740,2.66,8.45,-6.36,10.9
2022-11-11 12:39:05.8750,0.42,8.73,-3.82,9.53
2022-11-11 12:39:05.8760,0.14,8.82,-2.72,9.23
2022-11-11 12:39:05.8970,2.76,8.37,-0.69,8.84
2022-11-11 12:39:05.8980,5.04,5.32,1.48,7.47
2022-11-11 12:39:05.9040,5.37,0.49,2.19,5.82
2022-11-11 12:39:05.9140,4.57,-2.98,1.54,5.66
2022-11-11 12:39:05.9240,4.52,-3.68,1.62,6.04
2022-11-11 12:39:05.9340,5.65,-3.01,1.82,6.65
2022-11-11 12:39:05.9440,7.07,-3.34,1.21,7.91
2022-11-11 12:39:05.9730,8.71,-5.32,0.63,10.22
2022-11-11 12:39:05.9740,10.6,-7.45,0.64,12.97
2022-11-11 12:39:05.9750,11.32,-7.88,-0.27,13.79
2022-11-11 12:39:05.9830,10.68,-6.51,-0.69,12.52
2022-11-11 12:39:05.9930,9.54,-4.83,-0.17,10.69
2022-11-11 12:39:06.0030,8.0,-4.01,0.41,8.95
2022-11-11 12:39:06.0130,6.4,-3.79,1.26,7.54
2022-11-11 12:39:06.0230,5.06,-3.55,2.77,6.77
2022-11-11 12:39:06.0330,3.51,-2.92,3.72,5.88
2022-11-11 12:39:06.0430,1.45,-1.66,3.7,4.3
2022-11-11 12:39:06.0730,-1.1,-0.2,3.24,3.42
2022-11-11 12:39:06.0750,-3.82,1.02,3.01,4.96
2022-11-11 12:39:06.0760,-6.45,1.96,2.7,7.26
2022-11-11 12:39:06.0960,-8.63,2.29,1.74,9.09
2022-11-11 12:39:06.0970,-9.59,2.19,0.12,9.83
2022-11-11 12:39:06.1030,-9.08,2.22,-1.29,9.43
2022-11-11 12:39:06.1120,-7.71,2.56,-2.36,8.45
2022-11-11 12:39:06.1220,-6.82,2.93,-3.68,8.28
2022-11-11 12:39:06.1320,-6.62,3.49,-4.65,8.81
2022-11-11 12:39:06.1420,-7.21,4.03,-4.7,9.5
2022-11-11 12:39:06.1780,-8.64,4.91,-3.75,10.62
2022-11-11 12:39:06.1790,-10.78,5.75,-1.62,12.32
2022-11-11 12:39:06.1800,-13.46,6.44,0.75,14.94
2022-11-11 12:39:06.1950,-15.75,6.91,2.0,17.31
2022-11-11 12:39:06.1960,-16.07,6.66,2.21,17.53
2022-11-11 12:39:06.2020,-14.27,5.13,1.37,15.22
2022-11-11 12:39:06.2120,-11.89,2.57,0.42,12.17
2022-11-11 12:39:06.2220,-9.96,-0.27,-0.04,9.96
2022-11-11 12:39:06.2320,-8.28,-2.15,0.29,8.55
2022-11-11 12:39:06.2420,-6.44,-2.5,0.93,6.97
2022-11-11 12:39:06.2780,-5.14,-1.47,1.11,5.46
2022-11-11 12:39:06.2790,-4.36,-0.46,1.45,4.61
2022-11-11 12:39:06.2800,-3.8,-0.06,2.12,4.35
2022-11-11 12:39:06.2950,-3.63,0.35,2.78,4.58
2022-11-11 12:39:06.2960,-3.22,0.72,3.92,5.12
2022-11-11 12:39:06.3010,-1.96,0.94,4.37,4.88
2022-11-11 12:39:06.3110,1.39,1.29,2.85,3.42
2022-11-11 12:39:06.3210,8.2,1.66,-0.01,8.36
2022-11-11 12:39:06.3310,15.03,4.99,4.65,16.5
2022-11-11 12:39:06.3410,12.68,9.73,1.04,16.01
2022-11-11 12:39:06.3780,4.94,8.88,-5.82,11.71
2022-11-11 12:39:06.3790,1.5,6.54,-5.65,8.77
2022-11-11 12:39:06.3800,-1.19,3.43,-4.98,6.16
2022-11-11 12:39:06.3950,-3.25,0.42,-4.39,5.47
2022-11-11 12:39:06.3960,-4.66,-2.01,-1.24,5.22
2022-11-11 12:39:06.4010,-7.4,-3.52,2.6,8.59
2022-11-11 12:39:06.4100,-10.44,-2.7,2.69,11.11
2022-11-11 12:39:06.4200,-10.13,-0.6,1.18,10.21
2022-11-11 12:39:06.4310,-5.94,2.21,1.32,6.47
2022-11-11 12:39:06.4410,-2.49,2.33,1.07,3.57
2022-11-11 12:39:06.4770,-0.94,0.87,0.02,1.28
2022-11-11 12:39:06.4780,0.18,0.21,-0.55,0.61
2022-11-11 12:39:06.4790,1.25,0.11,-0.66,1.41
2022-11-11 12:39:06.4940,2.29,0.24,-0.86,2.45
2022-11-11 12:39:06.4950,2.03,0.69,-1.23,2.47
2022-11-11 12:39:06.5000,0.48,0.87,-1.12,1.49
2022-11-11 12:39:06.5100,-0.99,0.52,-0.52,1.23
2022-11-11 12:39:06.5200,-1.56,0.16,0.44,1.62
2022-11-11 12:39:06.5300,-1.44,0.02,0.49,1.52
2022-11-11 12:39:06.5400,-0.88,-0.03,0.17,0.89
2022-11-11 12:39:06.5500,0.06,-0.15,-0.19,0.24
2022-11-11 12:39:06.5810,0.91,-0.62,-0.74,1.32
2022-11-11 12:39:06.5820,1.12,-1.01,-0.73,1.67
2022-11-11 12:39:06.5830,1.11,-0.99,-0.83,1.7
2022-11-11 12:39:06.5940,1.02,-0.84,-0.94,1.62
2022-11-11 12:39:06.6000,0.75,-0.52,-0.89,1.27
2022-11-11 12:39:06.6090,0.34,-0.18,-0.88,0.96
2022-11-11 12:39:06.6190,-0.03,0.09,-0.42,0.43
2022-11-11 12:39:06.6290,-0.44,0.31,-0.06,0.54
2022-11-11 12:39:06.6390,-0.55,0.41,0.41,0.79
2022-11-11 12:39:06.6490,-0.13,0.39,0.71,0.82
2022-11-11 12:39:06.6800,0.48,0.32,0.08,0.58
2022-11-11 12:39:06.6810,0.94,0.12,-0.32,1.0
2022-11-11 12:39:06.6820,0.97,0.04,-0.41,1.05
2022-11-11 12:39:06.6940,0.63,0.09,-0.23,0.67
2022-11-11 12:39:06.6990,0.31,0.14,-0.16,0.37
2022-11-11 12:39:06.7090,0.06,0.09,-0.03,0.11
2022-11-11 12:39:06.7190,-0.01,-0.05,-0.16,0.16
2022-11-11 12:39:06.7290,-0.03,-0.12,-0.2,0.23
2022-11-11 12:39:06.7380,-0.31,-0.05,-0.28,0.42
2022-11-11 12:39:06.7490,-0.5,0.0,-0.28,0.57
2022-11-11 12:39:06.7790,-0.48,-0.04,-0.18,0.51
2022-11-11 12:39:06.7800,-0.24,-0.09,-0.33,0.41
2022-11-11 12:39:06.7810,0.22,0.02,-0.45,0.5
2022-11-11 12:39:06.7940,0.64,0.22,-0.51,0.84
2022-11-11 12:39:06.7980,0.65,0.22,-0.67,0.95
2022-11-11 12:39:06.8080,0.25,0.02,-0.9,0.93
2022-11-11 12:39:06.8180,0.05,-0.18,-0.78,0.8
2022-11-11 12:39:06.8280,0.13,-0.16,-0.51,0.55
2022-11-11 12:39:06.8380,0.22,0.07,-0.65,0.68
2022-11-11 12:39:06.8480,0.07,0.23,-0.49,0.54
2022-11-11 12:39:06.8790,-0.25,0.38,-0.48,0.66
2022-11-11 12:39:06.8810,-0.29,0.42,-0.28,0.58
2022-11-11 12:39:06.8820,-0.54,0.09,-0.29,0.61
2022-11-11 12:39:06.8940,-1.16,-0.51,-0.66,1.42
2022-11-11 12:39:06.8980,-1.2,-0.92,-1.65,2.23
2022-11-11 12:39:06.9070,-0.97,-1.1,-3.12,3.44
2022-11-11 12:39:06.9170,-1.04,-1.06,-4.5,4.73
2022-11-11 12:39:06.9270,-1.13,-0.88,-4.95,5.15
2022-11-11 12:39:06.9370,-1.04,-0.57,-4.83,4.97
2022-11-11 12:39:06.9470,-0.7,-0.28,-4.34,4.4
2022-11-11 12:39:06.9840,0.04,-0.11,-3.84,3.84
2022-11-11 12:39:06.9860,1.35,-0.2,-4.37,4.57
2022-11-11 12:39:06.9870,2.5,-0.34,-4.84,5.45
2022-11-11 12:39:06.9900,3.17,-0.21,-4.2,5.26
2022-11-11 12:39:06.9970,3.12,0.28,-3.61,4.77
2022-11-11 12:39:07.0070,2.36,0.68,-3.15,3.99
2022-11-11 12:39:07.0170,1.55,0.61,-2.51,3.01
2022-11-11 12:39:07.0270,1.19,0.28,-1.83,2.2
2022-11-11 12:39:07.0370,1.01,0.16,-1.5,1.81
2022-11-11 12:39:07.0470,0.81,0.29,-1.37,1.61
2022-11-11 12:39:07.0820,1.09,0.18,-1.14,1.58
2022-11-11 12:39:07.0840,1.56,-0.38,-0.93,1.85
2022-11-11 12:39:07.0850,1.65,-0.86,-0.57,1.94
2022-11-11 12:39:07.0900,1.29,-0.96,0.05,1.6
2022-11-11 12:39:07.0960,0.71,-0.81,0.68,1.27
2022-11-11 12:39:07.1060,0.31,-0.5,1.13,1.27
2022-11-11 12:39:07.1160,0.21,-0.29,1.42,1.46
2022-11-11 12:39:07.1260,0.21,-0.31,1.8,1.83
2022-11-11 12:39:07.1360,0.32,-0.13,2.0,2.02
2022-11-11 12:39:07.1460,0.85,-0.04,2.16,2.32
2022-11-11 12:39:07.1820,1.56,0.01,1.87,2.43
2022-11-11 12:39:07.1830,2.32,0.04,1.21,2.61
2022-11-11 12:39:07.1840,3.06,-0.04,0.93,3.19
2022-11-11 12:39:07.1930,3.49,0.05,0.78,3.57
2022-11-11 12:39:07.1950,3.54,0.32,1.1,3.72
2022-11-11 12:39:07.2060,3.21,0.61,1.65,3.66
2022-11-11 12:39:07.2160,2.58,0.84,2.02,3.38
2022-11-11 12:39:07.2250,2.05,0.93,2.42,3.3
2022-11-11 12:39:07.2350,1.64,0.99,3.33,3.84
2022-11-11 12:39:07.2450,1.27,1.3,4.39,4.75
2022-11-11 12:39:07.2810,0.46,0.93,2.96,3.13
2022-11-11 12:39:07.2830,0.21,0.8,1.94,2.1
2022-11-11 12:39:07.2840,0.68,0.79,1.89,2.15
2022-11-11 12:39:07.2930,0.97,0.34,1.54,1.85
2022-11-11 12:39:07.2950,0.58,-0.29,0.89,1.1
2022-11-11 12:39:07.3050,-0.04,-0.93,0.61,1.11
2022-11-11 12:39:07.3150,-0.51,-1.2,0.34,1.34
2022-11-11 12:39:07.3250,-0.22,-0.93,0.24,0.98
2022-11-11 12:39:07.3350,0.33,-0.57,0.09,0.66
2022-11-11 12:39:07.3450,0.35,-0.65,-0.95,1.2
2022-11-11 12:39:07.3550,0.01,-1.16,-2.64,2.88
2022-11-11 12:39:07.3840,-0.58,-1.62,-4.19,4.52
2022-11-11 12:39:07.3850,-0.24,-1.36,-3.99,4.22
2022-11-11 12:39:07.3860,1.2,-0.33,-3.01,3.25
2022-11-11 12:39:07.3940,2.63,1.07,-2.22,3.6
2022-11-11 12:39:07.4080,3.06,2.12,-1.5,4.01
2022-11-11 12:39:07.4140,2.23,2.06,-1.19,3.26
2022-11-11 12:39:07.4240,0.81,1.25,-0.71,1.65
2022-11-11 12:39:07.4340,-0.22,0.49,0.2,0.57
2022-11-11 12:39:07.4440,-0.3,0.26,1.26,1.32
2022-11-11 12:39:07.4540,0.11,0.21,1.62,1.63
2022-11-11 12:39:07.4840,0.51,-0.01,1.22,1.32
2022-11-11 12:39:07.4850,0.97,-0.23,0.61,1.16
2022-11-11 12:39:07.4860,1.83,-0.39,0.18,1.87
2022-11-11 12:39:07.4940,2.7,-0.44,-0.15,2.73
2022-11-11 12:39:07.5070,2.55,-0.49,-0.95,2.76
2022-11-11 12:39:07.5140,1.08,-0.64,-1.14,1.69
2022-11-11 12:39:07.5230,-1.01,-0.6,-0.57,1.3
2022-11-11 12:39:07.5330,-2.58,-0.29,0.71,2.69
2022-11-11 12:39:07.5430,-3.04,0.27,1.4,3.35
2022-11-11 12:39:07.5530,-2.41,0.59,1.03,2.68
2022-11-11 12:39:07.5830,-0.86,0.4,0.76,1.21
2022-11-11 12:39:07.5850,0.11,0.0,0.19,0.21
2022-11-11 12:39:07.5860,0.15,-0.33,-0.17,0.4
2022-11-11 12:39:07.5930,-0.13,-0.36,0.14,0.4
2022-11-11 12:39:07.6030,-0.58,-0.07,0.98,1.14
2022-11-11 12:39:07.6130,-1.43,0.37,1.23,1.92
2022-11-11 12:39:07.6230,-1.9,0.61,1.34,2.4
2022-11-11 12:39:07.6330,-1.38,0.67,1.14,1.91
2022-11-11 12:39:07.6430,-0.29,0.52,0.22,0.63
2022-11-11 12:39:07.6530,0.4,0.09,-0.65,0.76
2022-11-11 12:39:07.6830,0.46,-0.08,-1.4,1.47
2022-11-11 12:39:07.6840,-0.28,0.11,-1.47,1.5
2022-11-11 12:39:07.6860,-1.31,0.54,-0.71,1.58
2022-11-11 12:39:07.6920,-1.63,1.09,0.23,1.97
2022-11-11 12:39:07.7070,-1.09,1.34,0.44,1.78
2022-11-11 12:39:07.7120,-0.32,0.85,-0.2,0.93
2022-11-11 12:39:07.7220,0.54,0.16,-0.94,1.09
2022-11-11 12:39:07.7320,1.5,-0.19,-1.44,2.08
2022-11-11 12:39:07.7420,1.78,-0.41,-1.78,2.55
2022-11-11 12:39:07.7520,1.31,-0.57,-1.7,2.22
2022-11-11 12:39:07.7880,0.68,-0.58,-0.98,1.32
2022-11-11 12:39:07.7890,0.46,-0.45,-0.49,0.8
2022-11-11 12:39:07.7900,0.96,-0.4,-0.52,1.16
2022-11-11 12:39:07.8090,1.68,-0.57,-0.9,1.98
2022-11-11 12:39:07.8100,1.97,-0.79,-0.99,2.34
2022-11-11 12:39:07.8120,1.04,-0.61,-0.78,1.43
2022-11-11 12:39:07.8220,0.17,-0.18,0.06,0.25
2022-11-11 12:39:07.8320,0.23,0.26,0.57,0.66
2022-11-11 12:39:07.8410,0.6,0.29,0.16,0.68
2022-11-11 12:39:07.8510,1.02,0.06,-0.12,1.02
2022-11-11 12:39:07.8870,1.32,-0.08,-0.15,1.33
2022-11-11 12:39:07.8880,1.46,-0.18,-0.22,1.48
2022-11-11 12:39:07.8890,1.62,-0.06,-0.4,1.66
2022-11-11 12:39:07.9090,1.14,0.15,-0.57,1.28
2022-11-11 12:39:07.9100,0.14,0.1,-0.22,0.27
2022-11-11 12:39:07.9120,-0.21,0.16,0.32,0.41
2022-11-11 12:39:07.9210,-0.25,0.4,0.32,0.57
2022-11-11 12:39:07.9310,0.14,0.54,0.08,0.56
2022-11-11 12:39:07.9410,1.06,0.56,-0.2,1.21
2022-11-11 12:39:07.9510,1.82,0.42,-0.67,1.98
2022-11-11 12:39:07.9850,1.92,-0.05,-0.79,2.07
2022-11-11 12:39:07.9870,1.8,-0.53,0.14,1.88
2022-11-11 12:39:07.9870,1.6,-0.65,1.21,2.1
2022-11-11 12:39:07.9900,1.61,-0.46,0.85,1.87
2022-11-11 12:39:08.0000,1.44,-0.03,0.28,1.46
2022-11-11 12:39:08.0110,0.46,0.69,-0.03,0.82
2022-11-11 12:39:08.0200,-0.4,1.25,-0.59,1.43
2022-11-11 12:39:08.0300,-0.06,1.86,-0.67,1.97
2022-11-11 12:39:08.0400,0.64,2.33,-0.67,2.5
2022-11-11 12:39:08.0500,1.41,2.68,-0.53,3.07
2022-11-11 12:39:08.0860,1.83,2.95,-0.61,3.52
2022-11-11 12:39:08.0870,1.7,3.02,-0.8,3.55
2022-11-11 12:39:08.0880,1.36,3.43,-0.58,3.73
2022-11-11 12:39:08.1090,0.83,4.66,-0.39,4.74
2022-11-11 12:39:08.1100,0.14,5.63,-0.37,5.64
2022-11-11 12:39:08.1120,-0.25,6.17,0.34,6.18
2022-11-11 12:39:08.1200,-0.09,6.43,0.93,6.49
2022-11-11 12:39:08.1300,0.94,5.64,0.9,5.78
2022-11-11 12:39:08.1400,2.45,4.24,0.41,4.91
2022-11-11 12:39:08.1490,3.78,3.56,-0.17,5.19
2022-11-11 12:39:08.1600,4.57,3.73,-0.63,5.93
2022-11-11 12:39:08.1890,5.38,4.51,-0.27,7.02
2022-11-11 12:39:08.1900,6.35,5.89,0.52,8.67
2022-11-11 12:39:08.1910,7.57,7.28,0.79,10.53
2022-11-11 12:39:08.2080,9.65,7.75,1.27,12.44
2022-11-11 12:39:08.2090,11.89,7.1,2.15,14.01
2022-11-11 12:39:08.2190,12.57,5.33,2.06,13.8
2022-11-11 12:39:08.2290,11.58,3.1,1.0,12.02
2022-11-11 12:39:08.2390,10.44,2.21,-1.14,10.73
2022-11-11 12:39:08.2490,9.81,3.56,-2.3,10.68
2022-11-11 12:39:08.2590,10.29,6.39,-2.41,12.35
2022-11-11 12:39:08.2880,11.37,8.8,-2.14,14.53
2022-11-11 12:39:08.2900,11.63,9.8,-2.54,15.41
2022-11-11 12:39:08.2910,10.53,9.18,-3.82,14.48
2022-11-11 12:39:08.3080,7.98,8.3,-4.86,12.49
2022-11-11 12:39:08.3090,5.12,8.12,-4.64,10.66
2022-11-11 12:39:08.3180,2.07,7.69,-2.55,8.36
2022-11-11 12:39:08.3290,-0.41,7.33,-1.22,7.44
2022-11-11 12:39:08.3380,-1.13,7.09,-0.91,7.23
2022-11-11 12:39:08.3480,0.78,7.16,-0.08,7.2
2022-11-11 12:39:08.3580,4.46,7.64,0.07,8.84
2022-11-11 12:39:08.3870,7.24,6.24,-1.19,9.63
2022-11-11 12:39:08.3880,8.66,3.6,-2.15,9.62
2022-11-11 12:39:08.3890,7.95,0.78,-1.92,8.21
2022-11-11 12:39:08.4080,6.1,-0.66,-0.93,6.2
2022-11-11 12:39:08.4090,5.2,-1.34,-0.31,5.37
2022-11-11 12:39:08.4180,5.65,-2.34,-0.52,6.13
2022-11-11 12:39:08.4280,6.64,-3.39,-1.12,7.53
2022-11-11 12:39:08.4380,7.84,-4.12,-1.6,9.0
2022-11-11 12:39:08.4480,8.35,-4.32,-2.16,9.64
2022-11-11 12:39:08.4580,7.35,-3.92,-3.11,8.89
2022-11-11 12:39:08.4870,5.19,-3.22,-3.44,7.0
2022-11-11 12:39:08.4880,2.47,-2.76,-3.13,4.84
2022-11-11 12:39:08.4890,-0.38,-2.73,-3.59,4.52
2022-11-11 12:39:08.5080,-2.28,-3.01,-3.8,5.35
2022-11-11 12:39:08.5090,-5.25,-2.67,-3.62,6.91
2022-11-11 12:39:08.5170,-9.81,-0.68,-0.35,9.83
2022-11-11 12:39:08.5270,-11.08,2.71,1.59,11.51
2022-11-11 12:39:08.5370,-9.47,3.07,-1.31,10.04
2022-11-11 12:39:08.5470,-7.46,-0.24,-5.05,9.01
2022-11-11 12:39:08.5570,-5.38,-3.29,-7.05,9.45
2022-11-11 12:39:08.5930,-3.72,-4.74,-8.38,10.32
2022-11-11 12:39:08.5940,-3.14,-3.88,-8.7,10.03
2022-11-11 12:39:08.5950,-4.29,-0.63,-7.93,9.03
2022-11-11 12:39:08.6070,-6.84,3.11,-6.95,10.23
2022-11-11 12:39:08.6080,-10.8,6.0,-5.57,13.55
2022-11-11 12:39:08.6160,-15.43,7.63,-2.51,17.39
2022-11-11 12:39:08.6270,-18.42,7.96,0.66,20.07
2022-11-11 12:39:08.6360,-18.34,6.93,0.48,19.61
2022-11-11 12:39:08.6460,-15.64,4.86,-2.05,16.5
2022-11-11 12:39:08.6560,-12.61,2.86,-3.7,13.44
2022-11-11 12:39:08.6910,-10.06,1.19,-3.6,10.75
2022-11-11 12:39:08.6920,-8.35,0.55,-3.19,8.95
2022-11-11 12:39:08.6930,-7.15,1.2,-2.96,7.83
2022-11-11 12:39:08.7070,-5.82,1.69,-1.98,6.37
2022-11-11 12:39:08.7080,-5.54,1.68,-1.05,5.88
2022-11-11 12:39:08.7160,-7.13,0.78,-0.54,7.19
2022-11-11 12:39:08.7260,-9.37,-0.08,0.17,9.37
2022-11-11 12:39:08.7360,-11.02,0.39,0.43,11.03
2022-11-11 12:39:08.7460,-11.26,2.16,1.03,11.51
2022-11-11 12:39:08.7560,-10.44,4.27,1.05,11.32
2022-11-11 12:39:08.7910,-5.26,6.53,1.6,8.53
2022-11-11 12:39:08.7920,7.49,7.33,10.27,14.67
2022-11-11 12:39:08.7930,17.48,11.26,14.88,25.56
2022-11-11 12:39:08.8060,7.98,13.18,-1.89,15.52
2022-11-11 12:39:08.8070,-1.74,9.94,-8.04,12.9
2022-11-11 12:39:08.8150,-7.28,4.02,-7.71,11.34
2022-11-11 12:39:08.8250,-9.78,-0.9,-2.85,10.22
2022-11-11 12:39:08.8350,-8.05,-2.29,0.7,8.39
2022-11-11 12:39:08.8450,-6.35,-4.96,1.42,8.18
2022-11-11 12:39:08.8550,-5.42,-6.52,-1.2,8.56
2022-11-11 12:39:08.8910,-6.69,-4.02,-5.18,9.36
2022-11-11 12:39:08.8920,-8.04,-0.6,-3.72,8.87
2022-11-11 12:39:08.8930,-7.24,1.79,-1.09,7.53
2022-11-11 12:39:08.9070,-4.44,3.54,0.55,5.7
2022-11-11 12:39:08.9080,-1.79,3.38,0.29,3.83
2022-11-11 12:39:08.9150,-0.19,2.64,0.63,2.72
2022-11-11 12:39:08.9240,0.6,1.88,0.5,2.03
2022-11-11 12:39:08.9340,1.27,0.83,0.19,1.52
2022-11-11 12:39:08.9440,1.62,0.32,0.05,1.65
2022-11-11 12:39:08.9540,1.03,0.24,-0.22,1.08
2022-11-11 12:39:08.9640,-0.02,0.18,-0.72,0.74
2022-11-11 12:39:08.9950,-1.17,-0.21,-0.94,1.51
2022-11-11 12:39:08.9970,-1.8,-0.66,-0.92,2.12
2022-11-11 12:39:08.9980,-1.98,-0.75,-1.02,2.35
2022-11-11 12:39:09.0040,-1.4,-0.62,-0.44,1.59
2022-11-11 12:39:09.0140,-0.09,-0.26,1.13,1.16
2022-11-11 12:39:09.0240,0.92,0.39,1.28,1.62
2022-11-11 12:39:09.0340,1.58,0.59,0.16,1.69
2022-11-11 12:39:09.0440,1.87,0.44,-0.32,1.94
2022-11-11 12:39:09.0540,1.26,0.4,-0.83,1.56
2022-11-11 12:39:09.0640,0.2,0.21,-1.18,1.21
2022-11-11 12:39:09.0940,-0.79,-0.01,-1.0,1.27
2022-11-11 12:39:09.0950,-1.17,0.09,-0.59,1.31
2022-11-11 12:39:09.0960,-0.54,0.33,-0.49,0.8
2022-11-11 12:39:09.1060,0.66,0.37,-0.53,0.92
2022-11-11 12:39:09.1130,1.47,0.43,-0.5,1.61
2022-11-11 12:39:09.1230,1.6,0.63,-0.52,1.79
2022-11-11 12:39:09.1330,0.94,0.85,-0.18,1.28
2022-11-11 12:39:09.1430,0.01,1.21,0.51,1.31
2022-11-11 12:39:09.1530,-0.37,1.13,0.17,1.2
2022-11-11 12:39:09.1630,-0.11,1.67,0.53,1.75
2022-11-11 12:39:09.1930,-0.06,2.77,0.15,2.77
2022-11-11 12:39:09.1940,0.76,3.18,1.65,3.66
2022-11-11 12:39:09.1950,1.25,3.59,2.67,4.64
2022-11-11 12:39:09.2050,2.41,3.18,2.34,4.62
2022-11-11 12:39:09.2130,3.8,3.28,1.13,5.14
2022-11-11 12:39:09.2230,4.12,3.95,-0.61,5.74
2022-11-11 12:39:09.2330,3.81,4.75,-1.09,6.18
2022-11-11 12:39:09.2430,3.44,5.27,-0.43,6.3
2022-11-11 12:39:09.2530,3.5,5.1,0.34,6.19
2022-11-11 12:39:09.2620,4.26,4.3,0.06,6.05
2022-11-11 12:39:09.2920,5.11,3.78,-0.62,6.38
2022-11-11 12:39:09.2930,5.8,3.95,-1.21,7.12
2022-11-11 12:39:09.2940,6.73,4.19,-1.57,8.08
2022-11-11 12:39:09.3060,7.61,4.38,-1.5,8.9
2022-11-11 12:39:09.3120,8.32,4.67,-1.15,9.61
2022-11-11 12:39:09.3220,9.31,5.47,-1.13,10.85
2022-11-11 12:39:09.3320,10.88,6.82,-1.43,12.92
2022-11-11 12:39:09.3420,14.27,7.92,-0.25,16.32
2022-11-11 12:39:09.3520,15.93,8.28,-1.65,18.02
2022-11-11 12:39:09.3620,13.84,7.49,-5.52,16.67
2022-11-11 12:39:09.3970,10.95,8.04,-9.78,16.73
2022-11-11 12:39:09.3980,10.14,11.0,-9.16,17.54
2022-11-11 12:39:09.3990,10.1,13.95,-4.79,17.87
2022-11-11 12:39:09.4020,7.34,14.55,-3.93,16.76
2022-11-11 12:39:09.4200,4.22,12.02,-4.1,13.38
2022-11-11 12:39:09.4210,2.3,8.83,-4.22,10.05
2022-11-11 12:39:09.4310,1.56,6.48,-3.46,7.5
2022-11-11 12:39:09.4410,3.45,5.91,-0.88,6.89
2022-11-11 12:39:09.4510,6.46,6.13,1.31,9.0
2022-11-11 12:39:09.4610,6.99,3.83,1.14,8.05
2022-11-11 12:39:09.4980,5.71,0.36,0.78,5.77
2022-11-11 12:39:09.4990,4.49,-1.89,1.4,5.06
2022-11-11 12:39:09.5000,4.27,-2.89,2.2,5.6
2022-11-11 12:39:09.5020,5.19,-3.22,2.1,6.45
2022-11-11 12:39:09.5110,6.66,-3.88,1.26,7.81
2022-11-11 12:39:09.5210,7.84,-5.01,0.58,9.32
2022-11-11 12:39:09.5310,8.29,-6.03,0.06,10.25
2022-11-11 12:39:09.5410,8.79,-6.0,-0.19,10.64
2022-11-11 12:39:09.5510,9.73,-4.99,-0.32,10.93
2022-11-11 12:39:09.5610,9.67,-4.34,-0.49,10.61
2022-11-11 12:39:09.5950,8.4,-3.9,-0.19,9.26
2022-11-11 12:39:09.5960,6.45,-3.39,0.54,7.3
2022-11-11 12:39:09.5970,3.93,-2.68,1.2,4.9
2022-11-11 12:39:09.6020,1.64,-1.2,1.45,2.49
2022-11-11 12:39:09.6100,-0.67,0.63,0.75,1.18
2022-11-11 12:39:09.6200,-3.72,2.15,-0.29,4.3
2022-11-11 12:39:09.6300,-5.93,3.2,-0.42,6.75
2022-11-11 12:39:09.6400,-7.55,3.82,-0.57,8.48
2022-11-11 12:39:09.6500,-9.3,4.22,-1.06,10.26
2022-11-11 12:39:09.6600,-9.91,4.94,-1.23,11.14
2022-11-11 12:39:09.6950,-9.51,6.33,-1.45,11.51
2022-11-11 12:39:09.6960,-9.33,7.07,-2.6,11.99
2022-11-11 12:39:09.6970,-9.32,6.65,-3.77,12.05
2022-11-11 12:39:09.7040,-9.3,5.83,-4.32,11.79
2022-11-11 12:39:09.7090,-9.42,5.55,-4.52,11.83
2022-11-11 12:39:09.7200,-10.27,6.04,-5.65,13.18
2022-11-11 12:39:09.7290,-11.89,7.16,-6.03,15.13
2022-11-11 12:39:09.7390,-13.83,7.7,-5.56,16.77
2022-11-11 12:39:09.7490,-15.96,6.39,-4.82,17.85
2022-11-11 12:39:09.7590,-17.65,3.37,-3.62,18.32
2022-11-11 12:39:09.7690,-17.89,0.48,-2.34,18.04
2022-11-11 12:39:09.8000,-17.38,-0.77,-1.83,17.49
2022-11-11 12:39:09.8010,-15.93,-0.25,-2.24,16.08
2022-11-11 12:39:09.8030,-13.74,0.91,-2.61,14.01
2022-11-11 12:39:09.8210,-11.99,1.39,-2.76,12.38
2022-11-11 12:39:09.8220,-10.63,1.3,-2.4,10.97
2022-11-11 12:39:09.8290,-9.75,1.63,-1.16,9.95
2022-11-11 12:39:09.8390,-8.07,2.06,1.48,8.45
2022-11-11 12:39:09.8480,-4.03,1.8,2.43,5.03
2022-11-11 12:39:09.8590,6.97,1.25,2.25,7.43
2022-11-11 12:39:09.8690,22.22,3.48,9.08,24.25
2022-11-11 12:39:09.9000,21.33,14.28,1.31,25.7
2022-11-11 12:39:09.9010,4.67,17.02,-7.34,19.11
2022-11-11 12:39:09.9020,-4.27,10.96,-5.64,13.04
2022-11-11 12:39:09.9210,-10.71,4.02,-3.41,11.93
2022-11-11 12:39:09.9220,-15.46,-2.02,0.32,15.59
2022-11-11 12:39:09.9280,-17.92,-6.38,6.5,20.1
2022-11-11 12:39:09.9380,-15.63,-6.55,2.85,17.18
2022-11-11 12:39:09.9480,-8.95,-0.6,-5.14,10.33
2022-11-11 12:39:09.9580,-4.3,1.08,-7.88,9.04
2022-11-11 12:39:09.9680,-1.43,0.03,-6.35,6.5
2022-11-11 12:39:09.9980,0.53,-0.4,-3.82,3.87
2022-11-11 12:39:09.9990,1.69,0.53,-0.91,1.99
2022-11-11 12:39:10.0000,1.57,2.2,0.62,2.77
2022-11-11 12:39:10.0080,0.37,3.29,1.0,3.45
2022-11-11 12:39:10.0180,-0.74,3.32,0.91,3.52
2022-11-11 12:39:10.0270,-0.68,2.53,0.98,2.79
2022-11-11 12:39:10.0380,-0.15,1.54,0.86,1.77
2022-11-11 12:39:10.0470,0.12,0.24,0.11,0.28
2022-11-11 12:39:10.0580,0.0,-1.11,-0.75,1.33
2022-11-11 12:39:10.0670,-0.69,-1.91,-1.24,2.37
2022-11-11 12:39:10.0970,-0.9,-2.08,-1.49,2.71
2022-11-11 12:39:10.0980,-0.04,-1.81,-1.24,2.19
2022-11-11 12:39:10.0990,0.85,-1.09,-0.81,1.6
2022-11-11 12:39:10.1070,1.06,-0.31,-0.18,1.11
2022-11-11 12:39:10.1170,0.89,0.36,0.39,1.03
2022-11-11 12:39:10.1270,0.61,0.86,0.72,1.27
2022-11-11 12:39:10.1370,0.75,1.03,0.71,1.45
2022-11-11 12:39:10.1470,1.02,0.79,0.64,1.44
2022-11-11 12:39:10.1570,1.18,0.07,-0.11,1.18
2022-11-11 12:39:10.1670,1.52,-0.63,-0.67,1.77
2022-11-11 12:39:10.2030,1.54,-0.71,-0.87,1.9
2022-11-11 12:39:10.2040,0.83,-0.25,-0.95,1.28
2022-11-11 12:39:10.2050,-0.23,0.37,-0.75,0.86
2022-11-11 12:39:10.2210,-0.62,0.73,-0.13,0.96
2022-11-11 12:39:10.2220,-0.23,1.01,0.32,1.08
2022-11-11 12:39:10.2260,0.38,1.4,-0.18,1.46
2022-11-11 12:39:10.2360,1.22,1.51,-0.65,2.04
2022-11-11 12:39:10.2460,2.09,1.84,-0.51,2.83
2022-11-11 12:39:10.2560,2.14,2.24,-0.82,3.2
2022-11-11 12:39:10.2660,2.35,2.53,0.38,3.47
2022-11-11 12:39:10.3010,1.84,2.97,0.47,3.52
2022-11-11 12:39:10.3020,1.7,3.47,0.51,3.89
2022-11-11 12:39:10.3030,1.75,4.7,0.54,5.04
2022-11-11 12:39:10.3200,2.12,5.54,0.9,5.99
2022-11-11 12:39:10.3210,2.88,5.53,1.07,6.32
2022-11-11 12:39:10.3260,3.8,5.03,0.77,6.35
2022-11-11 12:39:10.3350,4.56,4.68,0.13,6.53
2022-11-11 12:39:10.3450,4.96,4.86,-0.77,6.98
2022-11-11 12:39:10.3560,5.6,5.28,-1.2,7.78
2022-11-11 12:39:10.3650,6.58,5.5,-1.19,8.65
2022-11-11 12:39:10.4010,7.69,5.3,-1.01,9.39
2022-11-11 12:39:10.4020,8.68,5.08,-0.67,10.07
2022-11-11 12:39:10.4030,9.84,5.77,-1.06,11.45
2022-11-11 12:39:10.4200,11.78,6.86,-0.68,13.64
2022-11-11 12:39:10.4210,12.33,7.46,-1.34,14.47
2022-11-11 12:39:10.4250,12.32,7.01,-2.27,14.35
2022-11-11 12:39:10.4350,12.18,6.34,-5.83,14.91
2022-11-11 12:39:10.4450,10.32,7.5,-9.78,16.07
2022-11-11 12:39:10.4550,9.99,11.16,-7.69,16.83
2022-11-11 12:39:10.4650,9.54,14.24,-4.44,17.7
2022-11-11 12:39:10.5000,7.18,14.38,-4.12,16.59
2022-11-11 12:39:10.5010,5.73,11.52,-3.47,13.32
2022-11-11 12:39:10.5020,4.67,8.63,-3.06,10.27
2022-11-11 12:39:10.5200,3.88,6.63,-2.53,8.08
2022-11-11 12:39:10.5210,4.74,5.86,-0.3,7.54
2022-11-11 12:39:10.5240,5.72,5.87,1.74,8.37
2022-11-11 12:39:10.5340,4.95,4.43,1.43,6.79
2022-11-11 12:39:10.5440,3.97,1.58,1.05,4.39
2022-11-11 12:39:10.5540,3.83,-1.27,1.45,4.28
2022-11-11 12:39:10.5640,4.43,-2.85,1.59,5.5
2022-11-11 12:39:10.5740,5.63,-3.4,1.48,6.74
2022-11-11 12:39:10.6050,6.61,-4.15,1.18,7.89
2022-11-11 12:39:10.6060,7.02,-5.22,1.16,8.82
2022-11-11 12:39:10.6070,7.33,-5.48,1.46,9.26
2022-11-11 12:39:10.6200,7.79,-5.04,1.79,9.44
2022-11-11 12:39:10.6240,7.96,-4.9,2.02,9.56
2022-11-11 12:39:10.6340,7.55,-4.75,2.1,9.16
2022-11-11 12:39:10.6440,6.77,-4.09,2.26,8.22
2022-11-11 12:39:10.6540,5.43,-3.35,2.6,6.88
2022-11-11 12:39:10.6630,2.86,-2.9,2.58,4.82
2022-11-11 12:39:10.6740,0.39,-2.38,3.0,3.84
2022-11-11 12:39:10.7040,-0.95,-1.41,3.3,3.71
2022-11-11 12:39:10.7050,-2.32,0.12,2.55,3.44
2022-11-11 12:39:10.7060,-3.97,1.73,2.15,4.83
2022-11-11 12:39:10.7200,-5.97,2.84,1.75,6.83
2022-11-11 12:39:10.7230,-8.12,3.23,0.88,8.78
2022-11-11 12:39:10.7330,-8.93,3.56,0.09,9.61
2022-11-11 12:39:10.7430,-7.98,4.59,-0.33,9.21
2022-11-11 12:39:10.7530,-7.15,5.38,-1.04,9.0
2022-11-11 12:39:10.7630,-6.63,5.93,-1.24,8.98
2022-11-11 12:39:10.7730,-6.43,6.75,-0.94,9.36
2022-11-11 12:39:10.8040,-7.17,8.02,-1.63,10.88
2022-11-11 12:39:10.8050,-9.34,9.9,-2.99,13.93
2022-11-11 12:39:10.8060,-12.09,11.88,-3.6,17.32
2022-11-11 12:39:10.8180,-14.39,12.29,-4.11,19.36
2022-11-11 12:39:10.8220,-16.05,9.58,-5.05,19.36
2022-11-11 12:39:10.8320,-17.09,3.91,-5.1,18.25
2022-11-11 12:39:10.8420,-17.45,-1.53,-3.98,17.96
2022-11-11 12:39:10.8520,-16.6,-3.9,-3.62,17.43
2022-11-11 12:39:10.8620,-14.38,-2.6,-3.85,15.11
2022-11-11 12:39:10.8720,-12.86,-0.48,-4.11,13.5
2022-11-11 12:39:10.9020,-12.61,0.75,-4.24,13.32
2022-11-11 12:39:10.9040,-12.3,1.54,-4.1,13.05
2022-11-11 12:39:10.9050,-11.15,2.42,-3.84,12.03
2022-11-11 12:39:10.9190,-9.12,3.33,-2.7,10.07
2022-11-11 12:39:10.9220,-6.82,3.12,-1.49,7.64
2022-11-11 12:39:10.9320,-0.79,3.12,0.36,3.23
2022-11-11 12:39:10.9420,14.29,4.15,10.57,18.25
2022-11-11 12:39:10.9520,24.34,7.69,14.16,29.19
2022-11-11 12:39:10.9620,12.44,12.73,-6.87,19.07
2022-11-11 12:39:10.9720,0.42,11.96,-12.32,17.17
2022-11-11 12:39:11.0080,-4.94,6.33,-5.41,9.68
2022-11-11 12:39:11.0100,-8.03,2.27,-0.46,8.35
2022-11-11 12:39:11.0110,-8.52,0.23,1.81,8.71
2022-11-11 12:39:11.0180,-8.1,-2.59,3.54,9.21
2022-11-11 12:39:11.0210,-8.48,-6.26,2.23,10.77
2022-11-11 12:39:11.0310,-8.14,-6.26,-2.24,10.51
2022-11-11 12:39:11.0410,-6.14,-2.58,-6.73,9.46
2022-11-11 12:39:11.0510,-3.89,0.63,-6.52,7.61
2022-11-11 12:39:11.0610,-1.99,2.34,-4.09,5.11
2022-11-11 12:39:11.0710,-1.51,2.24,-1.2,2.95
2022-11-11 12:39:11.1070,-1.67,2.24,1.18,3.03
2022-11-11 12:39:11.1090,-2.01,2.35,2.12,3.74
2022-11-11 12:39:11.1100,-2.03,2.45,1.4,3.47
2022-11-11 12:39:11.1160,-1.23,1.99,0.21,2.34
2022-11-11 12:39:11.1200,0.43,1.01,0.13,1.1
2022-11-11 12:39:11.1300,2.08,0.13,-0.07,2.08
2022-11-11 12:39:11.1400,3.0,-0.55,-1.26,3.3
2022-11-11 12:39:11.1500,2.3,-1.22,-2.24,3.43
2022-11-11 12:39:11.1600,0.24,-1.68,-1.99,2.61
2022-11-11 12:39:11.1700,-1.59,-1.71,-0.91,2.5
2022-11-11 12:39:11.2060,-2.26,-1.06,0.04,2.49
2022-11-11 12:39:11.2070,-1.63,-0.2,0.85,1.84
2022-11-11 12:39:11.2080,-0.66,0.48,0.92,1.22
2022-11-11 12:39:11.2190,0.03,0.82,0.77,1.12
2022-11-11 12:39:11.2200,0.69,0.78,0.7,1.25
2022-11-11 12:39:11.2300,1.2,0.64,0.08,1.36
2022-11-11 12:39:11.2400,1.33,0.43,-0.47,1.47
2022-11-11 12:39:11.2500,1.09,0.16,-0.8,1.36
2022-11-11 12:39:11.2600,0.42,-0.18,-0.81,0.93
2022-11-11 12:39:11.2700,-0.18,-0.41,-0.2,0.49
2022-11-11 12:39:11.3050,-0.38,-0.35,0.73,0.89
2022-11-11 12:39:11.3060,-0.06,0.01,1.06,1.06
2022-11-11 12:39:11.3070,0.76,0.44,0.35,0.94
2022-11-11 12:39:11.3180,1.49,0.65,-0.49,1.69
2022-11-11 12:39:11.3190,1.36,0.84,-0.77,1.77
2022-11-11 12:39:11.3290,0.51,0.99,-0.26,1.14
2022-11-11 12:39:11.3390,0.14,0.96,-0.37,1.03
2022-11-11 12:39:11.3490,0.95,0.72,-0.26,1.22
2022-11-11 12:39:11.3590,2.02,0.88,-0.65,2.29
2022-11-11 12:39:11.3690,2.15,1.48,-1.46,2.99
2022-11-11 12:39:11.3790,1.76,2.53,-1.08,3.26
2022-11-11 12:39:11.4090,1.19,4.13,-0.46,4.32
2022-11-11 12:39:11.4100,0.89,5.01,-0.04,5.08
2022-11-11 12:39:11.4110,1.14,5.01,0.08,5.13
2022-11-11 12:39:11.4190,1.91,4.64,1.1,5.13
2022-11-11 12:39:11.4330,2.64,4.08,1.0,4.96
2022-11-11 12:39:11.4380,3.56,3.77,0.98,5.27
2022-11-11 12:39:11.4480,4.5,3.9,0.35,5.96
2022-11-11 12:39:11.4580,5.47,4.14,-0.06,6.86
2022-11-11 12:39:11.4680,5.96,4.39,-0.7,7.43
2022-11-11 12:39:11.4780,6.27,4.81,-0.63,7.92
2022-11-11 12:39:11.5080,6.76,5.31,0.04,8.59
2022-11-11 12:39:11.5090,7.51,6.11,0.08,9.68
2022-11-11 12:39:11.5100,8.69,7.29,-0.16,11.34
2022-11-11 12:39:11.5180,10.15,8.4,0.69,13.19
2022-11-11 12:39:11.5280,10.16,9.07,0.53,13.62
2022-11-11 12:39:11.5380,10.48,9.57,0.43,14.19
2022-11-11 12:39:11.5480,11.82,8.98,-1.62,14.93
2022-11-11 12:39:11.5580,10.69,7.21,-7.22,14.77
2022-11-11 12:39:11.5680,9.27,6.93,-9.78,15.15
2022-11-11 12:39:11.5780,9.29,7.83,-6.83,13.93
2022-11-11 12:39:11.6080,8.1,9.25,-5.67,13.53
2022-11-11 12:39:11.6090,5.95,9.22,-6.06,12.53
2022-11-11 12:39:11.6100,4.6,7.6,-6.45,10.97
2022-11-11 12:39:11.6170,3.16,5.99,-5.51,8.73
2022-11-11 12:39:11.6270,2.68,4.85,-4.01,6.83
2022-11-11 12:39:11.6370,4.59,3.58,-0.97,5.9
2022-11-11 12:39:11.6470,5.99,1.35,0.8,6.19
2022-11-11 12:39:11.6570,5.24,-1.02,0.63,5.37
2022-11-11 12:39:11.6670,4.13,-2.3,0.73,4.78
2022-11-11 12:39:11.6770,3.5,-2.73,1.02,4.55
2022-11-11 12:39:11.7070,4.06,-2.8,1.54,5.16
2022-11-11 12:39:11.7090,5.4,-3.12,1.57,6.43
2022-11-11 12:39:11.7100,6.32,-4.09,1.19,7.62
2022-11-11 12:39:11.7160,6.91,-4.61,1.24,8.39
2022-11-11 12:39:11.7270,6.66,-4.34,1.24,8.04
2022-11-11 12:39:11.7370,5.32,-4.17,0.85,6.81
2022-11-11 12:39:11.7470,4.24,-4.07,0.95,5.95
2022-11-11 12:39:11.7560,4.38,-3.3,1.48,5.68
2022-11-11 12:39:11.7670,3.92,-2.45,1.53,4.86
2022-11-11 12:39:11.7760,2.46,-1.94,1.36,3.41
2022-11-11 12:39:11.8130,0.76,-1.47,1.18,2.03
2022-11-11 12:39:11.8140,-0.48,-0.84,1.24,1.57
2022-11-11 12:39:11.8150,-1.35,-0.14,0.99,1.67
2022-11-11 12:39:11.8340,-2.15,0.29,0.12,2.17
2022-11-11 12:39:11.8350,-3.09,0.56,-0.91,3.26
2022-11-11 12:39:11.8370,-3.84,1.34,-1.28,4.26
2022-11-11 12:39:11.8460,-4.49,2.65,-0.93,5.29
2022-11-11 12:39:11.8560,-5.79,4.16,-0.83,7.17
2022-11-11 12:39:11.8660,-7.33,5.53,-0.67,9.2
2022-11-11 12:39:11.8760,-8.22,6.31,-0.2,10.36
2022-11-11 12:39:11.9120,-8.33,6.7,0.07,10.69
2022-11-11 12:39:11.9130,-8.4,6.54,0.16,10.64
2022-11-11 12:39:11.9140,-9.16,6.1,-0.63,11.02
2022-11-11 12:39:11.9340,-9.54,5.56,-1.44,11.13
2022-11-11 12:39:11.9350,-8.96,4.95,-1.46,10.34
2022-11-11 12:39:11.9370,-8.34,4.63,-2.07,9.76
2022-11-11 12:39:11.9450,-7.99,4.42,-3.31,9.71
2022-11-11 12:39:11.9550,-8.17,3.87,-4.86,10.26
2022-11-11 12:39:11.9650,-9.13,2.81,-6.16,11.36
2022-11-11 12:39:11.9750,-10.82,1.21,-6.42,12.63
2022-11-11 12:39:12.0100,-12.63,-0.46,-5.46,13.76
2022-11-11 12:39:12.0110,-13.95,-1.76,-3.8,14.56
2022-11-11 12:39:12.0120,-14.35,-1.91,-2.98,14.78
2022-11-11 12:39:12.0150,-13.66,-1.08,-3.61,14.17
2022-11-11 12:39:12.0250,-12.37,-0.32,-4.44,13.14
2022-11-11 12:39:12.0350,-11.05,-0.25,-5.14,12.18
2022-11-11 12:39:12.0450,-9.73,-0.46,-5.55,11.21
2022-11-11 12:39:12.0550,-7.87,-0.36,-4.79,9.22
2022-11-11 12:39:12.0640,-4.52,0.2,-3.0,5.42
2022-11-11 12:39:12.0750,4.55,2.13,2.93,5.81
2022-11-11 12:39:12.1100,19.43,7.0,17.8,27.26
2022-11-11 12:39:12.1120,20.6,10.81,7.92,24.57
2022-11-11 12:39:12.1130,6.32,12.93,-10.56,17.85
2022-11-11 12:39:12.1140,-1.5,8.98,-10.96,14.24
2022-11-11 12:39:12.1240,-6.1,3.74,-4.57,8.49
2022-11-11 12:39:12.1340,-9.43,0.96,-0.54,9.49
2022-11-11 12:39:12.1440,-10.64,0.68,2.35,10.91
2022-11-11 12:39:12.1540,-10.75,0.01,1.99,10.93
2022-11-11 12:39:12.1640,-10.51,-2.88,-1.43,10.99
2022-11-11 12:39:12.1740,-7.5,-4.33,-3.82,9.46
2022-11-11 12:39:12.1840,-3.45,-1.8,-4.75,6.14
2022-11-11 12:39:12.2140,-1.39,0.91,-4.05,4.37
2022-11-11 12:39:12.2150,-0.22,2.49,-0.66,2.58
2022-11-11 12:39:12.2160,0.14,2.53,1.73,3.06
2022-11-11 12:39:12.2340,-0.13,2.02,2.31,3.07
2022-11-11 12:39:12.2350,-0.37,1.57,0.1,1.61
2022-11-11 12:39:12.2430,0.12,0.37,-2.43,2.46
2022-11-11 12:39:12.2530,1.69,-0.83,-2.65,3.25
2022-11-11 12:39:12.2630,2.76,-0.69,-2.85,4.02
2022-11-11 12:39:12.2730,1.51,0.3,-2.17,2.66
2022-11-11 12:39:12.2830,-1.68,0.85,-0.93,2.09
2022-11-11 12:39:12.3130,-4.79,0.7,0.49,4.86
2022-11-11 12:39:12.3140,-5.78,0.81,2.15,6.21
2022-11-11 12:39:12.3160,-4.02,0.87,2.12,4.62
2022-11-11 12:39:12.3330,-0.73,-0.16,0.58,0.94
2022-11-11 12:39:12.3340,2.04,-1.04,-1.07,2.52
2022-11-11 12:39:12.3430,3.31,-1.26,-2.33,4.23
2022-11-11 12:39:12.3530,2.67,-0.8,-2.93,4.04
2022-11-11 12:39:12.3630,0.77,-0.29,-2.46,2.59
2022-11-11 12:39:12.3720,-0.92,0.01,-0.97,1.33
2022-11-11 12:39:12.3830,-1.63,0.33,0.69,1.8
2022-11-11 12:39:12.4130,-1.32,0.85,1.89,2.45
2022-11-11 12:39:12.4140,-0.13,0.99,1.67,1.94
2022-11-11 12:39:12.4150,0.84,0.62,0.62,1.21
2022-11-11 12:39:12.4330,1.23,0.05,-0.45,1.31
2022-11-11 12:39:12.4340,0.72,-0.27,-1.01,1.26
2022-11-11 12:39:12.4420,-0.63,-0.05,-0.68,0.92
2022-11-11 12:39:12.4520,-1.79,0.25,0.21,1.81
2022-11-11 12:39:12.4620,-2.15,0.46,0.88,2.36
2022-11-11 12:39:12.4720,-1.69,0.6,0.9,2.0
2022-11-11 12:39:12.4820,-0.85,0.49,0.67,1.18
2022-11-11 12:39:12.5110,0.03,0.15,0.64,0.65
2022-11-11 12:39:12.5120,0.6,-0.11,0.32,0.68
2022-11-11 12:39:12.5140,0.55,-0.32,-0.03,0.63
2022-11-11 12:39:12.5320,0.34,-0.43,-0.44,0.7
2022-11-11 12:39:12.5330,0.25,-0.4,-0.68,0.82
2022-11-11 12:39:12.5410,0.42,-0.27,-0.77,0.91
2022-11-11 12:39:12.5520,0.81,-0.26,-0.72,1.11
2022-11-11 12:39:12.5610,1.41,-0.49,-0.74,1.66
2022-11-11 12:39:12.5710,2.55,-0.7,-0.79,2.75
2022-11-11 12:39:12.5810,3.97,-0.64,-1.0,4.14
2022-11-11 12:39:12.6180,5.02,-0.5,-1.53,5.27
2022-11-11 12:39:12.6190,5.55,-0.32,-1.54,5.76
2022-11-11 12:39:12.6200,5.57,-0.18,-1.66,5.81
2022-11-11 12:39:12.6320,5.59,-0.06,-1.56,5.8
2022-11-11 12:39:12.6330,5.85,0.42,-1.2,5.98
2022-11-11 12:39:12.6410,6.13,1.32,-0.84,6.32
2022-11-11 12:39:12.6510,6.19,2.44,-0.77,6.69
2022-11-11 12:39:12.6610,5.52,3.74,-1.12,6.76
2022-11-11 12:39:12.6710,3.81,5.19,-1.81,6.68
2022-11-11 12:39:12.6810,2.02,6.8,-1.36,7.22
2022-11-11 12:39:12.7160,0.91,8.13,-0.47,8.19
2022-11-11 12:39:12.7170,0.05,8.57,-0.5,8.58
2022-11-11 12:39:12.7180,-0.04,7.55,-0.43,7.56
2022-11-11 12:39:12.7320,1.88,5.51,1.24,5.95
2022-11-11 12:39:12.7330,4.25,3.37,2.01,5.78
2022-11-11 12:39:12.7400,6.1,1.33,1.45,6.4
