time,ax,ay,az,atotal
2022-11-11 12:50:09.8410,0.14,0.03,-0.11,0.18
2022-11-11 12:50:09.8480,0.08,0.06,-0.09,0.13
2022-11-11 12:50:09.8530,-0.03,0.07,-0.04,0.08
2022-11-11 12:50:09.8680,-0.18,0.06,0.03,0.19
2022-11-11 12:50:09.8710,-0.28,0.06,0.04,0.28
2022-11-11 12:50:09.8840,-0.19,0.07,-0.03,0.2
2022-11-11 12:50:09.8870,-0.03,0.04,-0.08,0.09
2022-11-11 12:50:09.8990,0.13,0.03,-0.11,0.17
2022-11-11 12:50:09.9030,0.21,0.03,-0.11,0.23
2022-11-11 12:50:09.9650,0.22,0.04,-0.09,0.24
2022-11-11 12:50:09.9680,0.18,0.07,-0.05,0.19
2022-11-11 12:50:09.9840,0.05,0.1,-0.05,0.12
2022-11-11 12:50:09.9870,-0.21,0.09,-0.02,0.22
2022-11-11 12:50:10.0000,-0.35,0.01,-0.02,0.35
2022-11-11 12:50:10.0030,-0.25,0.04,-0.04,0.25
2022-11-11 12:50:10.0160,-0.1,0.05,-0.07,0.13
2022-11-11 12:50:10.0200,0.06,0.04,-0.09,0.11
2022-11-11 12:50:10.0330,0.12,0.04,-0.07,0.14
2022-11-11 12:50:10.0360,0.06,0.04,-0.06,0.09
2022-11-11 12:50:10.0960,-0.01,0.04,-0.06,0.07
2022-11-11 12:50:10.0990,-0.03,0.07,-0.03,0.08
2022-11-11 12:50:10.1040,-0.1,0.04,-0.02,0.1
2022-11-11 12:50:10.1170,-0.14,0.02,-0.1,0.17
2022-11-11 12:50:10.1200,-0.04,0.04,-0.1,0.11
2022-11-11 12:50:10.1320,0.08,0.06,-0.08,0.12
2022-11-11 12:50:10.1350,0.08,0.07,-0.1,0.14
2022-11-11 12:50:10.1480,0.02,0.07,-0.08,0.1
2022-11-11 12:50:10.1520,-0.07,0.05,-0.05,0.09
2022-11-11 12:50:10.1660,-0.11,0.02,-0.02,0.11
2022-11-11 12:50:10.2260,-0.08,0.03,-0.03,0.09
2022-11-11 12:50:10.2290,-0.02,0.01,-0.01,0.02
2022-11-11 12:50:10.2340,0.1,0.03,0.02,0.1
2022-11-11 12:50:10.2380,0.11,0.09,0.0,0.14
2022-11-11 12:50:10.2500,0.0,0.12,-0.07,0.13
2022-11-11 12:50:10.2540,-0.1,0.08,-0.12,0.17
2022-11-11 12:50:10.2660,-0.14,0.03,-0.14,0.2
2022-11-11 12:50:10.2690,-0.1,0.0,-0.11,0.14
2022-11-11 12:50:10.2820,-0.07,-0.01,-0.09,0.11
2022-11-11 12:50:10.2860,0.06,0.02,-0.1,0.11
2022-11-11 12:50:10.3460,0.17,0.07,-0.04,0.18
2022-11-11 12:50:10.3510,0.09,0.11,-0.03,0.14
2022-11-11 12:50:10.3550,-0.02,0.08,-0.03,0.08
2022-11-11 12:50:10.3670,-0.08,0.05,0.0,0.09
2022-11-11 12:50:10.3700,-0.02,0.05,0.0,0.05
2022-11-11 12:50:10.3820,0.02,0.03,-0.07,0.07
2022-11-11 12:50:10.3850,0.04,0.02,-0.11,0.11
2022-11-11 12:50:10.3990,0.03,0.04,-0.11,0.12
2022-11-11 12:50:10.4020,0.04,0.08,-0.11,0.14
2022-11-11 12:50:10.4150,-0.02,0.08,-0.15,0.17
2022-11-11 12:50:10.4770,-0.14,0.04,-0.1,0.17
2022-11-11 12:50:10.4800,-0.14,0.01,-0.05,0.14
2022-11-11 12:50:10.4840,-0.1,0.0,-0.05,0.11
2022-11-11 12:50:10.4880,-0.02,0.0,-0.03,0.03
2022-11-11 12:50:10.5000,0.13,0.08,-0.04,0.15
2022-11-11 12:50:10.5040,0.18,0.12,-0.05,0.22
2022-11-11 12:50:10.5150,0.13,0.07,-0.02,0.14
2022-11-11 12:50:10.5190,0.01,0.06,0.02,0.06
2022-11-11 12:50:10.5320,-0.11,0.12,0.02,0.16
2022-11-11 12:50:10.5350,-0.24,0.05,-0.09,0.26
2022-11-11 12:50:10.5970,-0.25,-0.04,-0.18,0.31
2022-11-11 12:50:10.6000,-0.13,-0.04,-0.2,0.24
2022-11-11 12:50:10.6180,0.1,-0.01,-0.17,0.19
2022-11-11 12:50:10.6210,0.3,0.03,-0.07,0.3
2022-11-11 12:50:10.6340,0.28,0.11,-0.03,0.3
2022-11-11 12:50:10.6370,0.08,0.13,0.0,0.15
2022-11-11 12:50:10.6490,-0.09,0.06,0.06,0.12
2022-11-11 12:50:10.6520,-0.23,0.01,0.06,0.23
2022-11-11 12:50:10.6650,-0.26,0.05,-0.01,0.26
2022-11-11 12:50:10.6690,-0.18,0.07,-0.1,0.21
2022-11-11 12:50:10.7300,-0.02,0.0,-0.17,0.17
2022-11-11 12:50:10.7340,0.15,0.0,-0.19,0.24
2022-11-11 12:50:10.7510,0.2,0.01,-0.13,0.23
2022-11-11 12:50:10.7540,0.25,0.09,-0.06,0.27
2022-11-11 12:50:10.7670,0.15,0.14,-0.04,0.2
2022-11-11 12:50:10.7700,-0.08,0.09,-0.06,0.13
2022-11-11 12:50:10.7820,-0.29,0.06,-0.05,0.3
2022-11-11 12:50:10.7860,-0.34,0.03,-0.02,0.34
2022-11-11 12:50:10.7990,-0.21,0.02,-0.08,0.22
2022-11-11 12:50:10.8020,-0.03,0.03,-0.12,0.12
2022-11-11 12:50:10.8640,0.13,0.04,-0.12,0.18
2022-11-11 12:50:10.8670,0.14,0.08,-0.1,0.18
2022-11-11 12:50:10.8840,0.11,0.06,-0.06,0.13
2022-11-11 12:50:10.8870,0.06,0.08,0.0,0.1
2022-11-11 12:50:10.9000,0.01,0.12,0.03,0.12
2022-11-11 12:50:10.9040,-0.03,0.07,-0.02,0.07
2022-11-11 12:50:10.9160,-0.15,0.01,-0.07,0.16
2022-11-11 12:50:10.9190,-0.21,-0.02,-0.13,0.24
2022-11-11 12:50:10.9320,-0.13,-0.03,-0.15,0.2
2022-11-11 12:50:10.9350,-0.05,0.03,-0.11,0.12
2022-11-11 12:50:10.9980,-0.03,0.07,-0.1,0.12
2022-11-11 12:50:11.0010,-0.03,0.07,-0.07,0.1
2022-11-11 12:50:11.0160,-0.09,0.06,-0.02,0.1
2022-11-11 12:50:11.0200,-0.17,0.08,-0.01,0.18
2022-11-11 12:50:11.0330,-0.19,0.06,-0.01,0.19
2022-11-11 12:50:11.0370,-0.09,0.02,-0.03,0.09
2022-11-11 12:50:11.0490,0.05,0.04,-0.04,0.07
2022-11-11 12:50:11.0520,0.19,0.08,-0.08,0.22
2022-11-11 12:50:11.0660,0.26,0.06,-0.07,0.27
2022-11-11 12:50:11.0690,0.21,0.09,-0.04,0.23
2022-11-11 12:50:11.1330,0.12,0.06,-0.03,0.13
2022-11-11 12:50:11.1360,0.01,0.04,0.04,0.05
2022-11-11 12:50:11.1510,-0.17,0.05,0.04,0.18
2022-11-11 12:50:11.1540,-0.21,0.1,0.01,0.23
2022-11-11 12:50:11.1670,-0.22,0.08,-0.07,0.24
2022-11-11 12:50:11.1700,-0.17,0.03,-0.13,0.21
2022-11-11 12:50:11.1830,-0.11,0.01,-0.12,0.16
2022-11-11 12:50:11.1860,-0.01,-0.03,-0.13,0.13
2022-11-11 12:50:11.1990,0.09,-0.05,-0.1,0.14
2022-11-11 12:50:11.2020,0.15,0.05,-0.02,0.15
2022-11-11 12:50:11.2650,0.15,0.11,-0.01,0.18
2022-11-11 12:50:11.2680,0.05,0.09,-0.02,0.1
2022-11-11 12:50:11.2840,-0.04,0.08,0.0,0.08
2022-11-11 12:50:11.2880,-0.15,0.07,0.0,0.16
2022-11-11 12:50:11.3010,-0.19,0.08,-0.05,0.21
2022-11-11 12:50:11.3040,-0.15,0.04,-0.08,0.17
2022-11-11 12:50:11.3160,-0.03,-0.04,-0.06,0.07
2022-11-11 12:50:11.3190,0.22,0.04,-0.08,0.23
2022-11-11 12:50:11.3320,0.31,0.1,-0.13,0.35
2022-11-11 12:50:11.3350,0.14,0.03,-0.13,0.19
2022-11-11 12:50:11.3990,0.0,0.01,-0.09,0.09
2022-11-11 12:50:11.4020,-0.13,0.06,-0.02,0.14
2022-11-11 12:50:11.4180,-0.28,0.13,0.01,0.3
2022-11-11 12:50:11.4210,-0.35,0.08,-0.01,0.35
2022-11-11 12:50:11.4340,-0.32,-0.01,-0.09,0.33
2022-11-11 12:50:11.4370,-0.05,-0.05,-0.15,0.16
2022-11-11 12:50:11.4490,0.26,-0.01,-0.04,0.26
2022-11-11 12:50:11.4520,0.31,0.07,-0.03,0.31
2022-11-11 12:50:11.4660,0.24,0.15,-0.09,0.29
2022-11-11 12:50:11.4690,0.05,0.14,-0.11,0.18
2022-11-11 12:50:11.5320,-0.27,0.08,-0.1,0.29
2022-11-11 12:50:11.5350,-0.39,0.0,-0.07,0.39
2022-11-11 12:50:11.5510,-0.19,-0.02,-0.07,0.2
2022-11-11 12:50:11.5540,0.1,0.0,-0.05,0.11
2022-11-11 12:50:11.5670,0.24,0.1,-0.05,0.26
2022-11-11 12:50:11.5700,0.18,0.11,-0.1,0.23
2022-11-11 12:50:11.5830,0.12,0.12,-0.04,0.17
2022-11-11 12:50:11.5860,-0.04,0.11,-0.05,0.12
2022-11-11 12:50:11.5990,-0.19,0.02,-0.1,0.21
2022-11-11 12:50:11.6020,-0.17,-0.03,-0.14,0.22
2022-11-11 12:50:11.6640,0.0,-0.01,-0.05,0.05
2022-11-11 12:50:11.6680,0.14,0.07,0.04,0.16
2022-11-11 12:50:11.6850,0.11,0.17,0.0,0.2
2022-11-11 12:50:11.6880,0.04,0.11,-0.02,0.11
2022-11-11 12:50:11.7000,-0.04,0.04,0.01,0.05
2022-11-11 12:50:11.7040,-0.12,0.04,-0.01,0.12
2022-11-11 12:50:11.7160,-0.16,0.05,-0.1,0.19
2022-11-11 12:50:11.7190,-0.08,0.0,-0.16,0.17
2022-11-11 12:50:11.7330,0.03,-0.04,-0.19,0.19
2022-11-11 12:50:11.7360,0.07,0.02,-0.14,0.15
2022-11-11 12:50:11.8010,0.07,0.06,-0.08,0.12
2022-11-11 12:50:11.8040,0.0,0.07,0.0,0.07
2022-11-11 12:50:11.8180,-0.14,0.08,0.08,0.18
2022-11-11 12:50:11.8210,-0.23,0.08,0.11,0.26
2022-11-11 12:50:11.8340,-0.17,0.13,0.04,0.21
2022-11-11 12:50:11.8370,-0.11,0.11,-0.16,0.22
2022-11-11 12:50:11.8490,-0.06,0.02,-0.27,0.27
2022-11-11 12:50:11.8520,0.11,-0.07,-0.3,0.32
2022-11-11 12:50:11.8660,0.25,-0.05,-0.25,0.35
2022-11-11 12:50:11.8690,0.23,0.02,-0.13,0.26
2022-11-11 12:50:11.9310,0.1,0.07,0.03,0.12
2022-11-11 12:50:11.9340,-0.05,0.12,0.14,0.19
2022-11-11 12:50:11.9510,-0.2,0.15,0.19,0.31
2022-11-11 12:50:11.9550,-0.25,0.16,0.14,0.32
2022-11-11 12:50:11.9670,-0.23,0.13,-0.04,0.26
2022-11-11 12:50:11.9700,-0.17,0.02,-0.19,0.25
2022-11-11 12:50:11.9820,-0.05,-0.06,-0.26,0.27
2022-11-11 12:50:11.9860,0.15,-0.05,-0.25,0.29
2022-11-11 12:50:11.9990,0.29,-0.01,-0.18,0.34
2022-11-11 12:50:12.0020,0.2,0.05,-0.09,0.22
2022-11-11 12:50:12.0640,-0.02,0.1,0.03,0.1
2022-11-11 12:50:12.0670,-0.22,0.15,0.08,0.27
2022-11-11 12:50:12.0850,-0.32,0.1,0.04,0.33
2022-11-11 12:50:12.0880,-0.31,0.02,-0.01,0.31
2022-11-11 12:50:12.1000,-0.15,0.03,-0.06,0.16
2022-11-11 12:50:12.1040,0.06,0.01,-0.13,0.14
2022-11-11 12:50:12.1160,0.23,0.0,-0.15,0.27
2022-11-11 12:50:12.1190,0.25,0.04,-0.12,0.28
2022-11-11 12:50:12.1320,0.15,0.06,-0.05,0.16
2022-11-11 12:50:12.1360,0.01,0.11,0.03,0.11
2022-11-11 12:50:12.1950,-0.14,0.11,0.06,0.18
2022-11-11 12:50:12.1990,-0.2,0.06,0.05,0.21
2022-11-11 12:50:12.2040,-0.11,0.08,-0.03,0.13
2022-11-11 12:50:12.2170,-0.03,0.06,-0.13,0.14
2022-11-11 12:50:12.2200,-0.02,0.0,-0.2,0.2
2022-11-11 12:50:12.2320,0.01,-0.04,-0.2,0.2
2022-11-11 12:50:12.2350,0.09,-0.02,-0.1,0.13
2022-11-11 12:50:12.2490,0.1,0.07,0.01,0.12
2022-11-11 12:50:12.2520,0.02,0.1,0.09,0.13
2022-11-11 12:50:12.2650,-0.04,0.14,0.13,0.19
2022-11-11 12:50:12.3250,-0.13,0.17,0.03,0.21
2022-11-11 12:50:12.3290,-0.14,0.06,-0.1,0.18
2022-11-11 12:50:12.3350,-0.13,-0.01,-0.22,0.25
2022-11-11 12:50:12.3380,-0.04,-0.03,-0.31,0.31
2022-11-11 12:50:12.3500,0.06,-0.01,-0.3,0.3
2022-11-11 12:50:12.3540,0.15,-0.03,-0.26,0.3
2022-11-11 12:50:12.3660,0.1,0.0,-0.15,0.18
2022-11-11 12:50:12.3690,0.03,0.07,0.06,0.09
2022-11-11 12:50:12.3820,-0.03,0.15,0.2,0.25
2022-11-11 12:50:12.3860,-0.21,0.19,0.16,0.32
2022-11-11 12:50:12.4430,-0.35,0.11,0.05,0.37
2022-11-11 12:50:12.4480,-0.27,0.04,-0.05,0.27
2022-11-11 12:50:12.4530,-0.09,0.0,-0.16,0.18
2022-11-11 12:50:12.4670,0.17,-0.04,-0.21,0.27
2022-11-11 12:50:12.4710,0.35,0.04,-0.22,0.41
2022-11-11 12:50:12.4830,0.3,0.09,-0.18,0.36
2022-11-11 12:50:12.4860,0.07,0.06,-0.11,0.14
2022-11-11 12:50:12.4990,-0.22,0.05,-0.04,0.22
2022-11-11 12:50:12.5030,-0.34,0.03,0.02,0.34
2022-11-11 12:50:12.5160,-0.24,0.04,0.01,0.24
2022-11-11 12:50:12.5740,-0.11,0.03,0.01,0.11
2022-11-11 12:50:12.5780,-0.01,0.01,-0.01,0.01
2022-11-11 12:50:12.5850,0.15,0.08,0.01,0.17
2022-11-11 12:50:12.5880,0.23,0.16,0.02,0.28
2022-11-11 12:50:12.6000,0.03,0.13,-0.07,0.15
2022-11-11 12:50:12.6040,-0.21,0.02,-0.13,0.24
2022-11-11 12:50:12.6160,-0.25,-0.02,-0.12,0.27
2022-11-11 12:50:12.6190,-0.1,0.01,-0.11,0.14
2022-11-11 12:50:12.6320,0.14,0.03,-0.13,0.19
2022-11-11 12:50:12.6350,0.3,0.04,-0.14,0.33
2022-11-11 12:50:12.6920,0.26,0.02,-0.06,0.26
2022-11-11 12:50:12.6960,0.13,0.09,0.01,0.15
2022-11-11 12:50:12.7010,-0.08,0.15,0.07,0.18
2022-11-11 12:50:12.7050,-0.26,0.14,0.09,0.3
2022-11-11 12:50:12.7170,-0.4,0.06,0.01,0.4
2022-11-11 12:50:12.7210,-0.4,-0.04,-0.1,0.41
2022-11-11 12:50:12.7320,-0.2,-0.04,-0.2,0.28
2022-11-11 12:50:12.7360,0.12,-0.02,-0.22,0.25
2022-11-11 12:50:12.7490,0.4,0.01,-0.21,0.45
2022-11-11 12:50:12.7520,0.45,0.05,-0.14,0.47
2022-11-11 12:50:12.8080,0.23,0.13,0.0,0.26
2022-11-11 12:50:12.8120,-0.06,0.17,0.06,0.19
2022-11-11 12:50:12.8180,-0.3,0.09,0.11,0.33
2022-11-11 12:50:12.8220,-0.38,0.08,0.08,0.39
2022-11-11 12:50:12.8340,-0.31,0.02,-0.03,0.31
2022-11-11 12:50:12.8380,-0.13,-0.07,-0.14,0.2
2022-11-11 12:50:12.8490,0.02,-0.01,-0.2,0.2
2022-11-11 12:50:12.8520,0.17,0.01,-0.21,0.27
2022-11-11 12:50:12.8660,0.25,0.03,-0.13,0.28
2022-11-11 12:50:12.8690,0.16,0.06,0.03,0.17
2022-11-11 12:50:12.9270,-0.01,0.16,0.02,0.16
2022-11-11 12:50:12.9320,-0.2,0.12,-0.01,0.23
2022-11-11 12:50:12.9370,-0.24,0.08,-0.04,0.25
2022-11-11 12:50:12.9510,-0.19,0.04,-0.11,0.22
2022-11-11 12:50:12.9540,-0.04,-0.05,-0.17,0.18
2022-11-11 12:50:12.9660,0.15,-0.02,-0.19,0.24
2022-11-11 12:50:12.9690,0.23,0.01,-0.14,0.26
2022-11-11 12:50:12.9820,0.15,0.06,-0.08,0.18
2022-11-11 12:50:12.9850,0.04,0.13,0.03,0.13
2022-11-11 12:50:12.9990,-0.01,0.16,0.1,0.18
2022-11-11 12:50:13.0570,-0.13,0.15,0.04,0.2
2022-11-11 12:50:13.0600,-0.15,0.06,-0.06,0.17
2022-11-11 12:50:13.0680,-0.1,-0.01,-0.16,0.18
2022-11-11 12:50:13.0720,-0.01,-0.06,-0.19,0.19
2022-11-11 12:50:13.0840,0.13,-0.01,-0.21,0.24
2022-11-11 12:50:13.0870,0.11,0.0,-0.16,0.19
2022-11-11 12:50:13.0990,0.03,0.02,0.03,0.04
2022-11-11 12:50:13.1030,-0.07,0.17,0.12,0.21
2022-11-11 12:50:13.1160,-0.19,0.17,0.08,0.26
2022-11-11 12:50:13.1190,-0.22,0.04,0.02,0.22
2022-11-11 12:50:13.1790,-0.08,0.0,-0.02,0.08
2022-11-11 12:50:13.1840,0.03,0.05,-0.08,0.09
2022-11-11 12:50:13.1880,0.09,0.03,-0.21,0.23
2022-11-11 12:50:13.2000,0.15,-0.05,-0.2,0.25
2022-11-11 12:50:13.2040,0.11,-0.01,-0.08,0.13
2022-11-11 12:50:13.2160,0.03,0.09,-0.01,0.09
2022-11-11 12:50:13.2200,-0.02,0.12,0.04,0.12
2022-11-11 12:50:13.2330,-0.08,0.09,0.02,0.12
2022-11-11 12:50:13.2360,-0.06,0.1,0.03,0.12
2022-11-11 12:50:13.2500,-0.08,0.12,-0.01,0.14
2022-11-11 12:50:13.3080,-0.13,0.05,-0.08,0.16
2022-11-11 12:50:13.3110,0.02,0.03,-0.15,0.15
2022-11-11 12:50:13.3170,0.12,0.03,-0.22,0.25
2022-11-11 12:50:13.3210,0.03,-0.02,-0.18,0.18
2022-11-11 12:50:13.3340,-0.03,0.02,-0.1,0.1
2022-11-11 12:50:13.3370,-0.1,0.02,-0.03,0.1
2022-11-11 12:50:13.3400,-0.07,0.08,0.02,0.1
2022-11-11 12:50:13.3440,-0.12,0.12,0.0,0.16
2022-11-11 12:50:13.3480,-0.2,0.07,-0.05,0.21
2022-11-11 12:50:13.3520,-0.16,0.08,-0.02,0.18
2022-11-11 12:50:13.4090,-0.11,0.04,-0.03,0.12
2022-11-11 12:50:13.4120,-0.09,0.02,-0.09,0.12
2022-11-11 12:50:13.4160,-0.06,0.04,-0.1,0.12
2022-11-11 12:50:13.4210,-0.03,0.05,-0.15,0.16
2022-11-11 12:50:13.4340,0.03,0.02,-0.18,0.18
2022-11-11 12:50:13.4370,0.04,0.02,-0.17,0.17
2022-11-11 12:50:13.4490,0.01,0.02,-0.1,0.1
2022-11-11 12:50:13.4520,0.05,0.07,-0.05,0.09
2022-11-11 12:50:13.4650,-0.02,0.09,0.02,0.09
2022-11-11 12:50:13.4690,-0.08,0.09,0.06,0.13
2022-11-11 12:50:13.5240,-0.13,0.09,0.05,0.16
2022-11-11 12:50:13.5270,-0.15,0.1,-0.01,0.18
2022-11-11 12:50:13.5340,-0.13,0.07,-0.11,0.18
2022-11-11 12:50:13.5370,-0.06,-0.01,-0.15,0.16
2022-11-11 12:50:13.5500,0.03,0.01,-0.13,0.13
2022-11-11 12:50:13.5530,0.06,0.02,-0.13,0.14
2022-11-11 12:50:13.5650,0.04,0.0,-0.16,0.16
2022-11-11 12:50:13.5690,0.05,0.01,-0.13,0.13
2022-11-11 12:50:13.5820,0.05,0.07,-0.03,0.09
2022-11-11 12:50:13.5850,-0.03,0.14,0.03,0.14
2022-11-11 12:50:13.6410,-0.11,0.13,0.01,0.17
2022-11-11 12:50:13.6440,-0.15,0.08,-0.02,0.17
2022-11-11 12:50:13.6500,-0.13,0.04,-0.05,0.14
2022-11-11 12:50:13.6540,-0.12,0.02,-0.11,0.16
2022-11-11 12:50:13.6670,-0.01,-0.01,-0.12,0.12
2022-11-11 12:50:13.6700,0.14,0.02,-0.08,0.16
2022-11-11 12:50:13.6820,0.17,0.02,-0.06,0.18
2022-11-11 12:50:13.6850,0.12,0.05,0.01,0.13
2022-11-11 12:50:13.6990,0.05,0.13,0.07,0.15
2022-11-11 12:50:13.7020,-0.13,0.18,0.02,0.22
2022-11-11 12:50:13.7570,-0.27,0.08,-0.06,0.28
2022-11-11 12:50:13.7600,-0.29,0.01,-0.12,0.31
2022-11-11 12:50:13.7680,-0.16,-0.02,-0.15,0.22
2022-11-11 12:50:13.7720,-0.03,-0.04,-0.16,0.16
2022-11-11 12:50:13.7840,0.11,-0.02,-0.15,0.18
2022-11-11 12:50:13.7870,0.23,0.05,-0.12,0.26
2022-11-11 12:50:13.7990,0.19,0.09,-0.04,0.21
2022-11-11 12:50:13.8020,0.09,0.08,0.07,0.13
2022-11-11 12:50:13.8160,0.01,0.13,0.13,0.18
2022-11-11 12:50:13.8190,-0.13,0.14,0.1,0.21
2022-11-11 12:50:13.8730,-0.28,0.08,0.03,0.29
2022-11-11 12:50:13.8760,-0.33,0.04,-0.1,0.34
2022-11-11 12:50:13.8850,-0.25,0.0,-0.17,0.3
2022-11-11 12:50:13.8880,-0.08,-0.03,-0.25,0.26
2022-11-11 12:50:13.9000,0.11,-0.04,-0.25,0.27
2022-11-11 12:50:13.9040,0.24,-0.02,-0.16,0.28
2022-11-11 12:50:13.9160,0.24,0.03,-0.01,0.24
2022-11-11 12:50:13.9190,0.12,0.16,0.09,0.21
2022-11-11 12:50:13.9320,0.01,0.19,0.08,0.2
2022-11-11 12:50:13.9360,-0.18,0.1,0.04,0.2
2022-11-11 12:50:13.9900,-0.29,0.06,0.01,0.29
2022-11-11 12:50:13.9930,-0.28,0.03,-0.09,0.29
2022-11-11 12:50:14.0010,-0.17,-0.01,-0.2,0.26
2022-11-11 12:50:14.0040,0.08,-0.01,-0.27,0.28
2022-11-11 12:50:14.0170,0.19,-0.06,-0.24,0.31
2022-11-11 12:50:14.0200,0.26,-0.01,-0.12,0.28
2022-11-11 12:50:14.0320,0.25,0.13,-0.02,0.28
2022-11-11 12:50:14.0350,0.08,0.13,0.06,0.16
2022-11-11 12:50:14.0490,-0.2,0.15,0.07,0.25
2022-11-11 12:50:14.0520,-0.37,0.09,0.02,0.38
2022-11-11 12:50:14.1050,-0.36,-0.02,-0.03,0.36
2022-11-11 12:50:14.1090,-0.12,-0.01,-0.12,0.17
2022-11-11 12:50:14.1180,0.18,0.0,-0.19,0.26
2022-11-11 12:50:14.1210,0.32,0.01,-0.23,0.39
2022-11-11 12:50:14.1340,0.35,0.09,-0.15,0.39
2022-11-11 12:50:14.1370,0.13,0.15,-0.06,0.2
2022-11-11 12:50:14.1490,-0.15,0.1,0.0,0.18
2022-11-11 12:50:14.1520,-0.39,0.06,0.05,0.39
2022-11-11 12:50:14.1660,-0.42,0.03,0.04,0.42
2022-11-11 12:50:14.1690,-0.19,0.04,0.0,0.19
2022-11-11 12:50:14.2230,0.06,0.05,-0.11,0.13
2022-11-11 12:50:14.2260,0.25,0.01,-0.22,0.33
2022-11-11 12:50:14.2350,0.28,-0.01,-0.21,0.35
2022-11-11 12:50:14.2380,0.17,0.06,-0.11,0.21
2022-11-11 12:50:14.2500,-0.05,0.13,-0.03,0.14
2022-11-11 12:50:14.2540,-0.29,0.09,0.03,0.3
2022-11-11 12:50:14.2660,-0.41,0.07,0.08,0.42
2022-11-11 12:50:14.2690,-0.31,0.07,0.02,0.31
2022-11-11 12:50:14.2820,0.03,0.03,-0.08,0.09
2022-11-11 12:50:14.2850,0.29,0.01,-0.16,0.33
2022-11-11 12:50:14.3390,0.38,0.02,-0.17,0.41
2022-11-11 12:50:14.3430,0.27,0.09,-0.13,0.31
2022-11-11 12:50:14.3510,-0.01,0.07,-0.05,0.08
2022-11-11 12:50:14.3550,-0.24,0.05,0.02,0.24
2022-11-11 12:50:14.3670,-0.35,0.07,0.03,0.35
2022-11-11 12:50:14.3700,-0.39,0.03,0.0,0.39
2022-11-11 12:50:14.3830,-0.22,-0.01,-0.05,0.22
2022-11-11 12:50:14.3860,0.05,0.03,-0.06,0.08
2022-11-11 12:50:14.3990,0.2,0.08,-0.08,0.22
2022-11-11 12:50:14.4020,0.18,0.06,-0.07,0.2
2022-11-11 12:50:14.4570,0.08,0.09,-0.03,0.12
2022-11-11 12:50:14.4600,-0.09,0.08,-0.04,0.12
2022-11-11 12:50:14.4670,-0.23,0.06,-0.02,0.23
2022-11-11 12:50:14.4710,-0.29,0.04,-0.05,0.29
2022-11-11 12:50:14.4840,-0.18,0.03,-0.09,0.2
2022-11-11 12:50:14.4870,-0.03,0.04,-0.08,0.09
2022-11-11 12:50:14.4990,0.08,0.04,-0.12,0.14
2022-11-11 12:50:14.5020,0.15,0.05,-0.11,0.19
2022-11-11 12:50:14.5160,0.05,0.04,-0.04,0.07
2022-11-11 12:50:14.5190,-0.01,0.05,0.01,0.05
2022-11-11 12:50:14.5730,-0.05,0.07,0.04,0.09
2022-11-11 12:50:14.5760,-0.07,0.09,0.05,0.12
2022-11-11 12:50:14.5850,-0.13,0.1,-0.02,0.16
2022-11-11 12:50:14.5880,-0.09,0.07,-0.11,0.15
2022-11-11 12:50:14.6000,0.01,0.04,-0.15,0.15
2022-11-11 12:50:14.6040,0.05,-0.02,-0.13,0.14
2022-11-11 12:50:14.6160,0.06,-0.01,-0.07,0.09
2022-11-11 12:50:14.6190,0.02,0.06,-0.01,0.06
2022-11-11 12:50:14.6320,-0.11,0.07,0.02,0.13
2022-11-11 12:50:14.6360,-0.21,0.05,-0.03,0.21
2022-11-11 12:50:14.6880,-0.15,0.02,-0.09,0.17
2022-11-11 12:50:14.6920,0.0,0.04,-0.05,0.06
2022-11-11 12:50:14.7010,0.13,0.1,-0.03,0.16
2022-11-11 12:50:14.7050,0.1,0.09,-0.02,0.13
2022-11-11 12:50:14.7170,-0.09,0.07,-0.02,0.11
2022-11-11 12:50:14.7200,-0.23,0.02,-0.05,0.23
2022-11-11 12:50:14.7320,-0.14,0.0,-0.06,0.15
2022-11-11 12:50:14.7360,0.0,0.04,-0.09,0.09
2022-11-11 12:50:14.7490,0.1,0.07,-0.13,0.17
2022-11-11 12:50:14.7520,0.16,0.02,-0.1,0.18
2022-11-11 12:50:14.8040,0.15,0.1,-0.04,0.18
2022-11-11 12:50:14.8070,-0.05,0.15,-0.04,0.16
2022-11-11 12:50:14.8170,-0.25,0.06,-0.03,0.25
2022-11-11 12:50:14.8210,-0.31,0.04,-0.01,0.31
2022-11-11 12:50:14.8340,-0.23,0.03,-0.04,0.23
2022-11-11 12:50:14.8370,-0.01,0.03,-0.1,0.1
2022-11-11 12:50:14.8490,0.15,-0.03,-0.11,0.18
2022-11-11 12:50:14.8520,0.19,0.03,-0.09,0.21
2022-11-11 12:50:14.8660,0.1,0.12,-0.07,0.17
2022-11-11 12:50:14.8690,-0.03,0.09,-0.05,0.1
2022-11-11 12:50:14.9210,-0.1,0.06,-0.03,0.12
2022-11-11 12:50:14.9250,-0.15,0.04,-0.08,0.17
2022-11-11 12:50:14.9350,-0.09,0.0,-0.11,0.14
2022-11-11 12:50:14.9380,0.1,0.01,-0.09,0.13
2022-11-11 12:50:14.9500,0.18,0.01,-0.06,0.19
2022-11-11 12:50:14.9540,0.15,0.1,-0.01,0.18
2022-11-11 12:50:14.9660,0.04,0.14,0.02,0.14
2022-11-11 12:50:14.9690,-0.12,0.08,0.01,0.14
2022-11-11 12:50:14.9820,-0.16,0.02,-0.01,0.16
2022-11-11 12:50:14.9850,-0.06,0.01,-0.02,0.06
2022-11-11 12:50:15.0370,0.02,0.03,-0.04,0.05
2022-11-11 12:50:15.0400,0.09,0.09,-0.08,0.15
2022-11-11 12:50:15.0510,0.1,0.08,-0.1,0.16
2022-11-11 12:50:15.0540,0.0,0.05,-0.11,0.12
2022-11-11 12:50:15.0670,-0.14,0.04,-0.08,0.16
2022-11-11 12:50:15.0700,-0.17,0.03,-0.08,0.19
2022-11-11 12:50:15.0820,-0.12,-0.01,-0.08,0.14
2022-11-11 12:50:15.0850,-0.03,-0.01,-0.06,0.06
2022-11-11 12:50:15.0990,0.08,0.08,-0.02,0.11
2022-11-11 12:50:15.1020,0.11,0.1,-0.02,0.15
2022-11-11 12:50:15.1530,0.08,0.14,-0.06,0.17
2022-11-11 12:50:15.1570,-0.09,0.09,-0.06,0.14
2022-11-11 12:50:15.1670,-0.19,0.03,-0.06,0.2
2022-11-11 12:50:15.1710,-0.16,0.02,-0.06,0.17
2022-11-11 12:50:15.1830,-0.02,0.02,-0.04,0.04
2022-11-11 12:50:15.1870,0.03,0.01,-0.03,0.04
2022-11-11 12:50:15.1990,0.09,0.04,-0.03,0.1
2022-11-11 12:50:15.2020,0.14,0.13,0.02,0.19
2022-11-11 12:50:15.2150,-0.01,0.08,0.02,0.08
2022-11-11 12:50:15.2180,-0.15,0.05,0.0,0.15
2022-11-11 12:50:15.2690,-0.23,0.08,-0.04,0.24
2022-11-11 12:50:15.2730,-0.28,0.0,-0.07,0.28
2022-11-11 12:50:15.2850,-0.18,-0.03,-0.17,0.24
2022-11-11 12:50:15.2880,-0.07,0.04,-0.22,0.23
2022-11-11 12:50:15.3010,0.08,0.0,-0.24,0.25
2022-11-11 12:50:15.3040,0.33,0.0,-0.1,0.34
2022-11-11 12:50:15.3160,0.35,0.13,0.04,0.37
2022-11-11 12:50:15.3190,0.14,0.16,0.03,0.21
2022-11-11 12:50:15.3320,-0.17,0.12,-0.03,0.21
2022-11-11 12:50:15.3350,-0.45,0.07,-0.05,0.45
2022-11-11 12:50:15.3860,-0.51,0.0,-0.09,0.51
2022-11-11 12:50:15.3900,-0.37,-0.04,-0.16,0.4
2022-11-11 12:50:15.4010,-0.09,-0.01,-0.22,0.23
2022-11-11 12:50:15.4050,0.25,0.03,-0.11,0.27
2022-11-11 12:50:15.4170,0.37,0.11,0.02,0.38
2022-11-11 12:50:15.4210,0.2,0.16,0.03,0.25
2022-11-11 12:50:15.4320,-0.07,0.12,0.03,0.14
2022-11-11 12:50:15.4360,-0.25,0.09,0.01,0.26
2022-11-11 12:50:15.4490,-0.29,0.04,-0.09,0.3
2022-11-11 12:50:15.4520,-0.16,-0.02,-0.17,0.23
2022-11-11 12:50:15.5090,0.07,-0.01,-0.21,0.22
2022-11-11 12:50:15.5130,0.15,0.02,-0.21,0.25
2022-11-11 12:50:15.5180,0.09,0.02,-0.09,0.12
2022-11-11 12:50:15.5220,-0.02,0.08,0.01,0.08
2022-11-11 12:50:15.5340,-0.29,0.13,0.0,0.31
2022-11-11 12:50:15.5370,-0.47,0.09,-0.04,0.48
2022-11-11 12:50:15.5490,-0.4,0.03,-0.07,0.4
2022-11-11 12:50:15.5530,-0.11,0.04,-0.1,0.15
2022-11-11 12:50:15.5660,0.27,0.09,-0.06,0.29
2022-11-11 12:50:15.5690,0.33,0.04,-0.12,0.35
2022-11-11 12:50:15.6280,0.08,-0.03,-0.21,0.22
2022-11-11 12:50:15.6330,-0.06,0.04,-0.16,0.17
2022-11-11 12:50:15.6380,-0.15,0.08,-0.13,0.21
2022-11-11 12:50:15.6500,-0.21,0.03,-0.08,0.22
2022-11-11 12:50:15.6540,-0.2,0.0,-0.1,0.22
2022-11-11 12:50:15.6660,-0.07,0.05,-0.05,0.09
2022-11-11 12:50:15.6690,0.07,0.08,-0.07,0.12
2022-11-11 12:50:15.6820,0.12,0.03,-0.2,0.23
2022-11-11 12:50:15.6850,0.12,0.03,-0.15,0.19
2022-11-11 12:50:15.6990,0.14,0.07,-0.03,0.15
2022-11-11 12:50:15.7560,0.04,0.16,-0.05,0.17
2022-11-11 12:50:15.7600,-0.27,0.19,-0.15,0.36
2022-11-11 12:50:15.7680,-0.42,0.12,-0.31,0.53
2022-11-11 12:50:15.7720,-0.24,0.04,-0.39,0.45
2022-11-11 12:50:15.7840,-0.14,-0.15,-0.39,0.44
2022-11-11 12:50:15.7870,0.09,-0.17,-0.27,0.33
2022-11-11 12:50:15.7990,0.23,0.06,-0.01,0.23
2022-11-11 12:50:15.8030,0.12,0.14,0.02,0.18
2022-11-11 12:50:15.8160,0.15,0.01,-0.02,0.15
2022-11-11 12:50:15.8190,0.04,0.03,0.0,0.05
2022-11-11 12:50:15.8770,-0.22,0.12,-0.11,0.27
2022-11-11 12:50:15.8810,-0.34,0.1,-0.32,0.47
2022-11-11 12:50:15.8860,-0.14,0.02,-0.31,0.34
2022-11-11 12:50:15.9000,-0.04,0.02,-0.22,0.22
2022-11-11 12:50:15.9040,-0.17,0.03,-0.27,0.32
2022-11-11 12:50:15.9160,-0.15,0.02,-0.29,0.32
2022-11-11 12:50:15.9190,-0.02,-0.02,-0.29,0.29
2022-11-11 12:50:15.9320,0.21,-0.02,-0.23,0.31
2022-11-11 12:50:15.9350,0.25,-0.02,-0.08,0.26
2022-11-11 12:50:15.9490,0.18,0.03,0.01,0.18
2022-11-11 12:50:16.0060,0.05,0.07,-0.15,0.17
2022-11-11 12:50:16.0100,-0.01,0.06,-0.26,0.26
2022-11-11 12:50:16.0180,0.15,0.0,-0.25,0.29
2022-11-11 12:50:16.0210,0.39,-0.01,-0.18,0.42
2022-11-11 12:50:16.0340,0.41,0.04,-0.14,0.43
2022-11-11 12:50:16.0370,0.23,0.11,-0.07,0.26
2022-11-11 12:50:16.0490,0.05,0.15,-0.04,0.16
2022-11-11 12:50:16.0530,-0.06,0.01,-0.2,0.2
2022-11-11 12:50:16.0660,-0.02,-0.16,-0.21,0.26
2022-11-11 12:50:16.0690,0.18,-0.06,-0.03,0.19
2022-11-11 12:50:16.1270,0.22,0.12,-0.01,0.25
2022-11-11 12:50:16.1320,0.23,0.18,-0.01,0.29
2022-11-11 12:50:16.1360,0.12,0.14,-0.09,0.2
2022-11-11 12:50:16.1500,-0.19,0.02,-0.16,0.24
2022-11-11 12:50:16.1540,-0.15,-0.03,-0.13,0.2
2022-11-11 12:50:16.1660,0.01,-0.03,-0.13,0.13
2022-11-11 12:50:16.1690,0.16,-0.01,-0.12,0.2
2022-11-11 12:50:16.1820,0.25,0.03,-0.09,0.26
2022-11-11 12:50:16.1860,0.17,0.05,-0.09,0.19
2022-11-11 12:50:16.1990,0.03,0.08,-0.1,0.13
2022-11-11 12:50:16.2570,-0.11,0.07,-0.1,0.16
2022-11-11 12:50:16.2600,-0.16,0.12,0.02,0.2
2022-11-11 12:50:16.2680,-0.06,0.16,-0.06,0.18
2022-11-11 12:50:16.2710,-0.07,0.02,-0.16,0.17
2022-11-11 12:50:16.2850,-0.11,-0.15,-0.11,0.21
2022-11-11 12:50:16.2890,0.04,-0.07,-0.16,0.17
2022-11-11 12:50:16.2990,0.17,0.1,-0.15,0.24
2022-11-11 12:50:16.3030,0.16,0.07,-0.1,0.2
2022-11-11 12:50:16.3160,0.13,-0.01,-0.11,0.17
2022-11-11 12:50:16.3190,-0.03,0.02,-0.05,0.06
2022-11-11 12:50:16.3780,-0.2,-0.08,-0.17,0.27
2022-11-11 12:50:16.3830,-0.15,-0.1,-0.27,0.32
2022-11-11 12:50:16.3880,0.26,0.19,-0.15,0.35
2022-11-11 12:50:16.4010,0.45,0.27,-0.13,0.54
2022-11-11 12:50:16.4040,0.36,0.1,-0.22,0.43
2022-11-11 12:50:16.4160,0.03,-0.03,-0.29,0.29
2022-11-11 12:50:16.4190,-0.3,-0.03,-0.26,0.39
2022-11-11 12:50:16.4320,-0.36,-0.01,-0.12,0.37
2022-11-11 12:50:16.4360,-0.05,-0.03,-0.04,0.07
2022-11-11 12:50:16.4490,0.23,-0.1,-0.13,0.28
2022-11-11 12:50:16.5080,0.38,-0.18,-0.32,0.52
2022-11-11 12:50:16.5110,0.76,0.02,-0.27,0.8
2022-11-11 12:50:16.5180,0.67,0.27,-0.22,0.75
2022-11-11 12:50:16.5220,0.23,0.21,-0.27,0.41
2022-11-11 12:50:16.5340,-0.11,0.1,-0.22,0.26
2022-11-11 12:50:16.5370,-0.14,0.21,-0.16,0.29
2022-11-11 12:50:16.5490,-0.19,0.15,-0.21,0.32
2022-11-11 12:50:16.5530,0.0,-0.26,-0.32,0.41
2022-11-11 12:50:16.5660,0.87,-0.41,-0.2,0.98
2022-11-11 12:50:16.5690,1.15,-0.07,-0.05,1.15
2022-11-11 12:50:16.6280,0.53,0.25,-0.03,0.58
2022-11-11 12:50:16.6330,0.06,0.36,0.13,0.38
2022-11-11 12:50:16.6380,-0.21,0.26,0.36,0.49
2022-11-11 12:50:16.6510,-0.48,0.14,0.47,0.68
2022-11-11 12:50:16.6540,-0.46,0.03,0.13,0.47
2022-11-11 12:50:16.6660,0.3,-0.03,-0.49,0.57
2022-11-11 12:50:16.6690,0.89,-0.12,-0.79,1.19
2022-11-11 12:50:16.6820,0.77,-0.26,-0.76,1.11
2022-11-11 12:50:16.6860,0.39,-0.21,-0.52,0.68
2022-11-11 12:50:16.6990,-0.08,-0.06,-0.11,0.14
2022-11-11 12:50:16.7580,-0.71,-0.11,0.4,0.82
2022-11-11 12:50:16.7620,-1.1,-0.23,0.73,1.34
2022-11-11 12:50:16.7680,-0.49,0.16,0.7,0.86
2022-11-11 12:50:16.7720,0.46,0.48,-0.05,0.66
2022-11-11 12:50:16.7840,0.45,-0.02,-0.82,0.93
2022-11-11 12:50:16.7870,-0.01,-0.37,-1.01,1.07
2022-11-11 12:50:16.7990,-0.32,-0.26,-0.79,0.89
2022-11-11 12:50:16.8030,-0.65,-0.14,-0.24,0.7
2022-11-11 12:50:16.8160,-1.38,-0.22,0.29,1.42
2022-11-11 12:50:16.8190,-1.92,-0.26,0.68,2.05
2022-11-11 12:50:16.8790,-2.02,-0.04,1.05,2.27
2022-11-11 12:50:16.8850,-1.34,0.52,0.71,1.6
2022-11-11 12:50:16.8890,-0.11,0.7,-0.28,0.76
2022-11-11 12:50:16.9010,0.69,-0.03,-1.1,1.29
2022-11-11 12:50:16.9040,1.38,-0.58,-1.21,1.92
2022-11-11 12:50:16.9160,1.35,-0.47,-0.83,1.65
2022-11-11 12:50:16.9190,0.65,-0.09,-0.14,0.67
2022-11-11 12:50:16.9330,-0.28,0.14,0.52,0.6
2022-11-11 12:50:16.9360,-1.27,0.1,1.01,1.62
2022-11-11 12:50:16.9490,-1.89,0.05,1.27,2.27
2022-11-11 12:50:17.0090,-1.78,0.32,1.16,2.14
2022-11-11 12:50:17.0130,-0.98,0.55,0.31,1.16
2022-11-11 12:50:17.0180,-0.09,0.11,-0.96,0.97
2022-11-11 12:50:17.0220,0.89,-0.44,-1.7,1.96
2022-11-11 12:50:17.0340,2.13,-0.49,-1.52,2.66
2022-11-11 12:50:17.0380,2.33,-0.31,-0.89,2.51
2022-11-11 12:50:17.0490,1.16,-0.03,-0.11,1.16
2022-11-11 12:50:17.0530,-0.17,0.24,0.71,0.76
2022-11-11 12:50:17.0660,-1.01,0.35,1.12,1.54
2022-11-11 12:50:17.0690,-1.6,0.33,1.22,2.03
2022-11-11 12:50:17.1280,-1.56,0.06,0.97,1.83
2022-11-11 12:50:17.1330,-0.28,-0.1,0.19,0.35
2022-11-11 12:50:17.1380,1.18,-0.15,-0.88,1.47
2022-11-11 12:50:17.1500,2.05,-0.22,-1.51,2.55
2022-11-11 12:50:17.1540,2.2,-0.2,-1.56,2.7
2022-11-11 12:50:17.1660,1.74,-0.03,-0.64,1.85
2022-11-11 12:50:17.1690,0.64,0.26,0.38,0.78
2022-11-11 12:50:17.1830,-0.86,0.35,0.85,1.25
2022-11-11 12:50:17.1880,-1.98,0.27,1.15,2.3
2022-11-11 12:50:17.1990,-2.33,0.18,1.2,2.62
2022-11-11 12:50:17.2590,-1.56,-0.01,0.5,1.63
2022-11-11 12:50:17.2620,-0.31,-0.36,-0.7,0.84
2022-11-11 12:50:17.2680,0.28,-0.44,-1.14,1.25
2022-11-11 12:50:17.2720,0.5,-0.1,-0.79,0.94
2022-11-11 12:50:17.2850,0.37,0.2,-0.18,0.45
2022-11-11 12:50:17.2890,-0.62,0.12,0.42,0.75
2022-11-11 12:50:17.3000,-1.52,0.03,0.91,1.77
2022-11-11 12:50:17.3030,-1.84,0.08,0.98,2.08
2022-11-11 12:50:17.3160,-1.98,0.2,0.67,2.09
2022-11-11 12:50:17.3190,-1.71,0.24,0.29,1.75
2022-11-11 12:50:17.3770,-0.95,-0.07,-0.14,0.96
2022-11-11 12:50:17.3820,0.12,-0.29,-0.45,0.54
2022-11-11 12:50:17.3870,0.71,-0.12,-0.63,0.95
2022-11-11 12:50:17.4010,0.78,-0.04,-0.75,1.08
2022-11-11 12:50:17.4040,0.96,-0.12,-0.52,1.09
2022-11-11 12:50:17.4160,0.71,-0.14,-0.05,0.72
2022-11-11 12:50:17.4200,0.16,-0.05,0.17,0.23
2022-11-11 12:50:17.4320,-0.2,0.15,0.31,0.39
2022-11-11 12:50:17.4360,-0.42,0.21,0.38,0.6
2022-11-11 12:50:17.4490,-0.22,-0.01,0.43,0.48
2022-11-11 12:50:17.5090,0.29,-0.08,0.2,0.36
2022-11-11 12:50:17.5140,0.57,0.09,-0.19,0.6
2022-11-11 12:50:17.5190,0.96,0.08,-0.52,1.09
2022-11-11 12:50:17.5340,1.32,-0.15,-0.72,1.51
2022-11-11 12:50:17.5380,1.0,-0.2,-0.68,1.22
2022-11-11 12:50:17.5490,0.57,0.13,-0.14,0.6
2022-11-11 12:50:17.5530,-0.08,0.21,0.42,0.47
2022-11-11 12:50:17.5660,-0.73,0.15,0.69,1.01
2022-11-11 12:50:17.5690,-1.12,0.19,0.65,1.3
2022-11-11 12:50:17.5830,-1.08,0.1,0.43,1.16
2022-11-11 12:50:17.6420,-0.79,0.0,0.23,0.82
2022-11-11 12:50:17.6450,-0.27,-0.15,0.01,0.3
2022-11-11 12:50:17.6520,0.21,-0.24,-0.25,0.4
2022-11-11 12:50:17.6550,0.16,-0.24,-0.59,0.65
2022-11-11 12:50:17.6670,0.03,-0.18,-0.77,0.79
2022-11-11 12:50:17.6710,0.21,0.09,-0.29,0.36
2022-11-11 12:50:17.6830,0.03,0.22,0.19,0.29
2022-11-11 12:50:17.6860,-0.16,0.09,0.17,0.25
2022-11-11 12:50:17.6990,-0.25,-0.02,0.1,0.26
2022-11-11 12:50:17.7030,-0.33,0.1,0.06,0.35
2022-11-11 12:50:17.7610,-0.25,0.17,0.0,0.3
2022-11-11 12:50:17.7650,-0.17,0.07,0.02,0.18
2022-11-11 12:50:17.7700,-0.4,0.01,-0.02,0.4
2022-11-11 12:50:17.7840,-0.44,0.12,-0.18,0.49
2022-11-11 12:50:17.7870,-0.34,0.06,-0.3,0.45
2022-11-11 12:50:17.7990,-0.18,-0.05,-0.38,0.42
2022-11-11 12:50:17.8030,0.01,-0.17,-0.36,0.39
2022-11-11 12:50:17.8160,0.08,-0.18,-0.21,0.28
2022-11-11 12:50:17.8190,0.24,0.06,-0.02,0.24
2022-11-11 12:50:17.8330,-0.12,0.05,0.14,0.19
2022-11-11 12:50:17.8920,-0.12,-0.06,0.25,0.28
2022-11-11 12:50:17.8960,0.08,0.12,0.14,0.2
2022-11-11 12:50:17.9010,0.16,0.25,-0.01,0.29
2022-11-11 12:50:17.9050,0.4,0.08,-0.23,0.46
2022-11-11 12:50:17.9170,0.42,-0.01,-0.42,0.59
2022-11-11 12:50:17.9210,0.03,-0.04,-0.45,0.45
2022-11-11 12:50:17.9330,-0.25,-0.1,-0.37,0.45
2022-11-11 12:50:17.9360,-0.22,-0.1,0.01,0.24
2022-11-11 12:50:17.9490,-0.29,0.05,0.24,0.37
2022-11-11 12:50:17.9530,-0.31,0.13,0.27,0.43
2022-11-11 12:50:18.0130,0.02,0.01,0.12,0.12
2022-11-11 12:50:18.0170,0.23,0.03,-0.12,0.26
2022-11-11 12:50:18.0210,0.08,0.01,-0.28,0.29
2022-11-11 12:50:18.0340,-0.12,-0.11,-0.35,0.38
2022-11-11 12:50:18.0370,-0.4,-0.08,-0.37,0.55
2022-11-11 12:50:18.0490,-0.38,0.07,-0.22,0.44
2022-11-11 12:50:18.0530,-0.18,0.16,-0.05,0.24
2022-11-11 12:50:18.0660,-0.21,0.18,0.0,0.27
2022-11-11 12:50:18.0690,-0.37,0.1,0.02,0.38
2022-11-11 12:50:18.0830,-0.51,-0.03,0.0,0.51
2022-11-11 12:50:18.1430,-0.33,-0.09,-0.03,0.34
2022-11-11 12:50:18.1500,-0.03,-0.05,-0.08,0.09
2022-11-11 12:50:18.1560,0.01,-0.04,-0.23,0.23
2022-11-11 12:50:18.1680,-0.07,-0.08,-0.3,0.31
2022-11-11 12:50:18.1720,-0.04,0.07,-0.16,0.17
2022-11-11 12:50:18.1830,-0.3,0.19,-0.08,0.36
2022-11-11 12:50:18.1860,-0.32,0.19,-0.03,0.37
2022-11-11 12:50:18.1990,0.05,0.13,0.06,0.15
2022-11-11 12:50:18.2020,0.17,-0.07,0.06,0.19
2022-11-11 12:50:18.2160,0.1,-0.16,-0.05,0.19
2022-11-11 12:50:18.2740,0.05,-0.02,0.0,0.05
2022-11-11 12:50:18.2780,-0.08,-0.02,0.15,0.17
2022-11-11 12:50:18.2840,-0.21,-0.11,0.02,0.23
2022-11-11 12:50:18.2880,-0.29,-0.15,-0.13,0.35
2022-11-11 12:50:18.3010,-0.36,-0.13,-0.25,0.45
2022-11-11 12:50:18.3040,-0.03,-0.11,-0.17,0.2
2022-11-11 12:50:18.3160,0.45,-0.09,-0.09,0.46
2022-11-11 12:50:18.3200,0.39,-0.05,-0.12,0.41
2022-11-11 12:50:18.3340,0.19,-0.05,-0.12,0.23
2022-11-11 12:50:18.3380,-0.1,-0.04,-0.15,0.18
2022-11-11 12:50:18.3970,-0.36,0.0,-0.07,0.36
2022-11-11 12:50:18.4010,-0.1,0.06,-0.06,0.13
2022-11-11 12:50:18.4180,0.3,0.15,-0.07,0.34
2022-11-11 12:50:18.4220,0.24,0.12,-0.14,0.3
2022-11-11 12:50:18.4340,0.21,-0.06,-0.22,0.31
2022-11-11 12:50:18.4380,0.34,-0.1,-0.24,0.42
2022-11-11 12:50:18.4490,-0.08,-0.07,-0.25,0.27
2022-11-11 12:50:18.4520,-0.06,-0.07,-0.23,0.24
2022-11-11 12:50:18.4660,0.45,0.0,-0.14,0.47
2022-11-11 12:50:18.4690,0.4,0.04,-0.07,0.4
2022-11-11 12:50:18.5270,0.2,0.08,0.06,0.22
2022-11-11 12:50:18.5310,-0.04,0.12,0.1,0.16
2022-11-11 12:50:18.5360,-0.18,0.11,0.09,0.22
2022-11-11 12:50:18.5510,-0.3,0.12,0.06,0.32
2022-11-11 12:50:18.5540,-0.26,0.19,-0.02,0.32
2022-11-11 12:50:18.5660,-0.13,0.13,-0.04,0.18
2022-11-11 12:50:18.5690,-0.11,0.0,-0.1,0.14
2022-11-11 12:50:18.5820,0.09,0.02,-0.17,0.19
2022-11-11 12:50:18.5860,0.12,-0.03,-0.16,0.2
2022-11-11 12:50:18.5990,0.2,-0.02,-0.16,0.25
2022-11-11 12:50:18.6570,0.23,0.08,-0.2,0.31
2022-11-11 12:50:18.6600,0.02,0.14,-0.15,0.2
2022-11-11 12:50:18.6680,-0.24,0.05,-0.02,0.24
2022-11-11 12:50:18.6710,-0.42,-0.07,0.05,0.42
2022-11-11 12:50:18.6840,-0.49,-0.12,0.09,0.51
2022-11-11 12:50:18.6880,-0.5,-0.11,0.07,0.51
2022-11-11 12:50:18.6990,-0.31,0.05,0.06,0.31
2022-11-11 12:50:18.7020,-0.27,0.11,-0.08,0.3
2022-11-11 12:50:18.7160,-0.31,0.04,-0.22,0.38
2022-11-11 12:50:18.7190,-0.38,-0.03,-0.3,0.48
2022-11-11 12:50:18.7770,-0.3,-0.24,-0.03,0.38
2022-11-11 12:50:18.7810,-0.01,0.08,0.14,0.16
2022-11-11 12:50:18.7860,-0.15,0.02,0.12,0.19
2022-11-11 12:50:18.8010,-0.17,-0.03,0.15,0.22
2022-11-11 12:50:18.8040,-0.2,-0.06,0.14,0.25
2022-11-11 12:50:18.8160,-0.11,-0.19,0.13,0.25
2022-11-11 12:50:18.8190,0.17,-0.17,0.05,0.24
2022-11-11 12:50:18.8320,0.41,0.01,-0.01,0.41
2022-11-11 12:50:18.8360,0.25,0.09,0.03,0.26
2022-11-11 12:50:18.8490,-0.05,0.0,0.06,0.07
2022-11-11 12:50:18.9070,-0.18,-0.04,0.06,0.19
2022-11-11 12:50:18.9100,-0.31,-0.02,0.14,0.34
2022-11-11 12:50:18.9180,-0.32,0.0,0.23,0.39
2022-11-11 12:50:18.9220,-0.27,0.1,0.35,0.45
2022-11-11 12:50:18.9340,-0.22,0.11,0.32,0.4
2022-11-11 12:50:18.9370,-0.02,0.12,0.2,0.23
2022-11-11 12:50:18.9490,0.09,0.09,0.08,0.15
2022-11-11 12:50:18.9530,0.2,0.09,0.02,0.22
2022-11-11 12:50:18.9660,0.23,-0.08,0.06,0.25
2022-11-11 12:50:18.9690,0.07,-0.1,-0.22,0.25
2022-11-11 12:50:19.0260,0.3,0.04,-0.1,0.31
2022-11-11 12:50:19.0300,0.29,-0.04,-0.15,0.32
2022-11-11 12:50:19.0340,0.06,0.0,-0.1,0.11
2022-11-11 12:50:19.0380,0.08,0.06,0.1,0.14
2022-11-11 12:50:19.0510,0.16,0.04,0.11,0.19
2022-11-11 12:50:19.0540,-0.02,-0.05,0.01,0.05
2022-11-11 12:50:19.0660,-0.18,-0.11,-0.13,0.24
2022-11-11 12:50:19.0690,-0.12,-0.13,-0.27,0.32
2022-11-11 12:50:19.0830,0.05,-0.07,-0.31,0.32
2022-11-11 12:50:19.0860,0.02,0.05,-0.16,0.16
2022-11-11 12:50:19.1460,-0.27,0.09,-0.02,0.28
2022-11-11 12:50:19.1520,-0.57,0.05,0.04,0.57
2022-11-11 12:50:19.1550,-0.57,-0.05,0.0,0.57
2022-11-11 12:50:19.1670,-0.26,-0.06,0.05,0.27
2022-11-11 12:50:19.1700,-0.2,-0.03,0.11,0.23
2022-11-11 12:50:19.1820,-0.04,-0.03,0.0,0.05
2022-11-11 12:50:19.1850,0.17,-0.04,-0.09,0.19
2022-11-11 12:50:19.1990,0.08,-0.04,-0.16,0.18
2022-11-11 12:50:19.2020,0.05,0.03,-0.2,0.2
2022-11-11 12:50:19.2160,0.25,0.04,-0.17,0.3
2022-11-11 12:50:19.2740,0.29,-0.02,-0.15,0.32
2022-11-11 12:50:19.2770,0.19,-0.01,-0.09,0.21
2022-11-11 12:50:19.2850,0.07,0.06,0.0,0.09
2022-11-11 12:50:19.2890,-0.17,0.1,0.1,0.22
2022-11-11 12:50:19.3010,-0.52,0.03,0.03,0.52
2022-11-11 12:50:19.3040,-0.36,0.0,-0.01,0.36
2022-11-11 12:50:19.3160,-0.23,-0.01,0.02,0.23
2022-11-11 12:50:19.3190,-0.13,-0.01,0.01,0.13
2022-11-11 12:50:19.3330,0.07,0.01,-0.04,0.08
2022-11-11 12:50:19.3360,0.22,-0.01,-0.09,0.23
2022-11-11 12:50:19.3930,0.24,0.02,-0.13,0.27
2022-11-11 12:50:19.3980,0.1,0.08,-0.15,0.19
2022-11-11 12:50:19.4030,0.01,0.08,-0.07,0.1
2022-11-11 12:50:19.4170,0.01,0.07,-0.03,0.07
2022-11-11 12:50:19.4200,-0.16,0.03,0.0,0.16
2022-11-11 12:50:19.4330,-0.23,-0.03,0.1,0.25
2022-11-11 12:50:19.4360,0.02,-0.02,0.1,0.1
2022-11-11 12:50:19.4490,0.03,0.02,0.01,0.03
2022-11-11 12:50:19.4530,-0.07,0.01,-0.13,0.14
2022-11-11 12:50:19.4660,0.06,0.03,-0.28,0.28
2022-11-11 12:50:19.5240,0.03,0.05,-0.33,0.33
2022-11-11 12:50:19.5270,-0.13,0.04,-0.24,0.27
2022-11-11 12:50:19.5350,-0.18,0.01,-0.14,0.22
2022-11-11 12:50:19.5380,-0.14,-0.01,-0.05,0.14
2022-11-11 12:50:19.5510,-0.19,-0.01,0.07,0.2
2022-11-11 12:50:19.5540,-0.21,-0.01,0.18,0.27
2022-11-11 12:50:19.5660,-0.07,-0.02,0.05,0.08
2022-11-11 12:50:19.5690,-0.04,-0.04,-0.12,0.13
2022-11-11 12:50:19.5830,-0.01,0.0,-0.16,0.16
2022-11-11 12:50:19.5860,0.06,0.04,-0.17,0.18
2022-11-11 12:50:19.6430,0.06,0.03,-0.14,0.15
2022-11-11 12:50:19.6470,0.12,-0.01,-0.12,0.17
2022-11-11 12:50:19.6530,0.26,-0.04,-0.14,0.29
2022-11-11 12:50:19.6670,0.11,0.01,-0.13,0.17
2022-11-11 12:50:19.6710,-0.04,0.06,-0.06,0.09
2022-11-11 12:50:19.6830,0.02,0.09,0.07,0.11
2022-11-11 12:50:19.6860,-0.15,-0.01,0.14,0.2
2022-11-11 12:50:19.7000,-0.29,-0.04,0.19,0.34
2022-11-11 12:50:19.7030,-0.14,0.04,0.12,0.18
2022-11-11 12:50:19.7160,-0.15,0.03,0.03,0.15
2022-11-11 12:50:19.7740,-0.1,0.05,-0.06,0.12
2022-11-11 12:50:19.7780,-0.06,0.06,-0.15,0.17
2022-11-11 12:50:19.7850,-0.17,0.01,-0.21,0.27
2022-11-11 12:50:19.7880,-0.19,0.01,-0.19,0.26
2022-11-11 12:50:19.8010,-0.18,-0.01,-0.03,0.18
2022-11-11 12:50:19.8040,-0.17,-0.05,0.05,0.18
2022-11-11 12:50:19.8160,-0.03,-0.05,0.01,0.05
2022-11-11 12:50:19.8190,0.09,0.06,0.0,0.1
2022-11-11 12:50:19.8320,0.0,0.04,-0.04,0.05
2022-11-11 12:50:19.8360,-0.13,-0.03,-0.04,0.13
2022-11-11 12:50:19.8930,-0.02,-0.03,0.02,0.04
2022-11-11 12:50:19.8970,0.05,-0.08,-0.05,0.1
2022-11-11 12:50:19.9020,0.2,-0.04,-0.12,0.23
2022-11-11 12:50:19.9050,0.3,0.06,-0.17,0.35
2022-11-11 12:50:19.9170,0.25,0.06,-0.14,0.29
2022-11-11 12:50:19.9200,0.04,-0.01,-0.06,0.07
2022-11-11 12:50:19.9330,0.06,0.05,-0.06,0.09
2022-11-11 12:50:19.9360,0.1,0.05,0.0,0.11
2022-11-11 12:50:19.9490,-0.09,-0.05,0.09,0.13
2022-11-11 12:50:19.9530,-0.08,0.01,0.15,0.17
2022-11-11 12:50:20.0110,-0.08,0.04,0.15,0.17
2022-11-11 12:50:20.0140,-0.1,-0.01,0.1,0.14
2022-11-11 12:50:20.0190,0.03,-0.02,0.01,0.03
2022-11-11 12:50:20.0340,-0.01,-0.07,-0.2,0.21
2022-11-11 12:50:20.0370,-0.15,-0.09,-0.34,0.38
2022-11-11 12:50:20.0490,-0.06,0.0,-0.28,0.28
2022-11-11 12:50:20.0530,-0.04,0.06,-0.1,0.12
2022-11-11 12:50:20.0660,-0.35,0.01,0.05,0.35
2022-11-11 12:50:20.0690,-0.34,0.07,0.09,0.35
2022-11-11 12:50:20.0830,-0.11,0.17,0.26,0.32
2022-11-11 12:50:20.1410,-0.27,0.02,0.35,0.44
2022-11-11 12:50:20.1450,-0.48,-0.07,0.31,0.57
2022-11-11 12:50:20.1510,-0.12,0.14,-0.13,0.22
2022-11-11 12:50:20.1550,0.12,0.07,-0.07,0.15
2022-11-11 12:50:20.1670,-0.13,-0.12,-0.27,0.32
2022-11-11 12:50:20.1710,-0.11,-0.09,-0.35,0.37
2022-11-11 12:50:20.1830,-0.05,-0.01,-0.26,0.26
2022-11-11 12:50:20.1860,-0.12,0.0,-0.19,0.22
2022-11-11 12:50:20.1990,-0.05,-0.02,-0.14,0.15
2022-11-11 12:50:20.2030,0.03,-0.01,-0.13,0.13
2022-11-11 12:50:20.2610,0.04,0.04,-0.1,0.11
2022-11-11 12:50:20.2650,0.08,0.06,0.02,0.1
2022-11-11 12:50:20.2700,0.01,0.02,0.04,0.04
2022-11-11 12:50:20.2840,-0.13,0.01,-0.01,0.13
2022-11-11 12:50:20.2880,-0.12,0.04,-0.12,0.17
2022-11-11 12:50:20.3000,-0.13,0.01,-0.24,0.27
2022-11-11 12:50:20.3030,-0.17,-0.02,-0.26,0.31
2022-11-11 12:50:20.3160,0.05,0.1,-0.18,0.21
2022-11-11 12:50:20.3190,0.42,0.11,-0.22,0.48
2022-11-11 12:50:20.3330,0.43,-0.01,-0.27,0.5
2022-11-11 12:50:20.3910,0.29,-0.03,-0.18,0.34
2022-11-11 12:50:20.3950,0.2,0.08,-0.04,0.21
2022-11-11 12:50:20.4020,0.08,0.13,0.01,0.15
2022-11-11 12:50:20.4050,-0.13,0.03,0.04,0.13
2022-11-11 12:50:20.4170,-0.3,-0.04,0.02,0.3
2022-11-11 12:50:20.4210,-0.09,0.05,-0.07,0.12
2022-11-11 12:50:20.4330,0.04,0.04,-0.14,0.15
2022-11-11 12:50:20.4360,-0.17,-0.07,-0.25,0.31
2022-11-11 12:50:20.4490,-0.09,-0.04,-0.25,0.26
2022-11-11 12:50:20.4520,0.07,0.03,-0.09,0.11
2022-11-11 12:50:20.5110,-0.04,0.02,0.07,0.08
2022-11-11 12:50:20.5150,-0.21,-0.03,0.11,0.23
2022-11-11 12:50:20.5200,-0.21,-0.04,0.16,0.26
2022-11-11 12:50:20.5340,-0.02,-0.05,0.17,0.17
2022-11-11 12:50:20.5380,0.19,-0.02,0.07,0.2
2022-11-11 12:50:20.5500,0.21,0.04,0.02,0.21
2022-11-11 12:50:20.5530,0.19,0.05,0.04,0.2
2022-11-11 12:50:20.5660,0.04,0.02,0.23,0.23
2022-11-11 12:50:20.5690,-0.3,-0.03,0.37,0.47
2022-11-11 12:50:20.5830,-0.3,-0.01,0.25,0.39
2022-11-11 12:50:20.6400,-0.25,-0.03,0.16,0.29
2022-11-11 12:50:20.6440,-0.33,-0.03,0.13,0.35
2022-11-11 12:50:20.6510,-0.11,0.02,0.07,0.13
2022-11-11 12:50:20.6550,0.15,-0.05,0.02,0.15
2022-11-11 12:50:20.6670,0.18,-0.11,0.0,0.21
2022-11-11 12:50:20.6710,0.17,-0.05,0.04,0.18
2022-11-11 12:50:20.6830,0.13,0.02,0.14,0.19
2022-11-11 12:50:20.6860,-0.04,0.05,0.26,0.26
2022-11-11 12:50:20.6990,-0.08,0.08,0.36,0.37
2022-11-11 12:50:20.7030,0.02,0.03,0.3,0.3
2022-11-11 12:50:20.7600,0.01,-0.04,0.25,0.25
2022-11-11 12:50:20.7640,-0.01,0.03,0.23,0.23
2022-11-11 12:50:20.7700,0.05,0.06,0.12,0.14
2022-11-11 12:50:20.7840,0.08,-0.03,0.02,0.08
2022-11-11 12:50:20.7880,0.01,-0.05,0.05,0.07
2022-11-11 12:50:20.7990,-0.12,-0.04,0.2,0.23
2022-11-11 12:50:20.8030,-0.16,-0.02,0.26,0.3
2022-11-11 12:50:20.8160,-0.19,0.02,0.25,0.31
2022-11-11 12:50:20.8190,-0.23,0.03,0.2,0.3
2022-11-11 12:50:20.8330,-0.28,0.02,0.08,0.29
2022-11-11 12:50:20.8910,-0.3,0.06,0.04,0.3
2022-11-11 12:50:20.8940,-0.4,0.0,0.05,0.4
2022-11-11 12:50:20.9010,-0.39,-0.06,0.01,0.39
2022-11-11 12:50:20.9050,-0.36,-0.08,0.03,0.37
2022-11-11 12:50:20.9180,-0.43,-0.03,0.06,0.43
2022-11-11 12:50:20.9210,-0.31,0.14,0.05,0.34
2022-11-11 12:50:20.9330,-0.33,0.13,0.18,0.39
2022-11-11 12:50:20.9360,-0.54,-0.08,0.43,0.69
2022-11-11 12:50:20.9500,-0.62,-0.07,0.47,0.78
2022-11-11 12:50:20.9530,-0.49,0.19,0.24,0.57
2022-11-11 12:50:21.0110,-0.66,0.05,0.01,0.66
2022-11-11 12:50:21.0160,-0.87,-0.15,-0.24,0.91
2022-11-11 12:50:21.0200,-0.68,-0.16,-0.42,0.81
2022-11-11 12:50:21.0340,-0.18,-0.04,-0.36,0.4
2022-11-11 12:50:21.0380,0.17,0.04,-0.26,0.31
2022-11-11 12:50:21.0500,0.24,0.09,-0.23,0.34
2022-11-11 12:50:21.0530,0.25,0.22,-0.24,0.41
2022-11-11 12:50:21.0660,0.09,0.2,-0.29,0.36
2022-11-11 12:50:21.0690,-0.42,-0.2,-0.29,0.54
2022-11-11 12:50:21.0830,-0.73,-0.35,-0.02,0.8
2022-11-11 12:50:21.1410,-0.45,0.02,0.45,0.63
2022-11-11 12:50:21.1450,-0.12,0.35,0.66,0.75
2022-11-11 12:50:21.1520,-0.08,0.3,0.33,0.45
2022-11-11 12:50:21.1560,-0.1,0.05,-0.29,0.31
2022-11-11 12:50:21.1680,-0.11,-0.09,-0.57,0.58
2022-11-11 12:50:21.1710,-0.13,-0.05,-0.28,0.31
2022-11-11 12:50:21.1830,-0.14,-0.01,-0.03,0.14
2022-11-11 12:50:21.1860,-0.6,-0.21,0.18,0.66
2022-11-11 12:50:21.2000,-0.94,-0.44,0.43,1.12
2022-11-11 12:50:21.2030,-0.71,-0.23,0.62,0.97
2022-11-11 12:50:21.2610,-0.51,0.35,0.58,0.84
2022-11-11 12:50:21.2650,-0.26,0.73,0.07,0.77
2022-11-11 12:50:21.2700,-0.19,0.16,-0.68,0.72
2022-11-11 12:50:21.2840,-0.18,-0.53,-0.86,1.02
2022-11-11 12:50:21.2880,0.6,-0.36,-0.39,0.8
2022-11-11 12:50:21.3000,1.18,-0.09,0.06,1.18
2022-11-11 12:50:21.3030,0.66,-0.04,0.31,0.73
2022-11-11 12:50:21.3160,-0.02,0.07,0.51,0.51
2022-11-11 12:50:21.3190,-0.54,0.09,0.66,0.85
2022-11-11 12:50:21.3330,-0.98,0.18,0.38,1.06
2022-11-11 12:50:21.3920,-0.79,0.34,-0.15,0.87
2022-11-11 12:50:21.3960,-0.15,0.27,-0.34,0.45
2022-11-11 12:50:21.4010,0.43,0.03,-0.34,0.54
2022-11-11 12:50:21.4050,0.89,-0.14,-0.25,0.93
2022-11-11 12:50:21.4180,0.88,-0.35,-0.06,0.94
2022-11-11 12:50:21.4210,0.13,-0.49,0.17,0.53
2022-11-11 12:50:21.4330,-0.81,-0.25,0.37,0.92
2022-11-11 12:50:21.4360,-1.24,-0.02,0.32,1.28
2022-11-11 12:50:21.4490,-1.17,0.28,0.05,1.2
2022-11-11 12:50:21.4530,-0.54,0.71,-0.26,0.92
2022-11-11 12:50:21.5130,0.43,0.57,-0.42,0.82
2022-11-11 12:50:21.5170,1.11,-0.05,-0.43,1.19
2022-11-11 12:50:21.5210,1.22,-0.38,-0.45,1.35
2022-11-11 12:50:21.5340,0.81,-0.36,-0.38,0.96
2022-11-11 12:50:21.5370,-0.16,-0.36,-0.15,0.42
2022-11-11 12:50:21.5500,-1.1,-0.32,0.11,1.15
2022-11-11 12:50:21.5530,-1.52,-0.07,0.15,1.52
2022-11-11 12:50:21.5660,-1.32,0.23,0.06,1.34
2022-11-11 12:50:21.5700,-0.77,0.23,-0.06,0.8
2022-11-11 12:50:21.5830,-0.01,0.0,-0.25,0.25
2022-11-11 12:50:21.6430,0.81,-0.04,-0.49,0.94
2022-11-11 12:50:21.6480,1.18,0.06,-0.75,1.39
2022-11-11 12:50:21.6540,1.11,0.01,-0.72,1.32
2022-11-11 12:50:21.6670,0.75,0.0,-0.5,0.9
2022-11-11 12:50:21.6710,0.21,0.0,-0.24,0.31
2022-11-11 12:50:21.6830,-0.27,-0.01,-0.01,0.27
2022-11-11 12:50:21.6860,-0.63,0.03,0.13,0.64
2022-11-11 12:50:21.7000,-0.67,0.02,0.22,0.7
2022-11-11 12:50:21.7030,-0.48,0.04,0.22,0.52
2022-11-11 12:50:21.7160,0.0,0.0,0.07,0.07
2022-11-11 12:50:21.7760,0.63,0.02,-0.13,0.64
2022-11-11 12:50:21.7800,0.79,0.04,-0.42,0.89
2022-11-11 12:50:21.7850,0.55,0.18,-0.52,0.77
2022-11-11 12:50:21.7890,0.17,0.25,-0.41,0.5
2022-11-11 12:50:21.8010,-0.24,0.11,-0.29,0.39
2022-11-11 12:50:21.8050,-0.46,-0.06,-0.07,0.46
2022-11-11 12:50:21.8160,-0.58,-0.23,-0.01,0.62
2022-11-11 12:50:21.8200,-0.53,-0.2,-0.04,0.56
2022-11-11 12:50:21.8330,-0.27,0.12,0.03,0.29
2022-11-11 12:50:21.8360,0.02,0.21,0.05,0.21
2022-11-11 12:50:21.8960,0.34,0.14,-0.07,0.37
2022-11-11 12:50:21.9010,0.54,0.2,-0.12,0.58
2022-11-11 12:50:21.9050,0.4,0.2,-0.11,0.46
2022-11-11 12:50:21.9170,0.1,0.05,-0.07,0.13
2022-11-11 12:50:21.9210,-0.09,-0.14,-0.03,0.16
2022-11-11 12:50:21.9330,0.03,-0.16,0.05,0.17
2022-11-11 12:50:21.9360,0.24,-0.01,0.03,0.24
2022-11-11 12:50:21.9490,0.16,-0.03,-0.11,0.19
2022-11-11 12:50:21.9530,0.09,-0.1,-0.19,0.23
2022-11-11 12:50:21.9660,0.13,-0.03,-0.25,0.28
2022-11-11 12:50:22.0270,0.28,0.1,-0.16,0.33
2022-11-11 12:50:22.0310,0.26,0.08,-0.08,0.28
2022-11-11 12:50:22.0360,0.03,0.09,-0.07,0.11
2022-11-11 12:50:22.0510,-0.2,0.15,-0.04,0.25
2022-11-11 12:50:22.0540,-0.17,0.13,0.05,0.21
2022-11-11 12:50:22.0660,-0.02,0.13,-0.01,0.13
2022-11-11 12:50:22.0690,0.04,0.17,-0.14,0.22
2022-11-11 12:50:22.0830,-0.03,0.11,-0.13,0.17
2022-11-11 12:50:22.0860,-0.12,-0.01,-0.13,0.17
2022-11-11 12:50:22.0990,-0.16,-0.04,-0.12,0.2
2022-11-11 12:50:22.1590,-0.2,-0.04,-0.08,0.21
2022-11-11 12:50:22.1630,-0.18,-0.06,-0.09,0.21
2022-11-11 12:50:22.1670,-0.03,-0.02,-0.1,0.1
2022-11-11 12:50:22.1710,0.09,0.12,-0.07,0.16
2022-11-11 12:50:22.1840,0.16,0.1,-0.06,0.19
2022-11-11 12:50:22.1870,0.24,0.03,0.01,0.24
2022-11-11 12:50:22.2000,0.13,0.11,-0.02,0.17
2022-11-11 12:50:22.2030,-0.08,0.13,-0.04,0.15
2022-11-11 12:50:22.2160,-0.19,0.04,-0.02,0.19
2022-11-11 12:50:22.2190,-0.3,-0.01,-0.02,0.3
2022-11-11 12:50:22.2800,-0.35,0.05,-0.08,0.36
2022-11-11 12:50:22.2860,-0.23,0.08,-0.14,0.28
2022-11-11 12:50:22.2900,-0.02,0.01,-0.15,0.15
2022-11-11 12:50:22.3010,0.12,0.0,-0.18,0.21
2022-11-11 12:50:22.3040,0.2,0.03,-0.18,0.27
2022-11-11 12:50:22.3160,0.19,0.06,-0.12,0.23
2022-11-11 12:50:22.3190,0.02,0.09,-0.08,0.12
2022-11-11 12:50:22.3330,-0.14,0.05,-0.07,0.16
2022-11-11 12:50:22.3360,-0.16,-0.01,-0.01,0.16
2022-11-11 12:50:22.3490,-0.22,-0.04,0.0,0.22
2022-11-11 12:50:22.4090,-0.22,-0.04,-0.02,0.22
2022-11-11 12:50:22.4120,-0.05,0.08,0.0,0.09
2022-11-11 12:50:22.4170,0.08,0.15,0.05,0.17
2022-11-11 12:50:22.4210,0.12,0.06,0.05,0.14
2022-11-11 12:50:22.4240,0.1,-0.02,0.03,0.1
2022-11-11 12:50:22.4340,-0.07,-0.03,-0.01,0.07
2022-11-11 12:50:22.4380,-0.17,0.0,0.0,0.17
2022-11-11 12:50:22.4510,-0.19,0.0,0.0,0.19
2022-11-11 12:50:22.4550,-0.04,0.08,-0.04,0.09
2022-11-11 12:50:22.4670,0.13,0.12,-0.09,0.19
2022-11-11 12:50:22.5300,0.0,0.05,-0.12,0.13
2022-11-11 12:50:22.5350,-0.09,0.0,-0.06,0.1
2022-11-11 12:50:22.5380,-0.12,0.01,-0.02,0.12
2022-11-11 12:50:22.5510,-0.15,0.02,0.0,0.15
2022-11-11 12:50:22.5540,-0.12,-0.02,0.02,0.12
2022-11-11 12:50:22.5660,-0.06,-0.01,0.0,0.06
2022-11-11 12:50:22.5690,-0.07,0.06,-0.01,0.09
2022-11-11 12:50:22.5830,-0.12,0.15,-0.06,0.2
2022-11-11 12:50:22.5860,-0.08,0.19,-0.07,0.21
2022-11-11 12:50:22.5990,0.03,0.13,-0.03,0.13
2022-11-11 12:50:22.6600,0.04,0.01,-0.02,0.04
2022-11-11 12:50:22.6650,-0.03,0.0,-0.05,0.05
2022-11-11 12:50:22.6690,-0.1,0.04,-0.02,0.1
2022-11-11 12:50:22.6840,-0.16,-0.02,-0.04,0.16
2022-11-11 12:50:22.6880,-0.13,-0.01,-0.07,0.14
2022-11-11 12:50:22.6990,-0.06,0.01,-0.07,0.09
2022-11-11 12:50:22.7020,-0.06,-0.04,-0.08,0.1
2022-11-11 12:50:22.7160,-0.05,-0.04,-0.12,0.13
2022-11-11 12:50:22.7190,0.02,0.03,-0.13,0.13
2022-11-11 12:50:22.7220,0.07,0.1,-0.11,0.16
2022-11-11 12:50:22.7830,0.01,0.12,-0.09,0.15
2022-11-11 12:50:22.7860,-0.04,0.09,-0.09,0.13
2022-11-11 12:50:22.8010,-0.07,0.03,-0.06,0.09
2022-11-11 12:50:22.8050,-0.14,-0.02,-0.03,0.14
2022-11-11 12:50:22.8180,-0.13,-0.05,0.0,0.13
2022-11-11 12:50:22.8210,-0.08,0.0,0.02,0.08
2022-11-11 12:50:22.8330,-0.05,0.05,0.0,0.07
2022-11-11 12:50:22.8360,-0.01,0.04,0.01,0.04
2022-11-11 12:50:22.8490,0.04,0.0,0.01,0.04
2022-11-11 12:50:22.8520,0.03,-0.01,-0.01,0.03
2022-11-11 12:50:22.9140,0.0,0.05,-0.04,0.06
2022-11-11 12:50:22.9190,-0.02,0.13,-0.04,0.13
2022-11-11 12:50:22.9220,-0.01,0.11,0.0,0.11
2022-11-11 12:50:22.9340,-0.01,0.1,-0.03,0.1
2022-11-11 12:50:22.9370,-0.01,0.1,-0.04,0.1
2022-11-11 12:50:22.9400,0.01,0.06,-0.01,0.06
2022-11-11 12:50:22.9500,0.08,-0.03,-0.02,0.08
2022-11-11 12:50:22.9530,0.13,-0.05,-0.07,0.15
2022-11-11 12:50:22.9660,0.14,0.05,-0.09,0.17
2022-11-11 12:50:22.9700,0.04,0.11,-0.08,0.14
2022-11-11 12:50:23.0310,-0.08,0.08,-0.05,0.12
2022-11-11 12:50:23.0340,-0.23,0.06,-0.04,0.24
2022-11-11 12:50:23.0520,-0.33,0.08,-0.02,0.34
2022-11-11 12:50:23.0550,-0.33,0.1,0.01,0.34
2022-11-11 12:50:23.0670,-0.2,0.07,0.01,0.21
2022-11-11 12:50:23.0710,-0.1,0.01,0.01,0.1
2022-11-11 12:50:23.0830,-0.09,-0.04,-0.01,0.09
2022-11-11 12:50:23.0860,-0.1,0.0,-0.02,0.1
2022-11-11 12:50:23.0990,-0.12,0.01,-0.05,0.13
2022-11-11 12:50:23.1030,-0.07,0.03,-0.09,0.11
2022-11-11 12:50:23.1650,0.0,0.05,-0.07,0.08
2022-11-11 12:50:23.1690,-0.01,0.04,-0.07,0.08
2022-11-11 12:50:23.1840,0.05,-0.01,-0.03,0.05
2022-11-11 12:50:23.1880,0.09,0.01,-0.01,0.09
2022-11-11 12:50:23.2010,0.08,0.03,0.0,0.08
2022-11-11 12:50:23.2040,0.05,0.0,-0.02,0.05
2022-11-11 12:50:23.2160,0.05,-0.02,-0.04,0.06
2022-11-11 12:50:23.2200,0.1,-0.01,-0.01,0.1
2022-11-11 12:50:23.2330,0.14,0.02,0.0,0.14
2022-11-11 12:50:23.2360,0.17,0.05,-0.02,0.17
2022-11-11 12:50:23.2980,0.13,0.06,-0.02,0.14
2022-11-11 12:50:23.3010,0.08,0.03,0.01,0.08
2022-11-11 12:50:23.3190,-0.05,0.02,0.0,0.05
2022-11-11 12:50:23.3220,-0.14,0.05,-0.02,0.15
2022-11-11 12:50:23.3350,-0.08,0.14,0.03,0.16
2022-11-11 12:50:23.3380,-0.08,0.11,0.03,0.13
2022-11-11 12:50:23.3500,-0.09,0.04,0.0,0.09
2022-11-11 12:50:23.3530,-0.04,0.04,-0.03,0.06
2022-11-11 12:50:23.3660,-0.02,0.06,-0.04,0.07
2022-11-11 12:50:23.3690,-0.06,0.03,-0.06,0.09
2022-11-11 12:50:23.4330,-0.08,-0.01,-0.13,0.15
2022-11-11 12:50:23.4370,-0.04,0.01,-0.1,0.1
2022-11-11 12:50:23.4520,-0.07,0.03,-0.06,0.09
2022-11-11 12:50:23.4550,-0.13,0.07,-0.06,0.15
2022-11-11 12:50:23.4670,-0.12,0.08,-0.03,0.14
2022-11-11 12:50:23.4710,-0.11,0.06,0.0,0.12
2022-11-11 12:50:23.4830,-0.17,0.04,0.01,0.17
2022-11-11 12:50:23.4860,-0.24,0.05,0.0,0.24
2022-11-11 12:50:23.5000,-0.21,0.06,-0.02,0.21
2022-11-11 12:50:23.5030,-0.04,0.03,-0.02,0.05
2022-11-11 12:50:23.5660,-0.01,0.06,0.0,0.06
2022-11-11 12:50:23.5690,0.0,0.05,-0.01,0.05
2022-11-11 12:50:23.5850,0.03,0.01,-0.02,0.03
2022-11-11 12:50:23.5890,-0.07,-0.01,-0.01,0.07
2022-11-11 12:50:23.6010,-0.07,0.02,0.0,0.07
2022-11-11 12:50:23.6040,-0.01,0.09,0.02,0.09
2022-11-11 12:50:23.6160,-0.04,0.08,0.04,0.09
2022-11-11 12:50:23.6190,-0.09,0.04,0.06,0.11
2022-11-11 12:50:23.6330,-0.2,0.06,0.03,0.21
2022-11-11 12:50:23.6360,-0.26,0.06,-0.05,0.27
2022-11-11 12:50:23.6980,-0.19,0.07,-0.12,0.23
2022-11-11 12:50:23.7010,0.0,0.06,-0.18,0.18
2022-11-11 12:50:23.7190,0.1,0.03,-0.21,0.23
2022-11-11 12:50:23.7230,0.09,0.04,-0.19,0.21
2022-11-11 12:50:23.7340,0.05,0.05,-0.1,0.12
2022-11-11 12:50:23.7370,-0.03,0.06,-0.04,0.07
2022-11-11 12:50:23.7500,-0.1,0.1,0.01,0.14
2022-11-11 12:50:23.7530,-0.12,0.11,0.05,0.17
2022-11-11 12:50:23.7660,-0.13,0.09,0.03,0.16
2022-11-11 12:50:23.7700,-0.1,0.03,0.01,0.1
2022-11-11 12:50:23.8330,-0.04,0.02,-0.02,0.04
2022-11-11 12:50:23.8360,0.0,0.04,-0.08,0.08
2022-11-11 12:50:23.8520,0.02,0.04,-0.14,0.14
2022-11-11 12:50:23.8550,-0.02,0.05,-0.14,0.15
2022-11-11 12:50:23.8670,-0.08,0.03,-0.15,0.17
2022-11-11 12:50:23.8710,-0.09,0.04,-0.12,0.15
2022-11-11 12:50:23.8830,-0.09,0.06,-0.07,0.12
2022-11-11 12:50:23.8860,-0.1,0.04,-0.01,0.1
2022-11-11 12:50:23.8990,-0.08,0.05,0.02,0.09
2022-11-11 12:50:23.9030,-0.01,0.05,0.0,0.05
2022-11-11 12:50:23.9650,-0.02,0.03,-0.03,0.04
2022-11-11 12:50:23.9680,-0.05,0.02,-0.07,0.08
2022-11-11 12:50:23.9850,-0.04,0.02,-0.07,0.08
2022-11-11 12:50:23.9870,-0.05,0.05,-0.06,0.09
2022-11-11 12:50:24.0000,-0.03,0.08,-0.05,0.09
2022-11-11 12:50:24.0040,-0.03,0.06,-0.02,0.06
2022-11-11 12:50:24.0070,-0.02,0.03,0.0,0.03
2022-11-11 12:50:24.0160,-0.01,0.05,0.02,0.05
2022-11-11 12:50:24.0200,0.01,0.06,0.0,0.06
2022-11-11 12:50:24.0330,0.0,0.05,-0.03,0.05
2022-11-11 12:50:24.0950,-0.04,0.02,-0.03,0.05
2022-11-11 12:50:24.0990,-0.05,0.02,0.01,0.05
2022-11-11 12:50:24.1030,-0.09,0.0,0.01,0.09
2022-11-11 12:50:24.1160,-0.11,0.01,0.01,0.11
2022-11-11 12:50:24.1200,-0.17,0.03,-0.03,0.17
2022-11-11 12:50:24.1330,-0.08,0.05,-0.08,0.12
2022-11-11 12:50:24.1360,0.05,0.08,-0.04,0.1
2022-11-11 12:50:24.1490,0.09,0.05,-0.02,0.1
2022-11-11 12:50:24.1520,0.11,0.05,0.0,0.12
2022-11-11 12:50:24.1660,0.02,0.03,0.0,0.03
2022-11-11 12:50:24.2290,-0.09,0.05,-0.02,0.1
2022-11-11 12:50:24.2340,-0.12,0.06,-0.04,0.13
2022-11-11 12:50:24.2380,-0.06,0.06,-0.05,0.09
2022-11-11 12:50:24.2510,0.03,0.07,-0.03,0.08
2022-11-11 12:50:24.2540,0.0,0.03,-0.04,0.05
2022-11-11 12:50:24.2660,0.02,0.03,-0.03,0.04
2022-11-11 12:50:24.2690,-0.02,0.02,-0.01,0.03
2022-11-11 12:50:24.2830,-0.1,0.02,-0.01,0.1
2022-11-11 12:50:24.2850,-0.1,0.03,-0.04,0.11
2022-11-11 12:50:24.2990,-0.07,0.03,-0.03,0.08
2022-11-11 12:50:24.3640,-0.01,0.04,-0.04,0.05
2022-11-11 12:50:24.3680,-0.01,0.02,-0.03,0.03
2022-11-11 12:50:24.3860,0.0,0.04,-0.01,0.04
2022-11-11 12:50:24.3890,0.04,0.06,0.0,0.07
2022-11-11 12:50:24.4010,0.02,0.04,-0.03,0.05
2022-11-11 12:50:24.4040,-0.05,0.03,-0.07,0.09
2022-11-11 12:50:24.4160,-0.11,0.04,-0.07,0.13
2022-11-11 12:50:24.4190,-0.14,0.03,-0.04,0.14
2022-11-11 12:50:24.4330,-0.1,0.02,-0.02,0.1
2022-11-11 12:50:24.4360,-0.01,0.05,0.0,0.05
2022-11-11 12:50:24.4990,0.0,0.08,-0.02,0.08
2022-11-11 12:50:24.5020,-0.04,0.05,-0.04,0.07
2022-11-11 12:50:24.5180,-0.1,0.02,-0.03,0.1
2022-11-11 12:50:24.5220,-0.12,0.01,-0.01,0.12
2022-11-11 12:50:24.5340,-0.08,0.01,0.04,0.09
2022-11-11 12:50:24.5380,-0.05,0.03,0.07,0.09
2022-11-11 12:50:24.5490,-0.01,0.01,0.05,0.05
2022-11-11 12:50:24.5530,-0.01,0.07,-0.01,0.07
2022-11-11 12:50:24.5660,-0.07,0.07,-0.09,0.13
2022-11-11 12:50:24.5690,-0.04,0.07,-0.15,0.17
2022-11-11 12:50:24.6310,0.0,0.02,-0.12,0.12
2022-11-11 12:50:24.6340,-0.05,0.04,-0.09,0.11
2022-11-11 12:50:24.6520,-0.06,0.1,-0.07,0.13
2022-11-11 12:50:24.6550,-0.02,0.12,-0.03,0.12
2022-11-11 12:50:24.6680,0.0,0.07,-0.02,0.07
2022-11-11 12:50:24.6710,-0.04,0.03,0.0,0.05
2022-11-11 12:50:24.6830,-0.12,0.0,0.06,0.13
2022-11-11 12:50:24.6860,-0.16,0.03,0.03,0.16
2022-11-11 12:50:24.6990,-0.14,0.07,-0.03,0.15
2022-11-11 12:50:24.7020,-0.1,0.07,-0.08,0.14
2022-11-11 12:50:24.7640,-0.05,0.05,-0.13,0.14
2022-11-11 12:50:24.7680,0.04,0.04,-0.16,0.16
2022-11-11 12:50:24.7850,0.07,0.03,-0.17,0.18
2022-11-11 12:50:24.7880,0.02,0.05,-0.16,0.16
2022-11-11 12:50:24.8010,-0.06,0.06,-0.1,0.13
2022-11-11 12:50:24.8050,-0.17,0.08,-0.02,0.18
2022-11-11 12:50:24.8160,-0.12,0.11,0.02,0.16
2022-11-11 12:50:24.8200,-0.1,0.09,0.01,0.13
2022-11-11 12:50:24.8330,-0.13,0.06,0.01,0.14
2022-11-11 12:50:24.8360,-0.06,0.05,-0.04,0.08
2022-11-11 12:50:24.8980,-0.02,0.06,-0.1,0.11
2022-11-11 12:50:24.9010,0.02,0.09,-0.12,0.15
2022-11-11 12:50:24.9180,0.05,0.03,-0.11,0.12
2022-11-11 12:50:24.9220,-0.01,-0.03,-0.07,0.07
2022-11-11 12:50:24.9340,-0.07,0.04,-0.05,0.09
2022-11-11 12:50:24.9380,-0.12,0.09,-0.02,0.15
2022-11-11 12:50:24.9500,-0.17,0.05,0.01,0.17
2022-11-11 12:50:24.9530,-0.08,-0.03,0.01,0.08
2022-11-11 12:50:24.9660,-0.03,-0.1,-0.03,0.1
2022-11-11 12:50:24.9700,-0.12,-0.11,-0.1,0.19
2022-11-11 12:50:25.0320,-0.1,0.09,-0.15,0.2
2022-11-11 12:50:25.0360,0.34,0.24,-0.05,0.41
2022-11-11 12:50:25.0520,0.42,0.11,-0.03,0.43
2022-11-11 12:50:25.0550,0.25,0.03,-0.06,0.25
2022-11-11 12:50:25.0680,0.05,0.03,0.0,0.05
2022-11-11 12:50:25.0710,-0.17,0.0,0.08,0.18
2022-11-11 12:50:25.0830,-0.24,-0.04,0.11,0.26
2022-11-11 12:50:25.0870,-0.2,-0.02,0.06,0.2
2022-11-11 12:50:25.0990,-0.15,0.03,0.02,0.15
2022-11-11 12:50:25.1030,-0.04,0.1,0.02,0.1
2022-11-11 12:50:25.1650,0.03,0.1,0.03,0.1
2022-11-11 12:50:25.1680,0.03,-0.01,0.0,0.03
2022-11-11 12:50:25.1710,-0.05,-0.09,-0.03,0.1
2022-11-11 12:50:25.1850,-0.14,-0.06,-0.02,0.15
2022-11-11 12:50:25.1890,-0.22,-0.01,-0.05,0.22
2022-11-11 12:50:25.2010,-0.26,-0.09,-0.06,0.28
2022-11-11 12:50:25.2040,-0.26,-0.16,-0.01,0.3
2022-11-11 12:50:25.2160,-0.27,-0.13,-0.03,0.3
2022-11-11 12:50:25.2190,-0.18,-0.04,-0.05,0.19
2022-11-11 12:50:25.2330,-0.02,0.15,0.0,0.15
2022-11-11 12:50:25.2940,0.1,0.26,-0.03,0.28
2022-11-11 12:50:25.2990,0.14,0.2,-0.05,0.24
2022-11-11 12:50:25.3030,0.14,0.12,-0.01,0.18
2022-11-11 12:50:25.3180,0.09,0.06,0.04,0.11
2022-11-11 12:50:25.3210,-0.01,0.02,0.06,0.06
2022-11-11 12:50:25.3330,-0.08,-0.01,0.08,0.11
2022-11-11 12:50:25.3360,-0.14,0.0,0.08,0.16
2022-11-11 12:50:25.3500,-0.15,0.05,0.07,0.17
2022-11-11 12:50:25.3540,-0.13,0.14,0.09,0.21
2022-11-11 12:50:25.3660,-0.17,0.22,0.11,0.29
2022-11-11 12:50:25.4270,-0.02,0.27,0.15,0.3
2022-11-11 12:50:25.4320,0.36,0.17,0.21,0.45
2022-11-11 12:50:25.4370,0.35,0.02,0.16,0.38
2022-11-11 12:50:25.4510,0.01,-0.05,0.14,0.14
2022-11-11 12:50:25.4540,-0.31,0.01,0.18,0.35
2022-11-11 12:50:25.4660,-0.44,0.02,0.14,0.46
2022-11-11 12:50:25.4700,-0.4,-0.04,0.06,0.4
2022-11-11 12:50:25.4830,-0.24,-0.05,0.01,0.24
2022-11-11 12:50:25.4860,-0.14,-0.01,0.0,0.14
2022-11-11 12:50:25.5000,-0.2,-0.02,0.05,0.2
2022-11-11 12:50:25.5610,-0.32,-0.13,0.19,0.39
2022-11-11 12:50:25.5650,-0.33,-0.06,0.42,0.53
2022-11-11 12:50:25.5700,-0.21,0.14,0.68,0.72
2022-11-11 12:50:25.5840,-0.21,0.19,0.78,0.82
2022-11-11 12:50:25.5870,-0.31,0.2,0.59,0.69
2022-11-11 12:50:25.6000,-0.53,0.18,0.4,0.68
2022-11-11 12:50:25.6030,-0.54,0.15,0.22,0.6
2022-11-11 12:50:25.6160,-0.29,0.14,0.0,0.32
2022-11-11 12:50:25.6200,-0.18,-0.03,-0.18,0.25
2022-11-11 12:50:25.6330,-0.21,-0.07,-0.27,0.34
2022-11-11 12:50:25.6950,-0.3,0.03,-0.32,0.43
2022-11-11 12:50:25.7000,-0.48,-0.02,-0.42,0.63
2022-11-11 12:50:25.7050,-0.42,-0.05,-0.52,0.67
2022-11-11 12:50:25.7180,-0.07,0.03,-0.53,0.53
2022-11-11 12:50:25.7210,0.19,0.11,-0.43,0.48
2022-11-11 12:50:25.7330,0.09,0.04,-0.28,0.29
2022-11-11 12:50:25.7360,-0.32,-0.24,-0.05,0.4
2022-11-11 12:50:25.7500,-0.6,-0.24,0.13,0.65
2022-11-11 12:50:25.7530,-0.77,0.14,0.08,0.78
2022-11-11 12:50:25.7660,-0.85,0.47,-0.18,0.98
2022-11-11 12:50:25.8260,-0.73,0.5,-0.26,0.92
2022-11-11 12:50:25.8320,-0.37,0.25,-0.28,0.52
2022-11-11 12:50:25.8370,0.02,0.05,-0.45,0.45
2022-11-11 12:50:25.8510,0.14,-0.1,-0.59,0.61
2022-11-11 12:50:25.8540,0.19,-0.02,-0.62,0.64
2022-11-11 12:50:25.8660,0.04,0.08,-0.53,0.53
2022-11-11 12:50:25.8700,-0.13,0.07,-0.22,0.26
2022-11-11 12:50:25.8830,-0.1,-0.06,-0.02,0.11
2022-11-11 12:50:25.8860,-0.21,-0.1,0.0,0.23
2022-11-11 12:50:25.9000,-0.22,-0.02,-0.04,0.22
2022-11-11 12:50:25.9600,0.06,0.07,-0.09,0.12
2022-11-11 12:50:25.9650,0.24,0.04,-0.16,0.29
2022-11-11 12:50:25.9700,-0.05,-0.3,-0.41,0.51
2022-11-11 12:50:25.9850,-0.61,-0.45,-0.69,1.02
2022-11-11 12:50:25.9880,0.19,-0.17,-0.52,0.57
2022-11-11 12:50:26.0000,0.84,0.07,-0.17,0.85
2022-11-11 12:50:26.0030,0.46,0.11,0.02,0.47
2022-11-11 12:50:26.0160,-0.07,0.07,0.39,0.4
2022-11-11 12:50:26.0200,-0.44,0.13,0.63,0.77
2022-11-11 12:50:26.0330,-0.13,0.22,0.62,0.67
2022-11-11 12:50:26.0930,0.37,0.43,0.39,0.68
2022-11-11 12:50:26.0970,0.26,0.52,0.37,0.68
2022-11-11 12:50:26.1020,-0.24,0.27,0.47,0.59
2022-11-11 12:50:26.1050,-0.57,0.16,0.48,0.76
2022-11-11 12:50:26.1180,-0.76,0.36,0.43,0.94
2022-11-11 12:50:26.1210,-0.28,0.34,0.02,0.44
2022-11-11 12:50:26.1330,0.14,0.15,-0.66,0.69
2022-11-11 12:50:26.1360,-0.35,-0.16,-1.17,1.23
2022-11-11 12:50:26.1500,-0.49,0.06,-0.51,0.7
2022-11-11 12:50:26.1530,-0.58,0.75,-0.2,0.96
2022-11-11 12:50:26.2130,-0.99,0.92,-0.2,1.36
2022-11-11 12:50:26.2180,-1.33,0.69,-0.12,1.5
2022-11-11 12:50:26.2220,-1.02,0.81,0.12,1.3
2022-11-11 12:50:26.2340,-0.93,0.95,0.31,1.36
2022-11-11 12:50:26.2380,-0.6,1.08,0.41,1.3
2022-11-11 12:50:26.2500,-0.21,1.2,0.39,1.27
2022-11-11 12:50:26.2530,0.37,1.43,0.49,1.55
2022-11-11 12:50:26.2660,0.32,1.49,0.14,1.53
2022-11-11 12:50:26.2700,-0.23,1.73,-0.39,1.78
2022-11-11 12:50:26.2830,-0.26,1.99,-1.32,2.4
2022-11-11 12:50:26.3440,-2.05,2.13,-1.27,3.21
2022-11-11 12:50:26.3480,-1.98,3.06,-1.11,3.81
2022-11-11 12:50:26.3530,-1.32,3.23,-0.78,3.57
2022-11-11 12:50:26.3680,-1.83,3.03,-0.25,3.54
2022-11-11 12:50:26.3720,-2.21,2.9,-0.04,3.64
2022-11-11 12:50:26.3830,-2.76,3.04,-0.11,4.1
2022-11-11 12:50:26.3870,-3.35,3.51,-0.2,4.85
2022-11-11 12:50:26.4000,-3.66,3.97,-0.29,5.4
2022-11-11 12:50:26.4030,-3.4,4.29,-0.67,5.51
2022-11-11 12:50:26.4160,-3.32,4.74,-0.66,5.82
2022-11-11 12:50:26.4680,-4.03,4.84,-0.63,6.32
2022-11-11 12:50:26.4720,-5.0,4.35,-0.69,6.66
2022-11-11 12:50:26.4850,-6.14,3.93,-0.43,7.3
2022-11-11 12:50:26.4890,-7.63,3.61,-0.33,8.44
2022-11-11 12:50:26.5010,-8.66,3.34,0.14,9.28
2022-11-11 12:50:26.5050,-9.36,3.12,0.62,9.88
2022-11-11 12:50:26.5160,-10.41,3.16,0.88,10.91
2022-11-11 12:50:26.5200,-11.77,4.08,0.73,12.47
2022-11-11 12:50:26.5330,-12.08,5.46,0.68,13.27
2022-11-11 12:50:26.5370,-10.9,6.14,0.22,12.51
2022-11-11 12:50:26.5740,-9.1,6.34,-1.33,11.17
2022-11-11 12:50:26.5780,-9.1,7.82,-2.6,12.27
2022-11-11 12:50:26.5860,-10.73,10.95,-2.99,15.61
2022-11-11 12:50:26.5890,-11.51,13.2,-2.97,17.76
2022-11-11 12:50:26.6010,-10.88,12.14,-3.23,16.61
2022-11-11 12:50:26.6050,-8.83,9.07,-3.43,13.11
2022-11-11 12:50:26.6160,-5.01,7.16,-3.77,9.51
2022-11-11 12:50:26.6200,-1.46,5.96,-5.26,8.08
2022-11-11 12:50:26.6340,-3.11,4.95,-4.24,7.22
2022-11-11 12:50:26.6370,-6.0,4.71,-2.16,7.92
2022-11-11 12:50:26.6800,-5.79,3.63,-0.67,6.86
2022-11-11 12:50:26.6850,-4.1,1.42,-0.23,4.34
2022-11-11 12:50:26.6890,-2.97,-0.65,0.36,3.06
2022-11-11 12:50:26.7010,-2.75,-1.84,1.75,3.74
2022-11-11 12:50:26.7050,-2.83,-2.68,2.45,4.6
2022-11-11 12:50:26.7160,-3.41,-3.93,2.92,5.96
2022-11-11 12:50:26.7200,-4.41,-5.41,2.86,7.54
2022-11-11 12:50:26.7340,-5.41,-6.8,2.66,9.08
2022-11-11 12:50:26.7380,-6.71,-7.83,2.59,10.63
2022-11-11 12:50:26.7500,-7.86,-7.92,2.57,11.45
2022-11-11 12:50:26.7880,-7.89,-6.92,2.49,10.78
2022-11-11 12:50:26.7920,-6.71,-5.6,2.38,9.05
2022-11-11 12:50:26.8020,-5.16,-4.72,2.23,7.34
2022-11-11 12:50:26.8050,-3.93,-4.22,2.19,6.16
2022-11-11 12:50:26.8180,-2.98,-3.31,2.51,5.11
2022-11-11 12:50:26.8210,-1.74,-1.84,3.2,4.08
2022-11-11 12:50:26.8340,0.1,-0.24,2.97,2.98
2022-11-11 12:50:26.8370,1.5,0.92,1.09,2.06
2022-11-11 12:50:26.8500,2.05,1.62,-0.44,2.64
2022-11-11 12:50:26.8530,3.38,2.4,-0.2,4.15
2022-11-11 12:50:26.8920,5.23,2.73,-0.05,5.89
2022-11-11 12:50:26.8950,5.83,2.63,-0.51,6.41
2022-11-11 12:50:26.9020,5.29,3.07,-0.93,6.18
2022-11-11 12:50:26.9050,5.72,4.07,-0.99,7.08
2022-11-11 12:50:26.9180,7.58,5.37,-1.37,9.38
2022-11-11 12:50:26.9210,9.75,6.91,-2.14,12.14
2022-11-11 12:50:26.9330,12.23,8.21,-2.76,14.98
2022-11-11 12:50:26.9370,13.58,8.52,-3.51,16.41
2022-11-11 12:50:26.9500,13.98,8.17,-4.58,16.82
2022-11-11 12:50:26.9530,13.98,7.35,-5.24,16.64
2022-11-11 12:50:26.9890,14.07,6.68,-5.24,16.43
2022-11-11 12:50:26.9920,14.45,6.06,-5.44,16.58
2022-11-11 12:50:27.0020,14.27,5.69,-6.04,16.5
2022-11-11 12:50:27.0050,13.58,5.39,-6.61,16.03
2022-11-11 12:50:27.0180,13.38,4.05,-7.45,15.84
2022-11-11 12:50:27.0210,14.09,1.96,-7.61,16.13
2022-11-11 12:50:27.0340,14.72,0.48,-6.66,16.16
2022-11-11 12:50:27.0370,13.66,-0.23,-5.12,14.58
2022-11-11 12:50:27.0500,6.43,-0.33,-2.93,7.07
2022-11-11 12:50:27.0530,-15.8,0.54,1.27,15.86
2022-11-11 12:50:27.0870,-32.28,10.63,6.34,34.57
2022-11-11 12:50:27.0910,-8.19,24.38,12.68,28.67
2022-11-11 12:50:27.1020,8.73,17.21,6.68,20.42
2022-11-11 12:50:27.1050,4.1,-1.49,4.59,6.33
2022-11-11 12:50:27.1180,4.58,-7.99,1.68,9.36
2022-11-11 12:50:27.1210,7.89,-7.36,-1.63,10.91
2022-11-11 12:50:27.1330,8.15,-3.65,-3.15,9.46
2022-11-11 12:50:27.1370,6.69,2.58,-6.69,9.8
2022-11-11 12:50:27.1500,4.8,5.43,-8.68,11.3
2022-11-11 12:50:27.1530,2.5,0.71,-8.28,8.67
2022-11-11 12:50:27.1880,1.1,-3.12,-7.76,8.43
2022-11-11 12:50:27.1910,2.26,-3.03,-5.47,6.64
2022-11-11 12:50:27.2020,3.35,-1.98,-2.75,4.76
2022-11-11 12:50:27.2050,1.86,-1.11,-1.07,2.41
2022-11-11 12:50:27.2180,-1.02,-0.47,0.43,1.2
2022-11-11 12:50:27.2210,-3.31,0.81,2.3,4.11
2022-11-11 12:50:27.2330,-4.95,2.15,3.99,6.71
2022-11-11 12:50:27.2370,-6.29,2.25,2.92,7.29
2022-11-11 12:50:27.2500,-5.38,1.6,0.8,5.66
2022-11-11 12:50:27.2530,-1.61,1.16,-0.22,1.99
2022-11-11 12:50:27.2870,2.52,0.8,-1.31,2.95
2022-11-11 12:50:27.2910,4.99,0.31,-1.88,5.34
2022-11-11 12:50:27.3020,4.66,-0.39,-1.79,5.0
2022-11-11 12:50:27.3050,2.04,-0.8,-1.01,2.41
2022-11-11 12:50:27.3180,-0.99,-0.58,-0.65,1.31
2022-11-11 12:50:27.3210,-3.08,0.03,-0.55,3.12
2022-11-11 12:50:27.3330,-4.38,0.36,0.53,4.42
2022-11-11 12:50:27.3370,-4.9,0.18,0.61,4.94
2022-11-11 12:50:27.3500,-3.7,0.36,-0.09,3.71
2022-11-11 12:50:27.3540,-1.95,0.7,-1.43,2.51
2022-11-11 12:50:27.3910,0.1,1.23,-2.17,2.49
2022-11-11 12:50:27.3950,1.73,1.86,-1.85,3.14
2022-11-11 12:50:27.4020,1.91,1.6,-1.74,3.03
2022-11-11 12:50:27.4050,1.2,1.02,-1.07,1.9
2022-11-11 12:50:27.4180,-0.3,1.74,0.01,1.76
2022-11-11 12:50:27.4210,-2.38,2.15,0.71,3.28
2022-11-11 12:50:27.4330,-3.68,2.05,1.1,4.35
2022-11-11 12:50:27.4370,-3.8,2.22,1.02,4.51
2022-11-11 12:50:27.4500,-3.18,2.75,0.88,4.29
2022-11-11 12:50:27.4540,-2.62,2.9,0.25,3.91
2022-11-11 12:50:27.4890,-2.36,3.09,-0.02,3.88
2022-11-11 12:50:27.4930,-3.14,3.62,-0.09,4.79
2022-11-11 12:50:27.5020,-4.2,4.34,0.14,6.04
2022-11-11 12:50:27.5060,-5.44,4.64,0.53,7.16
2022-11-11 12:50:27.5180,-6.72,4.76,0.73,8.26
2022-11-11 12:50:27.5220,-7.92,5.03,1.1,9.44
2022-11-11 12:50:27.5330,-9.22,5.16,1.57,10.68
2022-11-11 12:50:27.5370,-10.49,4.93,1.9,11.74
2022-11-11 12:50:27.5500,-11.32,4.62,2.21,12.42
2022-11-11 12:50:27.5530,-12.31,4.21,1.92,13.15
2022-11-11 12:50:27.5890,-13.21,4.43,1.53,14.01
2022-11-11 12:50:27.5920,-12.87,5.8,1.13,14.16
2022-11-11 12:50:27.6020,-12.46,7.52,-0.77,14.57
2022-11-11 12:50:27.6050,-11.77,9.14,-3.25,15.25
2022-11-11 12:50:27.6180,-10.15,10.6,-5.2,15.56
2022-11-11 12:50:27.6210,-10.21,12.45,-5.23,16.92
2022-11-11 12:50:27.6330,-12.74,14.27,-5.37,19.86
2022-11-11 12:50:27.6370,-12.25,13.01,-5.6,18.72
2022-11-11 12:50:27.6500,-7.52,8.9,-5.02,12.68
2022-11-11 12:50:27.6530,-3.48,6.21,-5.43,8.95
2022-11-11 12:50:27.6890,-1.67,4.36,-5.51,7.22
2022-11-11 12:50:27.6920,-2.43,3.3,-4.28,5.92
2022-11-11 12:50:27.7030,-4.17,2.77,-3.68,6.21
2022-11-11 12:50:27.7070,-6.74,1.79,-1.8,7.2
2022-11-11 12:50:27.7190,-7.61,0.14,-0.07,7.61
2022-11-11 12:50:27.7230,-6.57,-1.87,0.4,6.84
2022-11-11 12:50:27.7330,-5.37,-4.08,0.56,6.76
2022-11-11 12:50:27.7370,-4.78,-6.28,0.85,7.93
2022-11-11 12:50:27.7500,-4.87,-7.85,1.02,9.29
2022-11-11 12:50:27.7530,-5.09,-8.68,1.18,10.13
2022-11-11 12:50:27.7890,-5.27,-8.97,1.41,10.49
2022-11-11 12:50:27.7920,-6.01,-8.68,1.63,10.68
2022-11-11 12:50:27.8020,-7.09,-7.99,2.07,10.88
2022-11-11 12:50:27.8060,-7.7,-7.23,2.65,10.88
2022-11-11 12:50:27.8190,-7.36,-6.59,2.99,10.32
2022-11-11 12:50:27.8230,-6.11,-6.15,2.97,9.16
2022-11-11 12:50:27.8330,-4.63,-5.94,2.84,8.04
2022-11-11 12:50:27.8370,-3.65,-5.57,2.49,7.1
2022-11-11 12:50:27.8500,-2.8,-4.9,2.09,6.01
2022-11-11 12:50:27.8530,-1.99,-3.36,2.18,4.47
2022-11-11 12:50:27.8890,-0.52,-0.5,2.59,2.68
2022-11-11 12:50:27.8930,1.38,2.8,1.98,3.69
2022-11-11 12:50:27.9020,2.47,5.24,-0.14,5.79
2022-11-11 12:50:27.9050,4.15,7.21,-1.57,8.46
2022-11-11 12:50:27.9180,6.96,8.71,-1.29,11.22
2022-11-11 12:50:27.9220,9.32,8.67,-1.63,12.83
2022-11-11 12:50:27.9330,10.29,7.87,-2.57,13.2
2022-11-11 12:50:27.9360,9.41,8.39,-3.39,13.05
2022-11-11 12:50:27.9500,9.15,11.39,-4.8,15.37
2022-11-11 12:50:27.9530,12.02,15.76,-6.95,21.0
2022-11-11 12:50:27.9890,16.71,16.35,-8.52,24.88
2022-11-11 12:50:27.9930,19.23,11.11,-8.29,23.7
2022-11-11 12:50:28.0020,20.22,6.52,-7.39,22.49
2022-11-11 12:50:28.0060,20.05,4.46,-7.82,21.97
2022-11-11 12:50:28.0180,17.35,2.76,-8.14,19.36
2022-11-11 12:50:28.0210,14.54,2.61,-7.28,16.46
2022-11-11 12:50:28.0330,12.82,3.23,-6.09,14.55
2022-11-11 12:50:28.0360,10.92,2.71,-5.9,12.7
2022-11-11 12:50:28.0500,-0.21,1.67,-4.49,4.79
2022-11-11 12:50:28.0530,-27.98,6.07,0.45,28.63
2022-11-11 12:50:28.0850,-17.89,18.73,9.92,27.73
2022-11-11 12:50:28.0890,8.12,22.86,12.06,27.09
2022-11-11 12:50:28.1020,8.25,10.15,5.18,14.06
2022-11-11 12:50:28.1050,0.99,-5.19,4.68,7.05
2022-11-11 12:50:28.1180,3.98,-8.67,0.65,9.56
2022-11-11 12:50:28.1220,8.08,-8.52,-2.17,11.94
2022-11-11 12:50:28.1340,8.85,-6.04,-4.52,11.62
2022-11-11 12:50:28.1370,9.28,-0.68,-8.19,12.39
2022-11-11 12:50:28.1500,9.2,8.12,-9.29,15.39
2022-11-11 12:50:28.1530,5.37,8.76,-7.71,12.84
2022-11-11 12:50:28.1860,2.41,-0.75,-6.05,6.55
2022-11-11 12:50:28.1900,3.0,-4.37,-5.68,7.76
2022-11-11 12:50:28.2020,4.21,-3.78,-3.5,6.65
2022-11-11 12:50:28.2050,4.25,-1.77,-0.2,4.6
2022-11-11 12:50:28.2180,1.52,0.36,0.89,1.79
2022-11-11 12:50:28.2220,-2.32,1.46,1.12,2.96
2022-11-11 12:50:28.2330,-5.75,1.64,2.09,6.33
2022-11-11 12:50:28.2370,-7.7,1.11,2.66,8.22
2022-11-11 12:50:28.2500,-7.05,0.65,2.79,7.6
2022-11-11 12:50:28.2530,-4.58,0.56,1.88,4.98
2022-11-11 12:50:28.2860,-1.6,0.09,-0.17,1.61
2022-11-11 12:50:28.2890,1.25,-0.4,-1.38,1.9
2022-11-11 12:50:28.3020,3.17,-0.41,-1.6,3.57
2022-11-11 12:50:28.3050,3.3,-0.39,-1.87,3.81
2022-11-11 12:50:28.3180,2.37,-0.37,-1.15,2.66
2022-11-11 12:50:28.3220,0.76,-0.09,-0.51,0.91
2022-11-11 12:50:28.3330,-1.35,0.41,-0.1,1.41
2022-11-11 12:50:28.3370,-3.32,0.99,0.56,3.5
2022-11-11 12:50:28.3500,-4.55,1.41,0.09,4.76
2022-11-11 12:50:28.3530,-4.15,1.63,-0.58,4.49
2022-11-11 12:50:28.3890,-2.29,1.75,-1.01,3.05
2022-11-11 12:50:28.3930,-0.54,1.44,-2.03,2.54
2022-11-11 12:50:28.4020,1.03,1.45,-2.26,2.87
2022-11-11 12:50:28.4050,1.43,1.81,-2.05,3.08
2022-11-11 12:50:28.4180,0.09,2.43,-1.74,2.99
2022-11-11 12:50:28.4220,-1.38,2.83,-1.5,3.48
2022-11-11 12:50:28.4340,-2.9,2.79,-1.29,4.22
2022-11-11 12:50:28.4380,-3.44,3.26,-0.45,4.76
2022-11-11 12:50:28.4500,-3.98,3.23,-0.76,5.18
2022-11-11 12:50:28.4540,-4.4,3.16,-0.28,5.42
2022-11-11 12:50:28.4880,-4.99,3.55,0.29,6.13
2022-11-11 12:50:28.4920,-5.95,3.94,0.75,7.17
2022-11-11 12:50:28.5020,-6.79,4.65,1.66,8.39
2022-11-11 12:50:28.5050,-8.23,5.28,2.18,10.01
2022-11-11 12:50:28.5180,-9.82,5.28,2.4,11.4
2022-11-11 12:50:28.5210,-11.02,5.18,2.81,12.49
2022-11-11 12:50:28.5330,-12.24,5.26,3.15,13.68
2022-11-11 12:50:28.5370,-13.36,5.47,3.18,14.78
2022-11-11 12:50:28.5500,-13.8,5.95,2.66,15.26
2022-11-11 12:50:28.5530,-13.22,7.04,2.06,15.11
2022-11-11 12:50:28.5880,-12.73,8.5,0.0,15.3
2022-11-11 12:50:28.5910,-13.93,8.76,-3.36,16.79
2022-11-11 12:50:28.6020,-15.29,9.08,-5.36,18.57
2022-11-11 12:50:28.6050,-15.31,12.28,-6.75,20.75
2022-11-11 12:50:28.6180,-16.03,15.22,-7.73,23.41
2022-11-11 12:50:28.6210,-14.78,13.94,-6.48,21.32
2022-11-11 12:50:28.6340,-9.53,9.43,-4.91,14.27
2022-11-11 12:50:28.6370,-4.54,7.41,-5.55,10.31
2022-11-11 12:50:28.6500,-1.66,5.67,-6.11,8.49
2022-11-11 12:50:28.6540,-1.15,3.74,-6.29,7.4
2022-11-11 12:50:28.6900,-2.05,1.52,-6.68,7.15
2022-11-11 12:50:28.6940,-4.14,-0.36,-5.38,6.79
2022-11-11 12:50:28.7020,-5.34,-1.16,-3.07,6.26
2022-11-11 12:50:28.7060,-3.35,-2.24,-1.22,4.21
2022-11-11 12:50:28.7180,-0.54,-3.84,-0.39,3.89
2022-11-11 12:50:28.7210,-0.33,-5.81,0.02,5.81
2022-11-11 12:50:28.7330,-2.07,-7.21,0.4,7.51
2022-11-11 12:50:28.7370,-3.54,-7.78,0.88,8.59
2022-11-11 12:50:28.7500,-4.28,-8.36,1.12,9.45
2022-11-11 12:50:28.7540,-4.88,-9.22,1.21,10.5
2022-11-11 12:50:28.7890,-5.95,-9.93,1.45,11.66
2022-11-11 12:50:28.7930,-7.32,-10.35,1.65,12.78
2022-11-11 12:50:28.8020,-8.19,-10.38,1.83,13.34
2022-11-11 12:50:28.8060,-7.9,-9.85,1.79,12.75
2022-11-11 12:50:28.8180,-6.37,-8.92,1.38,11.04
2022-11-11 12:50:28.8230,-5.11,-8.01,0.93,9.54
2022-11-11 12:50:28.8340,-4.67,-7.15,0.92,8.58
2022-11-11 12:50:28.8380,-3.61,-5.84,1.81,7.1
2022-11-11 12:50:28.8500,-1.76,-3.66,3.0,5.04
2022-11-11 12:50:28.8540,-0.07,-0.78,3.28,3.37
2022-11-11 12:50:28.8910,0.97,2.06,1.14,2.54
2022-11-11 12:50:28.8950,2.6,4.95,-2.22,6.01
2022-11-11 12:50:28.9020,5.51,8.1,-4.31,10.7
2022-11-11 12:50:28.9060,8.45,9.77,-5.32,13.96
2022-11-11 12:50:28.9180,10.83,9.62,-6.3,15.79
2022-11-11 12:50:28.9220,12.26,10.68,-7.07,17.73
2022-11-11 12:50:28.9330,13.51,13.73,-7.95,20.83
2022-11-11 12:50:28.9370,14.82,16.56,-9.06,23.99
2022-11-11 12:50:28.9510,16.03,15.25,-9.59,24.11
2022-11-11 12:50:28.9540,16.45,10.86,-9.6,21.92
2022-11-11 12:50:28.9920,16.72,7.95,-8.48,20.36
2022-11-11 12:50:28.9960,17.64,5.55,-6.64,19.64
2022-11-11 12:50:29.0020,16.71,3.01,-5.32,17.79
2022-11-11 12:50:29.0060,14.47,2.28,-3.84,15.14
2022-11-11 12:50:29.0180,12.07,3.32,-2.07,12.68
2022-11-11 12:50:29.0220,2.0,5.28,1.63,5.87
2022-11-11 12:50:29.0340,-23.7,11.14,5.03,26.66
2022-11-11 12:50:29.0370,-19.14,20.56,11.09,30.2
2022-11-11 12:50:29.0500,6.26,20.67,10.13,23.85
2022-11-11 12:50:29.0540,9.33,7.66,4.09,12.74
2022-11-11 12:50:29.0900,4.79,-5.88,0.97,7.64
2022-11-11 12:50:29.0940,7.04,-9.16,-2.64,11.85
2022-11-11 12:50:29.1020,9.67,-8.45,-6.85,14.55
2022-11-11 12:50:29.1050,10.34,-4.2,-8.44,13.99
2022-11-11 12:50:29.1180,9.67,4.73,-9.07,14.07
2022-11-11 12:50:29.1210,7.17,10.03,-9.85,15.78
2022-11-11 12:50:29.1330,4.88,2.34,-7.78,9.47
2022-11-11 12:50:29.1370,5.34,-4.26,-5.46,8.74
2022-11-11 12:50:29.1500,5.32,-4.47,-2.9,7.52
2022-11-11 12:50:29.1540,3.7,-1.79,1.1,4.25
2022-11-11 12:50:29.1920,0.8,0.74,2.63,2.84
2022-11-11 12:50:29.1950,-2.6,2.1,1.96,3.87
2022-11-11 12:50:29.2020,-5.77,2.37,2.3,6.64
2022-11-11 12:50:29.2050,-7.57,1.55,3.03,8.29
2022-11-11 12:50:29.2180,-7.69,-0.58,2.49,8.1
2022-11-11 12:50:29.2220,-5.62,-1.57,0.48,5.85
2022-11-11 12:50:29.2330,-1.79,-1.08,-1.6,2.63
2022-11-11 12:50:29.2370,2.78,0.1,-1.8,3.31
2022-11-11 12:50:29.2500,5.71,0.94,-1.08,5.88
2022-11-11 12:50:29.2530,5.29,0.28,-0.83,5.36
2022-11-11 12:50:29.2910,3.32,-0.32,-0.58,3.38
2022-11-11 12:50:29.2950,1.39,-0.21,-0.44,1.47
2022-11-11 12:50:29.3020,-0.24,0.42,0.05,0.48
2022-11-11 12:50:29.3050,-2.45,1.15,0.03,2.7
2022-11-11 12:50:29.3180,-4.37,1.21,-0.4,4.55
2022-11-11 12:50:29.3210,-4.43,1.11,-0.49,4.59
2022-11-11 12:50:29.3340,-3.5,0.86,-1.23,3.8
2022-11-11 12:50:29.3370,-2.6,0.45,-1.59,3.08
2022-11-11 12:50:29.3500,-1.41,0.4,-1.65,2.2
2022-11-11 12:50:29.3540,-0.3,0.64,-1.89,2.01
2022-11-11 12:50:29.3940,0.15,1.47,-1.19,1.89
2022-11-11 12:50:29.3980,0.38,2.81,-0.61,2.9
2022-11-11 12:50:29.4030,-0.16,3.29,-0.66,3.35
2022-11-11 12:50:29.4180,-1.26,3.44,0.02,3.66
2022-11-11 12:50:29.4220,-2.81,3.06,-0.34,4.16
2022-11-11 12:50:29.4330,-4.26,2.53,-0.51,4.98
2022-11-11 12:50:29.4370,-5.06,2.26,-0.57,5.57
2022-11-11 12:50:29.4500,-5.08,2.39,-0.41,5.62
2022-11-11 12:50:29.4540,-5.17,2.88,-0.01,5.91
2022-11-11 12:50:29.4670,-5.77,3.14,0.19,6.57
2022-11-11 12:50:29.5060,-6.56,3.18,0.82,7.33
2022-11-11 12:50:29.5100,-7.58,3.3,1.24,8.35
2022-11-11 12:50:29.5190,-8.45,3.72,1.55,9.36
2022-11-11 12:50:29.5230,-9.44,4.38,1.47,10.5
2022-11-11 12:50:29.5350,-10.54,5.12,1.01,11.76
2022-11-11 12:50:29.5380,-11.16,6.09,0.77,12.73
2022-11-11 12:50:29.5500,-11.11,7.33,0.7,13.32
2022-11-11 12:50:29.5550,-10.72,9.07,0.12,14.04
2022-11-11 12:50:29.5670,-11.13,11.06,-0.95,15.71
2022-11-11 12:50:29.5710,-11.63,11.25,-2.9,16.43
2022-11-11 12:50:29.6140,-10.28,9.82,-5.39,15.2
2022-11-11 12:50:29.6190,-9.95,9.3,-6.51,15.09
2022-11-11 12:50:29.6220,-11.96,9.58,-5.97,16.44
2022-11-11 12:50:29.6350,-11.47,8.55,-3.46,14.71
2022-11-11 12:50:29.6380,-7.71,7.13,-1.31,10.58
2022-11-11 12:50:29.6500,-3.23,5.37,-2.46,6.73
2022-11-11 12:50:29.6540,-2.98,2.43,-3.33,5.08
2022-11-11 12:50:29.6660,-6.33,-0.56,-3.07,7.05
2022-11-11 12:50:29.6710,-8.56,-2.42,-2.13,9.14
2022-11-11 12:50:29.6830,-8.65,-3.24,-0.71,9.26
2022-11-11 12:50:29.7250,-6.29,-4.34,-0.37,7.65
2022-11-11 12:50:29.7280,-4.3,-6.0,0.33,7.38
2022-11-11 12:50:29.7350,-3.33,-7.28,0.52,8.02
2022-11-11 12:50:29.7390,-2.91,-7.99,0.78,8.53
2022-11-11 12:50:29.7510,-2.7,-8.24,1.19,8.75
2022-11-11 12:50:29.7550,-2.96,-8.4,1.26,8.99
2022-11-11 12:50:29.7670,-4.0,-8.29,1.43,9.31
2022-11-11 12:50:29.7700,-5.04,-7.82,1.9,9.49
2022-11-11 12:50:29.7830,-5.5,-7.21,2.44,9.39
2022-11-11 12:50:29.7860,-5.58,-6.75,2.49,9.1
2022-11-11 12:50:29.8280,-5.69,-6.72,2.32,9.1
2022-11-11 12:50:29.8320,-5.27,-6.83,1.86,8.82
2022-11-11 12:50:29.8380,-3.89,-6.58,1.72,7.83
2022-11-11 12:50:29.8520,-2.44,-5.18,2.35,6.18
2022-11-11 12:50:29.8560,-1.42,-2.73,2.77,4.14
2022-11-11 12:50:29.8670,-0.36,0.13,2.47,2.49
2022-11-11 12:50:29.8710,1.24,2.97,1.85,3.71
2022-11-11 12:50:29.8830,3.14,5.52,0.9,6.41
2022-11-11 12:50:29.8870,5.35,7.5,-0.67,9.23
2022-11-11 12:50:29.9000,6.93,8.25,-1.88,10.93
2022-11-11 12:50:29.9420,7.28,7.99,-2.83,11.17
2022-11-11 12:50:29.9450,7.41,8.16,-3.83,11.66
2022-11-11 12:50:29.9520,7.59,9.69,-4.48,13.09
2022-11-11 12:50:29.9560,8.75,12.63,-5.65,16.37
2022-11-11 12:50:29.9680,12.16,15.56,-7.1,20.98
2022-11-11 12:50:29.9720,15.39,14.41,-6.83,22.16
2022-11-11 12:50:29.9830,16.17,8.46,-5.6,19.08
2022-11-11 12:50:29.9870,16.33,5.13,-4.54,17.7
2022-11-11 12:50:30.0000,15.11,4.47,-3.38,16.11
2022-11-11 12:50:30.0040,12.22,3.76,-1.85,12.91
2022-11-11 12:50:30.0480,9.39,3.49,-0.15,10.01
2022-11-11 12:50:30.0530,8.12,3.76,0.65,8.97
2022-11-11 12:50:30.0560,6.19,4.57,0.92,7.74
2022-11-11 12:50:30.0680,-5.83,6.74,2.7,9.31
2022-11-11 12:50:30.0720,-17.93,12.75,4.95,22.55
2022-11-11 12:50:30.0840,-4.94,16.32,8.5,19.05
2022-11-11 12:50:30.0870,6.96,11.18,6.83,14.83
2022-11-11 12:50:30.1000,6.62,0.82,2.8,7.23
2022-11-11 12:50:30.1040,5.13,-6.25,0.14,8.08
2022-11-11 12:50:30.1170,6.14,-7.47,-3.25,10.2
2022-11-11 12:50:30.1600,7.02,-5.29,-6.87,11.15
2022-11-11 12:50:30.1640,7.05,-0.75,-8.42,11.0
2022-11-11 12:50:30.1690,6.95,5.86,-8.07,12.15
2022-11-11 12:50:30.1720,6.92,5.96,-6.7,11.32
2022-11-11 12:50:30.1850,7.7,-0.26,-5.4,9.4
2022-11-11 12:50:30.1880,7.15,-2.98,-3.02,8.31
2022-11-11 12:50:30.2000,4.1,-2.09,0.86,4.68
2022-11-11 12:50:30.2040,-0.1,-0.07,3.28,3.28
2022-11-11 12:50:30.2170,-3.8,1.81,3.51,5.48
2022-11-11 12:50:30.2210,-6.48,2.3,2.77,7.41
2022-11-11 12:50:30.2650,-7.52,1.18,1.92,7.85
2022-11-11 12:50:30.2690,-6.12,-0.2,0.95,6.19
2022-11-11 12:50:30.2860,-2.96,-0.41,-0.56,3.04
2022-11-11 12:50:30.2890,0.5,-0.65,-2.77,2.88
2022-11-11 12:50:30.3010,3.19,-1.14,-3.26,4.7
2022-11-11 12:50:30.3050,3.92,-1.52,-2.34,4.81
2022-11-11 12:50:30.3170,2.58,-1.42,-1.66,3.38
2022-11-11 12:50:30.3200,0.94,-0.7,-0.74,1.38
2022-11-11 12:50:30.3340,-0.47,-0.08,0.11,0.48
2022-11-11 12:50:30.3380,-1.47,0.32,0.65,1.63
2022-11-11 12:50:30.3460,-1.94,0.57,1.05,2.27
2022-11-11 12:50:30.3880,-1.78,0.71,1.28,2.3
2022-11-11 12:50:30.3920,-1.08,0.81,1.11,1.74
2022-11-11 12:50:30.4020,-0.31,0.69,0.64,0.99
2022-11-11 12:50:30.4060,0.54,0.42,0.15,0.7
2022-11-11 12:50:30.4180,1.23,0.03,-0.42,1.3
2022-11-11 12:50:30.4220,1.41,-0.21,-0.84,1.65
2022-11-11 12:50:30.4330,1.2,-0.04,-0.9,1.5
2022-11-11 12:50:30.4370,0.83,0.31,-0.81,1.2
2022-11-11 12:50:30.4500,0.37,0.47,-0.51,0.78
2022-11-11 12:50:30.4940,-0.24,0.4,-0.25,0.52
2022-11-11 12:50:30.4990,-0.73,0.53,0.14,0.91
2022-11-11 12:50:30.5040,-0.94,0.79,0.31,1.26
2022-11-11 12:50:30.5070,-0.89,0.95,0.33,1.34
2022-11-11 12:50:30.5100,-0.93,0.84,0.26,1.27
2022-11-11 12:50:30.5140,-1.06,0.52,-0.11,1.18
2022-11-11 12:50:30.5190,-1.11,0.32,-0.6,1.3
2022-11-11 12:50:30.5330,-1.13,0.43,-0.85,1.47
2022-11-11 12:50:30.5370,-1.28,0.74,-1.06,1.81
2022-11-11 12:50:30.5500,-1.71,1.01,-1.43,2.44
2022-11-11 12:50:30.5950,-1.99,1.25,-1.9,3.02
2022-11-11 12:50:30.5990,-1.95,1.54,-1.63,2.97
2022-11-11 12:50:30.6040,-1.93,2.01,-0.69,2.87
2022-11-11 12:50:30.6180,-2.24,2.09,-0.1,3.06
2022-11-11 12:50:30.6210,-2.82,2.24,0.36,3.61
2022-11-11 12:50:30.6330,-3.34,2.8,0.72,4.41
2022-11-11 12:50:30.6370,-4.01,3.56,0.44,5.38
2022-11-11 12:50:30.6500,-4.5,4.76,0.05,6.55
2022-11-11 12:50:30.6530,-5.13,5.93,-0.66,7.86
2022-11-11 12:50:30.6660,-5.7,6.94,-1.35,9.08
2022-11-11 12:50:30.7120,-5.46,7.5,-1.87,9.46
2022-11-11 12:50:30.7170,-4.97,7.08,-2.37,8.96
2022-11-11 12:50:30.7210,-5.69,6.08,-2.68,8.74
2022-11-11 12:50:30.7350,-7.38,4.82,-2.51,9.16
2022-11-11 12:50:30.7380,-7.79,4.05,-1.36,8.88
2022-11-11 12:50:30.7500,-6.05,4.04,-1.68,7.46
2022-11-11 12:50:30.7540,-3.23,4.34,-3.84,6.63
2022-11-11 12:50:30.7670,-3.13,4.1,-5.39,7.46
2022-11-11 12:50:30.7700,-5.46,3.52,-4.69,8.01
2022-11-11 12:50:30.7830,-7.25,2.28,-2.98,8.16
2022-11-11 12:50:30.8300,-8.27,-0.23,-0.93,8.32
2022-11-11 12:50:30.8360,-8.78,-2.85,1.04,9.28
2022-11-11 12:50:30.8390,-8.03,-4.7,2.11,9.54
2022-11-11 12:50:30.8510,-7.07,-6.03,2.52,9.62
2022-11-11 12:50:30.8550,-7.6,-6.91,2.58,10.59
2022-11-11 12:50:30.8660,-8.26,-6.95,2.58,11.09
2022-11-11 12:50:30.8700,-8.12,-6.28,2.94,10.67
2022-11-11 12:50:30.8830,-7.18,-5.39,3.24,9.54
2022-11-11 12:50:30.8860,-5.66,-5.18,3.41,8.39
2022-11-11 12:50:30.9000,-4.89,-5.19,3.62,7.99
2022-11-11 12:50:30.9470,-4.78,-4.03,4.09,7.47
2022-11-11 12:50:30.9520,-4.16,-1.99,4.85,6.69
2022-11-11 12:50:30.9560,-2.71,0.2,5.4,6.04
2022-11-11 12:50:30.9680,-0.82,2.1,5.44,5.88
2022-11-11 12:50:30.9710,0.51,2.67,4.72,5.44
2022-11-11 12:50:30.9830,1.3,1.89,3.47,4.15
2022-11-11 12:50:30.9870,2.33,1.05,2.7,3.71
2022-11-11 12:50:31.0000,2.86,0.6,1.95,3.51
2022-11-11 12:50:31.0030,3.81,1.11,1.67,4.3
2022-11-11 12:50:31.0170,5.87,2.36,2.04,6.64
2022-11-11 12:50:31.0640,7.57,3.42,1.99,8.54
2022-11-11 12:50:31.0680,8.17,3.81,1.44,9.12
2022-11-11 12:50:31.0860,7.57,3.88,0.97,8.56
2022-11-11 12:50:31.0890,6.26,4.22,0.99,7.61
2022-11-11 12:50:31.1010,4.77,4.74,1.52,6.89
2022-11-11 12:50:31.1050,3.07,4.91,2.39,6.26
2022-11-11 12:50:31.1170,1.63,5.13,3.71,6.53
2022-11-11 12:50:31.1200,0.94,5.55,4.82,7.41
2022-11-11 12:50:31.1330,1.19,5.71,5.61,8.09
2022-11-11 12:50:31.1360,2.24,5.33,6.19,8.47
2022-11-11 12:50:31.1840,3.61,4.29,6.9,8.89
2022-11-11 12:50:31.1880,3.97,3.02,7.14,8.7
2022-11-11 12:50:31.2020,3.4,2.86,6.93,8.23
2022-11-11 12:50:31.2060,3.33,4.06,7.41,9.08
2022-11-11 12:50:31.2180,2.86,6.84,7.34,10.43
2022-11-11 12:50:31.2220,-0.67,6.05,3.02,6.79
2022-11-11 12:50:31.2340,-8.31,3.2,2.34,9.2
2022-11-11 12:50:31.2380,-12.16,5.07,3.25,13.56
2022-11-11 12:50:31.2500,-4.53,7.45,3.67,9.46
2022-11-11 12:50:31.2540,3.28,4.68,2.68,6.31
2022-11-11 12:50:31.3020,5.06,-0.42,-1.1,5.19
2022-11-11 12:50:31.3060,4.42,-3.86,-4.74,7.54
2022-11-11 12:50:31.3190,6.26,-3.42,-4.51,8.43
2022-11-11 12:50:31.3220,7.9,-0.53,-2.5,8.3
2022-11-11 12:50:31.3350,6.18,0.72,-1.04,6.3
2022-11-11 12:50:31.3380,2.92,0.1,-0.01,2.92
2022-11-11 12:50:31.3500,0.56,-0.38,0.92,1.14
2022-11-11 12:50:31.3530,-0.94,-0.29,1.55,1.83
2022-11-11 12:50:31.3670,-1.77,0.35,1.14,2.13
2022-11-11 12:50:31.3700,-1.19,1.14,0.42,1.7
2022-11-11 12:50:31.4190,0.35,1.2,-0.48,1.33
2022-11-11 12:50:31.4230,1.72,0.51,-1.48,2.32
2022-11-11 12:50:31.4360,2.15,0.18,-1.32,2.52
2022-11-11 12:50:31.4390,1.31,0.16,-1.2,1.78
2022-11-11 12:50:31.4510,0.45,0.03,-1.12,1.2
2022-11-11 12:50:31.4550,-0.14,-0.15,-0.53,0.56
2022-11-11 12:50:31.4670,-0.57,-0.3,-0.22,0.68
2022-11-11 12:50:31.4700,-0.7,-0.38,-0.16,0.81
2022-11-11 12:50:31.4830,-0.99,-0.09,-0.27,1.03
2022-11-11 12:50:31.4870,-1.17,-0.18,-0.04,1.18
2022-11-11 12:50:31.5370,-1.4,-0.39,-0.69,1.6
2022-11-11 12:50:31.5410,-1.42,-0.54,-1.0,1.81
2022-11-11 12:50:31.5520,-0.64,-0.45,-0.57,0.96
2022-11-11 12:50:31.5560,-0.09,-0.44,-0.32,0.55
2022-11-11 12:50:31.5680,-0.24,-0.16,-0.22,0.36
2022-11-11 12:50:31.5720,-0.03,0.43,0.04,0.43
2022-11-11 12:50:31.5830,-0.21,0.46,-0.27,0.57
2022-11-11 12:50:31.5870,-0.37,0.38,-0.1,0.53
2022-11-11 12:50:31.6000,-0.61,0.32,0.02,0.68
2022-11-11 12:50:31.6030,-1.06,0.13,-0.24,1.09
2022-11-11 12:50:31.6540,-1.13,0.25,-0.43,1.23
2022-11-11 12:50:31.6580,-1.0,0.24,-0.86,1.34
2022-11-11 12:50:31.6690,-0.54,0.04,-0.97,1.11
2022-11-11 12:50:31.6730,-0.1,0.03,-1.29,1.29
2022-11-11 12:50:31.6850,-0.16,-0.19,-2.1,2.11
2022-11-11 12:50:31.6880,-0.16,-0.27,-2.8,2.81
2022-11-11 12:50:31.7000,-0.24,-0.24,-3.2,3.21
2022-11-11 12:50:31.7030,-0.82,-0.36,-3.16,3.28
2022-11-11 12:50:31.7170,-0.78,-0.35,-3.21,3.32
2022-11-11 12:50:31.7200,-0.4,-0.25,-2.1,2.15
2022-11-11 12:50:31.7710,0.46,0.67,-0.59,1.0
2022-11-11 12:50:31.7750,0.37,0.55,-0.59,0.88
2022-11-11 12:50:31.7850,-0.4,0.11,-1.01,1.09
2022-11-11 12:50:31.7890,-0.47,-0.02,-1.22,1.3
2022-11-11 12:50:31.8020,-0.33,-0.01,-1.01,1.06
2022-11-11 12:50:31.8050,-0.27,0.16,-1.05,1.09
2022-11-11 12:50:31.8170,-0.19,0.26,-1.03,1.07
2022-11-11 12:50:31.8200,-0.5,0.19,-0.67,0.85
2022-11-11 12:50:31.8340,-1.18,0.04,-0.48,1.27
2022-11-11 12:50:31.8370,-1.47,0.11,-0.04,1.47
2022-11-11 12:50:31.8900,-1.6,0.21,0.36,1.65
2022-11-11 12:50:31.8930,-1.39,0.39,0.9,1.7
2022-11-11 12:50:31.9020,-1.41,0.47,1.18,1.89
2022-11-11 12:50:31.9060,-1.8,0.38,1.19,2.19
2022-11-11 12:50:31.9180,-2.28,0.41,1.18,2.59
2022-11-11 12:50:31.9220,-2.87,0.58,0.82,3.04
2022-11-11 12:50:31.9330,-3.02,0.95,0.65,3.23
2022-11-11 12:50:31.9370,-2.83,1.35,0.41,3.16
2022-11-11 12:50:31.9500,-2.66,1.63,0.05,3.12
2022-11-11 12:50:31.9530,-2.44,2.13,-0.12,3.24
2022-11-11 12:50:32.0060,-2.36,2.59,-0.55,3.54
2022-11-11 12:50:32.0100,-2.54,2.96,-0.83,3.98
2022-11-11 12:50:32.0190,-3.12,3.39,-1.06,4.72
2022-11-11 12:50:32.0220,-4.07,3.9,-1.34,5.79
2022-11-11 12:50:32.0340,-5.07,4.37,-1.34,6.82
2022-11-11 12:50:32.0380,-5.78,4.73,-1.16,7.55
2022-11-11 12:50:32.0500,-6.2,4.89,-0.77,7.93
2022-11-11 12:50:32.0530,-6.13,4.91,0.0,7.85
2022-11-11 12:50:32.0670,-6.1,4.61,0.61,7.67
2022-11-11 12:50:32.0700,-5.58,3.96,0.82,6.89
2022-11-11 12:50:32.1230,-4.44,3.19,-0.08,5.46
2022-11-11 12:50:32.1260,-3.21,2.84,-1.92,4.69
2022-11-11 12:50:32.1350,-3.36,3.35,-2.08,5.18
2022-11-11 12:50:32.1390,-3.76,4.14,-1.04,5.68
2022-11-11 12:50:32.1510,-4.12,4.1,-0.51,5.83
2022-11-11 12:50:32.1550,-5.68,2.69,-0.94,6.35
2022-11-11 12:50:32.1670,-7.72,0.63,-1.25,7.84
2022-11-11 12:50:32.1700,-7.84,-0.4,-0.19,7.85
2022-11-11 12:50:32.1830,-6.17,-0.55,1.35,6.33
2022-11-11 12:50:32.1860,-5.62,-1.21,2.08,6.11
2022-11-11 12:50:32.2400,-6.25,-1.98,2.07,6.87
2022-11-11 12:50:32.2440,-6.68,-2.22,2.08,7.34
2022-11-11 12:50:32.2520,-6.62,-1.92,2.46,7.31
2022-11-11 12:50:32.2560,-6.12,-1.38,3.15,7.02
2022-11-11 12:50:32.2680,-5.39,-0.88,3.92,6.72
2022-11-11 12:50:32.2710,-4.76,-0.63,4.64,6.67
2022-11-11 12:50:32.2830,-4.37,-0.57,4.97,6.64
2022-11-11 12:50:32.2870,-3.92,-0.95,4.7,6.19
2022-11-11 12:50:32.3000,-3.91,-1.5,4.48,6.13
2022-11-11 12:50:32.3030,-3.87,-1.47,4.39,6.03
2022-11-11 12:50:32.3570,-3.57,-1.14,4.37,5.75
2022-11-11 12:50:32.3610,-3.34,-0.8,4.42,5.59
2022-11-11 12:50:32.3690,-2.97,-0.2,4.46,5.36
2022-11-11 12:50:32.3720,-2.37,0.62,4.46,5.08
2022-11-11 12:50:32.3840,-1.6,1.34,4.18,4.67
2022-11-11 12:50:32.3880,-0.87,1.84,3.73,4.24
2022-11-11 12:50:32.4000,-0.15,2.32,3.32,4.05
2022-11-11 12:50:32.4030,0.55,2.94,2.98,4.22
2022-11-11 12:50:32.4160,1.15,3.51,2.54,4.48
2022-11-11 12:50:32.4200,1.53,3.86,2.11,4.65
2022-11-11 12:50:32.4740,1.8,4.06,1.86,4.81
2022-11-11 12:50:32.4780,2.26,4.23,1.66,5.07
2022-11-11 12:50:32.4860,2.75,4.22,1.38,5.22
2022-11-11 12:50:32.4890,3.14,4.12,1.1,5.29
2022-11-11 12:50:32.5020,3.6,3.8,0.9,5.31
2022-11-11 12:50:32.5050,4.39,3.45,0.84,5.64
2022-11-11 12:50:32.5170,5.39,3.26,0.79,6.34
2022-11-11 12:50:32.5210,6.18,3.17,0.53,6.96
2022-11-11 12:50:32.5330,6.49,3.08,0.29,7.18
2022-11-11 12:50:32.5370,6.08,2.67,0.07,6.64
2022-11-11 12:50:32.5910,5.52,2.13,-0.26,5.92
2022-11-11 12:50:32.5940,5.57,1.95,-0.6,5.93
2022-11-11 12:50:32.6020,6.1,2.13,-1.17,6.56
2022-11-11 12:50:32.6060,6.66,2.29,-1.95,7.3
2022-11-11 12:50:32.6180,6.98,2.28,-2.73,7.83
2022-11-11 12:50:32.6220,7.11,2.17,-3.56,8.24
2022-11-11 12:50:32.6330,7.22,1.87,-4.36,8.63
2022-11-11 12:50:32.6370,7.19,1.55,-4.93,8.85
2022-11-11 12:50:32.6500,7.69,1.11,-5.35,9.43
2022-11-11 12:50:32.6530,8.29,0.49,-5.47,9.94
2022-11-11 12:50:32.7090,7.59,-0.05,-5.44,9.33
2022-11-11 12:50:32.7140,5.55,-0.05,-6.03,8.19
2022-11-11 12:50:32.7210,1.47,0.42,-6.55,6.72
2022-11-11 12:50:32.7240,-5.26,0.64,-4.66,7.05
2022-11-11 12:50:32.7350,-8.04,3.26,-0.48,8.68
2022-11-11 12:50:32.7380,-4.29,6.85,4.06,9.04
2022-11-11 12:50:32.7500,0.41,7.46,5.81,9.46
2022-11-11 12:50:32.7530,3.79,4.37,3.51,6.76
2022-11-11 12:50:32.7670,3.37,0.3,0.96,3.51
2022-11-11 12:50:32.7700,2.47,-2.05,-0.1,3.21
2022-11-11 12:50:32.8240,2.31,-2.29,0.23,3.26
2022-11-11 12:50:32.8280,1.71,-1.27,0.56,2.2
2022-11-11 12:50:32.8360,1.64,-0.29,-0.1,1.66
2022-11-11 12:50:32.8400,1.78,0.07,-1.33,2.22
2022-11-11 12:50:32.8510,1.53,-0.05,-2.36,2.81
2022-11-11 12:50:32.8550,1.56,-0.19,-2.8,3.21
2022-11-11 12:50:32.8670,2.15,0.07,-2.97,3.66
2022-11-11 12:50:32.8700,2.54,0.39,-2.91,3.88
2022-11-11 12:50:32.8830,2.42,0.54,-2.25,3.34
2022-11-11 12:50:32.8870,1.61,0.71,-1.2,2.12
2022-11-11 12:50:32.9410,0.42,0.57,0.0,0.7
2022-11-11 12:50:32.9450,-0.25,0.28,0.81,0.89
2022-11-11 12:50:32.9520,-0.79,0.08,0.93,1.22
2022-11-11 12:50:32.9560,-1.08,0.14,0.85,1.38
2022-11-11 12:50:32.9680,-1.39,0.15,0.45,1.46
2022-11-11 12:50:32.9710,-1.52,-0.17,-0.29,1.55
2022-11-11 12:50:32.9830,-0.91,-0.23,-0.65,1.14
2022-11-11 12:50:32.9870,-0.35,-0.17,-1.29,1.34
2022-11-11 12:50:33.0000,0.72,0.09,-1.7,1.84
2022-11-11 12:50:33.0030,0.92,0.44,-1.14,1.52
2022-11-11 12:50:33.0590,0.19,0.37,-1.05,1.12
2022-11-11 12:50:33.0630,0.26,0.4,-0.67,0.82
2022-11-11 12:50:33.0710,-0.46,0.41,-0.06,0.61
2022-11-11 12:50:33.0750,-1.75,0.11,-0.75,1.9
2022-11-11 12:50:33.0860,-1.97,-0.19,-1.11,2.26
2022-11-11 12:50:33.0890,-2.31,-0.13,-1.52,2.76
2022-11-11 12:50:33.1000,-2.14,0.07,-1.84,2.82
2022-11-11 12:50:33.1030,-2.04,0.27,-1.34,2.45
2022-11-11 12:50:33.1170,-2.14,0.33,-0.75,2.29
2022-11-11 12:50:33.1200,-1.69,0.62,-0.87,1.99
2022-11-11 12:50:33.1760,-1.81,0.9,-1.43,2.47
2022-11-11 12:50:33.1810,-1.13,1.94,-1.26,2.57
2022-11-11 12:50:33.1870,0.12,2.58,-1.25,2.86
2022-11-11 12:50:33.1910,0.36,2.69,-1.24,2.98
2022-11-11 12:50:33.2010,-0.95,2.94,-0.43,3.11
2022-11-11 12:50:33.2050,-2.62,3.16,-0.1,4.1
2022-11-11 12:50:33.2170,-4.62,2.99,-0.36,5.51
2022-11-11 12:50:33.2210,-5.89,3.5,0.0,6.85
2022-11-11 12:50:33.2340,-5.71,4.09,0.33,7.03
2022-11-11 12:50:33.2370,-5.17,4.46,0.55,6.85
2022-11-11 12:50:33.2930,-4.85,4.95,1.32,7.05
2022-11-11 12:50:33.2960,-5.21,5.16,1.41,7.46
2022-11-11 12:50:33.3020,-6.23,5.01,1.54,8.14
2022-11-11 12:50:33.3060,-7.38,4.72,1.6,8.9
2022-11-11 12:50:33.3180,-8.62,4.44,1.22,9.77
2022-11-11 12:50:33.3220,-9.83,4.05,1.11,10.68
2022-11-11 12:50:33.3340,-11.43,3.67,0.75,12.02
2022-11-11 12:50:33.3370,-13.22,3.63,0.32,13.71
2022-11-11 12:50:33.3500,-14.1,4.04,0.04,14.66
2022-11-11 12:50:33.3530,-14.3,4.19,-0.45,14.9
2022-11-11 12:50:33.4100,-13.99,3.94,-1.23,14.58
2022-11-11 12:50:33.4140,-12.99,4.28,-2.75,13.95
2022-11-11 12:50:33.4190,-11.24,6.31,-4.09,13.52
2022-11-11 12:50:33.4230,-10.75,8.79,-4.43,14.57
2022-11-11 12:50:33.4350,-10.06,9.65,-3.65,14.41
2022-11-11 12:50:33.4380,-6.67,9.02,-1.95,11.38
2022-11-11 12:50:33.4500,-2.22,7.83,-2.65,8.55
2022-11-11 12:50:33.4530,-1.1,5.62,-4.5,7.28
2022-11-11 12:50:33.4670,-4.15,2.94,-4.16,6.57
2022-11-11 12:50:33.4710,-5.9,1.01,-3.67,7.02
2022-11-11 12:50:33.5270,-7.16,-1.2,-2.67,7.73
2022-11-11 12:50:33.5310,-8.34,-3.17,-1.24,9.0
2022-11-11 12:50:33.5360,-7.27,-4.12,-0.08,8.35
2022-11-11 12:50:33.5390,-5.41,-4.37,1.07,7.03
2022-11-11 12:50:33.5510,-4.36,-4.67,1.56,6.57
2022-11-11 12:50:33.5550,-4.46,-5.62,1.9,7.42
2022-11-11 12:50:33.5670,-4.9,-6.45,2.23,8.4
2022-11-11 12:50:33.5700,-4.98,-6.75,2.49,8.75
2022-11-11 12:50:33.5830,-4.75,-6.94,2.68,8.82
2022-11-11 12:50:33.5870,-4.61,-7.27,2.5,8.96
2022-11-11 12:50:33.6430,-4.61,-7.32,2.05,8.89
2022-11-11 12:50:33.6470,-4.55,-6.95,1.56,8.45
2022-11-11 12:50:33.6520,-4.01,-6.1,1.19,7.39
2022-11-11 12:50:33.6550,-2.75,-4.76,1.09,5.6
2022-11-11 12:50:33.6680,-1.24,-3.35,1.34,3.81
2022-11-11 12:50:33.6720,-0.35,-1.88,1.97,2.74
2022-11-11 12:50:33.6830,0.24,-0.22,2.29,2.31
2022-11-11 12:50:33.6870,0.98,1.33,2.01,2.6
2022-11-11 12:50:33.7000,2.04,2.97,0.79,3.68
2022-11-11 12:50:33.7030,3.19,4.98,-0.19,5.91
2022-11-11 12:50:33.7610,3.76,6.52,-0.91,7.58
2022-11-11 12:50:33.7660,4.34,7.6,-1.99,8.97
2022-11-11 12:50:33.7710,5.53,8.76,-3.47,10.92
2022-11-11 12:50:33.7850,7.53,10.09,-5.21,13.62
2022-11-11 12:50:33.7880,9.51,10.92,-7.06,16.1
2022-11-11 12:50:33.8000,11.44,10.91,-8.98,18.18
2022-11-11 12:50:33.8040,13.83,10.58,-10.29,20.22
2022-11-11 12:50:33.8170,16.22,9.9,-11.55,22.23
2022-11-11 12:50:33.8200,17.93,7.98,-11.83,22.91
2022-11-11 12:50:33.8340,18.72,5.46,-10.6,22.19
2022-11-11 12:50:33.8920,17.43,4.24,-9.52,20.3
2022-11-11 12:50:33.8950,15.5,4.39,-8.57,18.24
2022-11-11 12:50:33.9020,14.36,4.24,-7.21,16.61
2022-11-11 12:50:33.9060,12.27,4.28,-4.95,13.9
2022-11-11 12:50:33.9180,2.24,5.64,-0.23,6.07
2022-11-11 12:50:33.9220,-11.98,4.67,2.41,13.08
2022-11-11 12:50:33.9330,-10.47,7.81,8.26,15.45
2022-11-11 12:50:33.9370,0.31,10.95,9.61,14.57
2022-11-11 12:50:33.9500,4.25,9.07,4.07,10.81
2022-11-11 12:50:33.9530,3.07,2.6,1.97,4.47
2022-11-11 12:50:34.0120,3.6,-2.52,-1.41,4.61
2022-11-11 12:50:34.0170,6.35,-4.18,-4.52,8.84
2022-11-11 12:50:34.0220,6.5,-2.89,-6.52,9.64
2022-11-11 12:50:34.0350,5.63,-0.5,-6.76,8.81
2022-11-11 12:50:34.0380,6.16,0.2,-4.84,7.83
2022-11-11 12:50:34.0500,6.53,0.05,-4.36,7.85
2022-11-11 12:50:34.0530,5.06,0.43,-4.5,6.78
2022-11-11 12:50:34.0670,3.84,1.7,-2.29,4.78
2022-11-11 12:50:34.0720,2.83,2.48,1.02,3.89
2022-11-11 12:50:34.0840,0.23,1.84,2.19,2.86
2022-11-11 12:50:34.1450,-2.84,0.62,2.52,3.84
2022-11-11 12:50:34.1490,-4.06,0.06,3.1,5.1
2022-11-11 12:50:34.1540,-4.08,0.18,1.87,4.49
2022-11-11 12:50:34.1680,-2.82,-0.12,-0.87,2.95
2022-11-11 12:50:34.1720,0.38,-0.75,-2.32,2.46
2022-11-11 12:50:34.1840,2.21,-1.1,-2.59,3.57
2022-11-11 12:50:34.1880,1.98,-0.79,-2.37,3.18
2022-11-11 12:50:34.2000,0.99,-0.29,-1.82,2.09
2022-11-11 12:50:34.2040,-0.35,-0.52,-1.44,1.57
2022-11-11 12:50:34.2170,-1.4,-0.51,-0.93,1.75
2022-11-11 12:50:34.2770,-2.78,-0.15,-0.79,2.89
2022-11-11 12:50:34.2800,-3.9,0.41,-1.22,4.1
2022-11-11 12:50:34.2860,-3.27,1.19,-1.51,3.79
2022-11-11 12:50:34.2890,-1.85,1.43,-1.82,2.96
2022-11-11 12:50:34.3010,-0.18,1.45,-2.15,2.59
2022-11-11 12:50:34.3050,0.92,1.65,-2.2,2.89
2022-11-11 12:50:34.3170,0.18,1.73,-1.76,2.47
2022-11-11 12:50:34.3200,-0.89,1.92,-1.7,2.71
2022-11-11 12:50:34.3330,-2.25,2.11,-1.3,3.34
2022-11-11 12:50:34.3370,-3.64,2.8,-0.8,4.66
2022-11-11 12:50:34.3960,-4.65,3.06,-0.68,5.6
2022-11-11 12:50:34.4010,-4.75,3.51,-0.34,5.91
2022-11-11 12:50:34.4060,-5.16,3.77,0.13,6.39
2022-11-11 12:50:34.4180,-5.8,3.94,0.66,7.04
2022-11-11 12:50:34.4220,-6.62,4.17,1.02,7.89
2022-11-11 12:50:34.4340,-7.44,4.43,1.69,8.82
2022-11-11 12:50:34.4370,-8.04,4.62,2.7,9.65
2022-11-11 12:50:34.4500,-8.92,4.35,3.32,10.46
2022-11-11 12:50:34.4540,-9.77,3.89,3.15,10.97
2022-11-11 12:50:34.4670,-10.87,3.51,2.63,11.72
2022-11-11 12:50:34.5280,-11.94,3.45,1.94,12.57
2022-11-11 12:50:34.5330,-12.22,3.81,1.56,12.89
2022-11-11 12:50:34.5380,-12.36,4.53,0.97,13.19
2022-11-11 12:50:34.5520,-13.39,5.3,-0.42,14.4
2022-11-11 12:50:34.5550,-14.23,5.57,-1.98,15.4
2022-11-11 12:50:34.5670,-13.73,5.86,-3.69,15.37
2022-11-11 12:50:34.5710,-11.72,7.53,-5.53,14.98
2022-11-11 12:50:34.5840,-11.03,9.67,-6.39,16.0
2022-11-11 12:50:34.5870,-10.75,11.18,-5.65,16.5
2022-11-11 12:50:34.6000,-7.65,11.15,-3.32,13.92
2022-11-11 12:50:34.6610,-2.72,9.36,-3.85,10.48
2022-11-11 12:50:34.6660,-1.59,5.94,-5.84,8.48
2022-11-11 12:50:34.6710,-4.7,2.45,-5.01,7.29
2022-11-11 12:50:34.6850,-5.6,0.16,-4.47,7.16
2022-11-11 12:50:34.6890,-6.26,-2.43,-3.42,7.53
2022-11-11 12:50:34.7000,-7.23,-4.66,-1.77,8.78
2022-11-11 12:50:34.7040,-6.3,-5.97,0.27,8.68
2022-11-11 12:50:34.7170,-4.33,-6.06,1.76,7.65
2022-11-11 12:50:34.7200,-3.18,-6.01,1.47,6.95
2022-11-11 12:50:34.7330,-3.82,-6.78,1.1,7.85
2022-11-11 12:50:34.7960,-4.82,-7.71,1.17,9.16
2022-11-11 12:50:34.8000,-5.32,-8.29,1.48,9.96
2022-11-11 12:50:34.8050,-5.58,-8.69,1.77,10.47
2022-11-11 12:50:34.8180,-5.59,-8.76,1.81,10.54
2022-11-11 12:50:34.8220,-5.39,-8.38,1.5,10.07
2022-11-11 12:50:34.8340,-5.41,-7.87,1.21,9.62
2022-11-11 12:50:34.8370,-5.12,-7.33,0.9,8.98
2022-11-11 12:50:34.8500,-3.98,-6.44,0.51,7.58
2022-11-11 12:50:34.8540,-2.64,-4.68,1.0,5.46
2022-11-11 12:50:34.8670,-1.1,-1.78,2.41,3.19
2022-11-11 12:50:34.9310,0.93,0.96,2.57,2.89
2022-11-11 12:50:34.9360,2.01,2.85,0.34,3.5
2022-11-11 12:50:34.9390,3.51,4.53,-1.36,5.88
2022-11-11 12:50:34.9520,4.96,6.06,-1.02,7.89
2022-11-11 12:50:34.9550,5.53,7.06,-0.96,9.01
2022-11-11 12:50:34.9670,5.98,7.76,-1.51,9.91
2022-11-11 12:50:34.9700,6.3,8.34,-2.31,10.7
2022-11-11 12:50:34.9840,6.43,9.63,-3.47,12.08
2022-11-11 12:50:34.9870,7.21,11.92,-4.67,14.69
2022-11-11 12:50:35.0000,9.69,13.79,-5.83,17.83
2022-11-11 12:50:35.0650,13.16,14.05,-7.22,20.56
2022-11-11 12:50:35.0690,16.61,12.24,-8.35,22.25
2022-11-11 12:50:35.0880,18.98,8.74,-8.4,22.52
2022-11-11 12:50:35.0920,19.88,6.19,-8.39,22.44
2022-11-11 12:50:35.1030,17.83,6.17,-8.15,20.55
2022-11-11 12:50:35.1070,14.82,6.09,-7.18,17.55
2022-11-11 12:50:35.1170,13.4,4.46,-6.29,15.46
2022-11-11 12:50:35.1200,11.75,3.27,-5.56,13.4
2022-11-11 12:50:35.1340,1.2,3.62,-2.32,4.46
2022-11-11 12:50:35.1370,-17.24,2.96,1.14,17.52
2022-11-11 12:50:35.2040,-10.05,8.99,8.44,15.9
2022-11-11 12:50:35.2080,4.16,12.98,10.61,17.27
2022-11-11 12:50:35.2190,6.5,11.37,3.12,13.46
2022-11-11 12:50:35.2230,2.54,3.47,2.06,4.76
2022-11-11 12:50:35.2350,2.65,-2.15,-0.28,3.42
2022-11-11 12:50:35.2380,5.8,-3.74,-3.16,7.59
2022-11-11 12:50:35.2500,7.56,-3.82,-5.52,10.11
2022-11-11 12:50:35.2540,6.61,-1.51,-7.1,9.81
2022-11-11 12:50:35.2670,5.64,0.57,-6.26,8.44
2022-11-11 12:50:35.2710,5.88,0.39,-4.69,7.53
2022-11-11 12:50:35.3380,4.9,-0.15,-4.64,6.74
2022-11-11 12:50:35.3420,3.53,0.3,-4.12,5.43
2022-11-11 12:50:35.3520,3.95,1.74,-1.73,4.65
2022-11-11 12:50:35.3560,3.87,2.58,0.59,4.68
2022-11-11 12:50:35.3680,1.69,1.85,1.24,2.79
2022-11-11 12:50:35.3720,-1.48,0.6,1.38,2.11
2022-11-11 12:50:35.3840,-3.66,-0.1,1.9,4.12
2022-11-11 12:50:35.3870,-4.51,-0.45,2.42,5.13
2022-11-11 12:50:35.4000,-4.96,-0.49,1.5,5.2
2022-11-11 12:50:35.4030,-4.39,-0.67,-0.89,4.52
2022-11-11 12:50:35.4700,-1.47,-1.15,-2.28,2.94
2022-11-11 12:50:35.4740,1.33,-1.49,-2.81,3.44
2022-11-11 12:50:35.4860,1.78,-1.03,-2.7,3.39
2022-11-11 12:50:35.4890,1.1,-0.43,-2.23,2.52
2022-11-11 12:50:35.5010,0.52,-0.23,-1.55,1.65
2022-11-11 12:50:35.5050,-0.76,-0.32,-0.58,1.0
2022-11-11 12:50:35.5170,-2.16,-0.03,-0.28,2.17
2022-11-11 12:50:35.5200,-2.13,0.6,-0.03,2.21
2022-11-11 12:50:35.5330,-1.7,1.24,-0.19,2.11
2022-11-11 12:50:35.5370,-1.07,1.48,-0.94,2.05
2022-11-11 12:50:35.6050,-0.35,1.28,-1.36,1.9
2022-11-11 12:50:35.6080,-0.34,1.05,-1.47,1.83
2022-11-11 12:50:35.6190,-0.53,1.41,-1.23,1.94
2022-11-11 12:50:35.6230,-0.87,1.84,-1.61,2.59
2022-11-11 12:50:35.6350,-1.48,2.62,-1.87,3.54
2022-11-11 12:50:35.6380,-2.02,3.16,-1.82,4.16
2022-11-11 12:50:35.6500,-2.62,3.25,-1.42,4.4
2022-11-11 12:50:35.6540,-3.84,3.12,-1.26,5.1
2022-11-11 12:50:35.6670,-4.76,3.69,-0.58,6.05
2022-11-11 12:50:35.6700,-5.31,4.35,-0.04,6.86
2022-11-11 12:50:35.7390,-6.0,4.5,0.48,7.51
2022-11-11 12:50:35.7430,-6.93,4.43,1.27,8.32
2022-11-11 12:50:35.7520,-8.01,4.37,2.01,9.34
2022-11-11 12:50:35.7560,-9.05,4.56,2.72,10.49
2022-11-11 12:50:35.7680,-9.99,4.78,2.82,11.42
2022-11-11 12:50:35.7720,-11.13,4.68,2.44,12.31
2022-11-11 12:50:35.7830,-12.07,4.35,2.16,13.01
2022-11-11 12:50:35.7870,-12.56,3.85,1.87,13.26
2022-11-11 12:50:35.8000,-12.26,3.95,1.75,12.99
2022-11-11 12:50:35.8030,-12.77,4.23,0.87,13.48
2022-11-11 12:50:35.8740,-13.63,4.03,-0.1,14.21
2022-11-11 12:50:35.8780,-12.93,3.67,-1.24,13.49
2022-11-11 12:50:35.8860,-10.5,4.15,-3.37,11.78
2022-11-11 12:50:35.8900,-8.71,5.73,-4.45,11.33
2022-11-11 12:50:35.9020,-9.03,7.48,-4.79,12.66
2022-11-11 12:50:35.9050,-8.37,8.36,-4.6,12.69
2022-11-11 12:50:35.9170,-5.69,8.77,-3.32,10.96
2022-11-11 12:50:35.9200,-1.76,8.51,-5.09,10.07
2022-11-11 12:50:35.9330,-1.71,6.12,-5.98,8.72
2022-11-11 12:50:35.9370,-4.29,3.75,-4.79,7.44
2022-11-11 12:50:36.0080,-5.64,1.59,-3.8,6.98
2022-11-11 12:50:36.0120,-7.35,-1.53,-2.65,7.96
2022-11-11 12:50:36.0190,-8.17,-4.45,-0.74,9.33
2022-11-11 12:50:36.0230,-6.53,-6.03,1.01,8.94
2022-11-11 12:50:36.0350,-4.2,-6.49,1.33,7.84
2022-11-11 12:50:36.0390,-3.19,-6.68,0.8,7.44
2022-11-11 12:50:36.0500,-3.67,-7.03,0.88,7.97
2022-11-11 12:50:36.0540,-4.46,-7.42,1.59,8.8
2022-11-11 12:50:36.0670,-4.52,-7.81,2.26,9.3
2022-11-11 12:50:36.0700,-4.68,-8.05,2.85,9.73
2022-11-11 12:50:36.1430,-5.32,-7.94,3.21,10.08
2022-11-11 12:50:36.1460,-5.6,-7.63,3.09,9.95
2022-11-11 12:50:36.1520,-5.53,-7.14,2.99,9.51
2022-11-11 12:50:36.1560,-4.69,-6.41,2.66,8.37
2022-11-11 12:50:36.1680,-3.6,-5.86,2.31,7.25
2022-11-11 12:50:36.1720,-2.92,-4.65,2.33,5.96
2022-11-11 12:50:36.1840,-2.06,-2.58,2.6,4.2
2022-11-11 12:50:36.1870,-0.97,-0.2,3.25,3.39
2022-11-11 12:50:36.2000,0.22,2.37,3.52,4.24
2022-11-11 12:50:36.2040,1.49,4.68,2.5,5.51
2022-11-11 12:50:36.2770,2.86,6.84,1.1,7.49
2022-11-11 12:50:36.2810,4.48,8.93,0.1,9.99
2022-11-11 12:50:36.2860,5.86,10.64,-1.13,12.19
2022-11-11 12:50:36.2900,6.26,11.86,-2.72,13.68
2022-11-11 12:50:36.3020,6.81,13.08,-3.93,15.26
2022-11-11 12:50:36.3050,8.83,14.52,-4.95,17.7
2022-11-11 12:50:36.3170,11.81,15.16,-6.81,20.38
2022-11-11 12:50:36.3200,15.0,13.49,-9.14,22.14
2022-11-11 12:50:36.3340,17.73,9.36,-9.93,22.37
2022-11-11 12:50:36.3370,19.69,4.95,-10.02,22.64
2022-11-11 12:50:36.4110,19.51,3.43,-10.27,22.31
2022-11-11 12:50:36.4150,16.84,4.66,-9.16,19.72
2022-11-11 12:50:36.4200,14.11,5.12,-7.63,16.83
2022-11-11 12:50:36.4350,12.93,3.88,-7.02,15.21
2022-11-11 12:50:36.4390,10.94,2.77,-7.54,13.57
2022-11-11 12:50:36.4500,-0.29,2.2,-5.71,6.12
2022-11-11 12:50:36.4540,-17.52,2.34,-1.59,17.74
2022-11-11 12:50:36.4670,-9.38,8.94,6.15,14.34
2022-11-11 12:50:36.4700,2.58,13.01,10.68,17.02
2022-11-11 12:50:36.4840,5.19,10.46,4.26,12.42
2022-11-11 12:50:36.5590,0.34,2.24,3.41,4.09
2022-11-11 12:50:36.5630,1.41,-2.61,-1.01,3.13
2022-11-11 12:50:36.5690,7.53,-3.3,-5.12,9.68
2022-11-11 12:50:36.5730,7.74,-1.2,-4.45,9.0
2022-11-11 12:50:36.5850,4.48,0.72,-4.75,6.56
2022-11-11 12:50:36.5880,4.39,0.67,-4.42,6.26
2022-11-11 12:50:36.6000,5.62,-0.09,-3.12,6.42
2022-11-11 12:50:36.6040,5.32,-1.38,-4.77,7.27
2022-11-11 12:50:36.6170,5.3,-0.75,-5.11,7.4
2022-11-11 12:50:36.6200,3.89,1.11,-2.53,4.77
2022-11-11 12:50:36.6980,0.65,1.58,-0.91,1.93
2022-11-11 12:50:36.7010,-1.48,1.11,0.14,1.85
2022-11-11 12:50:36.7190,-2.69,0.25,1.51,3.09
2022-11-11 12:50:36.7230,-3.75,-0.22,2.25,4.37
2022-11-11 12:50:36.7350,-4.76,0.24,2.32,5.3
2022-11-11 12:50:36.7380,-4.12,0.36,0.65,4.18
2022-11-11 12:50:36.7500,-0.78,-0.33,-1.54,1.75
2022-11-11 12:50:36.7540,2.27,-0.96,-2.39,3.43
2022-11-11 12:50:36.7670,3.0,-0.98,-2.54,4.05
2022-11-11 12:50:36.7700,2.84,-0.54,-2.21,3.63
2022-11-11 12:50:36.8480,2.08,-0.15,-0.95,2.29
2022-11-11 12:50:36.8510,0.52,0.04,-0.19,0.55
2022-11-11 12:50:36.8690,-1.06,0.03,0.04,1.06
2022-11-11 12:50:36.8730,-2.51,-0.07,0.1,2.51
2022-11-11 12:50:36.8850,-3.22,0.13,-0.02,3.22
2022-11-11 12:50:36.8880,-2.67,0.49,-0.33,2.73
2022-11-11 12:50:36.9000,-1.47,0.45,-0.87,1.76
2022-11-11 12:50:36.9040,-0.05,0.36,-1.08,1.13
2022-11-11 12:50:36.9170,0.64,0.69,-1.05,1.41
2022-11-11 12:50:36.9200,0.5,1.17,-1.21,1.75
2022-11-11 12:50:36.9990,-0.14,1.4,-1.07,1.76
2022-11-11 12:50:37.0020,-1.32,1.65,-0.59,2.19
2022-11-11 12:50:37.0190,-2.3,1.74,-0.5,2.92
2022-11-11 12:50:37.0230,-2.91,1.73,0.06,3.38
2022-11-11 12:50:37.0350,-3.1,1.8,0.0,3.58
2022-11-11 12:50:37.0380,-2.98,1.66,-0.23,3.41
2022-11-11 12:50:37.0500,-2.56,2.01,-0.19,3.26
2022-11-11 12:50:37.0540,-2.91,2.42,-0.41,3.8
2022-11-11 12:50:37.0670,-3.45,2.75,-0.3,4.42
2022-11-11 12:50:37.0700,-4.02,3.23,0.33,5.16
2022-11-11 12:50:37.1500,-4.96,3.55,0.9,6.16
2022-11-11 12:50:37.1530,-6.0,3.64,1.27,7.13
2022-11-11 12:50:37.1690,-6.98,3.87,1.21,8.07
2022-11-11 12:50:37.1730,-8.0,4.26,0.82,9.1
2022-11-11 12:50:37.1850,-9.07,4.71,0.33,10.22
2022-11-11 12:50:37.1890,-10.01,5.44,-0.04,11.39
2022-11-11 12:50:37.2000,-11.25,6.31,-0.68,12.91
2022-11-11 12:50:37.2030,-12.47,7.25,-1.47,14.49
2022-11-11 12:50:37.2170,-12.88,8.15,-2.37,15.42
2022-11-11 12:50:37.2200,-13.58,8.06,-3.12,16.09
2022-11-11 12:50:37.3000,-13.73,6.71,-3.2,15.61
2022-11-11 12:50:37.3030,-11.66,4.96,-3.13,13.05
2022-11-11 12:50:37.3190,-8.23,4.01,-4.7,10.29
2022-11-11 12:50:37.3220,-6.94,3.96,-6.05,10.02
2022-11-11 12:50:37.3350,-7.39,4.42,-5.16,10.03
2022-11-11 12:50:37.3390,-5.46,6.02,-2.04,8.37
2022-11-11 12:50:37.3500,-1.68,7.69,-1.73,8.05
2022-11-11 12:50:37.3540,-0.81,6.05,-4.2,7.4
2022-11-11 12:50:37.3670,-4.62,2.19,-4.13,6.57
2022-11-11 12:50:37.3700,-6.57,-0.64,-3.66,7.54
2022-11-11 12:50:37.4520,-6.81,-3.04,-2.88,7.99
2022-11-11 12:50:37.4560,-7.29,-4.79,-1.61,8.87
2022-11-11 12:50:37.4690,-6.94,-5.91,-0.34,9.12
2022-11-11 12:50:37.4730,-6.13,-6.69,0.24,9.07
2022-11-11 12:50:37.4850,-5.22,-6.99,-0.22,8.72
2022-11-11 12:50:37.4890,-4.68,-7.29,-0.76,8.69
2022-11-11 12:50:37.5000,-4.31,-7.5,-1.03,8.71
2022-11-11 12:50:37.5040,-3.34,-7.63,-1.06,8.39
2022-11-11 12:50:37.5170,-2.67,-7.77,-0.74,8.24
2022-11-11 12:50:37.5210,-2.87,-7.59,-0.07,8.11
2022-11-11 12:50:37.6030,-3.18,-7.48,1.11,8.2
2022-11-11 12:50:37.6070,-3.89,-6.64,1.76,7.89
2022-11-11 12:50:37.6190,-4.19,-4.91,2.42,6.89
2022-11-11 12:50:37.6230,-2.58,-3.41,2.48,4.94
2022-11-11 12:50:37.6350,-0.74,-2.05,1.82,2.83
2022-11-11 12:50:37.6390,0.04,-1.41,1.35,1.95
2022-11-11 12:50:37.6500,0.12,-0.81,1.56,1.76
2022-11-11 12:50:37.6540,-0.25,0.68,1.01,1.24
2022-11-11 12:50:37.6670,-0.51,2.73,-0.7,2.86
2022-11-11 12:50:37.6700,-0.11,4.78,-3.3,5.8
2022-11-11 12:50:37.7540,1.88,6.8,-5.44,8.9
2022-11-11 12:50:37.7570,4.88,8.59,-7.19,12.21
2022-11-11 12:50:37.7690,7.56,10.11,-8.44,15.18
2022-11-11 12:50:37.7720,9.2,11.09,-9.33,17.16
2022-11-11 12:50:37.7850,10.39,10.68,-9.69,17.77
2022-11-11 12:50:37.7890,11.06,8.22,-9.52,16.74
2022-11-11 12:50:37.8000,10.9,5.03,-9.74,15.45
2022-11-11 12:50:37.8040,10.18,2.59,-9.93,14.45
2022-11-11 12:50:37.8170,9.36,1.04,-9.95,13.7
2022-11-11 12:50:37.8200,9.31,0.79,-9.84,13.56
2022-11-11 12:50:37.9050,9.51,2.11,-9.44,13.56
2022-11-11 12:50:37.9080,11.0,4.12,-9.14,14.88
2022-11-11 12:50:37.9190,11.89,4.42,-8.55,15.29
2022-11-11 12:50:37.9230,11.28,2.66,-7.83,13.98
2022-11-11 12:50:37.9350,10.08,0.8,-6.99,12.29
2022-11-11 12:50:37.9380,7.64,-0.47,-6.16,9.82
2022-11-11 12:50:37.9500,3.87,-0.62,-5.08,6.41
2022-11-11 12:50:37.9540,-3.36,0.77,-1.56,3.78
2022-11-11 12:50:37.9670,-10.9,3.65,1.38,11.57
2022-11-11 12:50:37.9700,-7.74,9.92,5.01,13.54
2022-11-11 12:50:38.0550,-0.84,13.45,2.73,13.74
2022-11-11 12:50:38.0590,4.58,9.0,-5.32,11.41
2022-11-11 12:50:38.0690,5.99,2.84,-6.35,9.17
2022-11-11 12:50:38.0730,3.91,0.6,-5.17,6.5
2022-11-11 12:50:38.0850,1.23,-0.1,-4.06,4.24
2022-11-11 12:50:38.0890,0.66,-0.91,-3.36,3.54
2022-11-11 12:50:38.1000,3.62,-1.62,-2.88,4.9
2022-11-11 12:50:38.1050,7.25,-2.04,-1.94,7.77
2022-11-11 12:50:38.1180,6.15,-2.17,-2.33,6.92
2022-11-11 12:50:38.1220,1.12,-1.41,-2.29,2.91
2022-11-11 12:50:38.2100,-1.34,0.05,-0.76,1.54
2022-11-11 12:50:38.2130,-2.09,1.09,-0.1,2.35
2022-11-11 12:50:38.2200,-2.67,1.19,-0.06,2.92
2022-11-11 12:50:38.2230,-2.39,0.99,0.32,2.6
2022-11-11 12:50:38.2350,-1.65,0.72,0.28,1.82
2022-11-11 12:50:38.2390,-0.56,0.33,-0.56,0.85
2022-11-11 12:50:38.2500,0.92,-0.14,-1.56,1.81
2022-11-11 12:50:38.2540,1.97,-0.23,-1.57,2.52
2022-11-11 12:50:38.2670,1.29,-0.3,-2.01,2.4
2022-11-11 12:50:38.2700,0.59,-0.1,-1.3,1.43
2022-11-11 12:50:38.3570,0.06,0.29,-0.63,0.69
2022-11-11 12:50:38.3600,-0.38,0.21,-0.07,0.43
2022-11-11 12:50:38.3690,-0.41,0.18,0.78,0.89
2022-11-11 12:50:38.3730,-1.7,-0.14,0.3,1.73
2022-11-11 12:50:38.3850,-2.95,-0.3,0.68,3.04
2022-11-11 12:50:38.3890,-2.99,0.11,0.59,3.04
2022-11-11 12:50:38.4000,-2.2,0.32,-0.02,2.22
2022-11-11 12:50:38.4040,-0.91,0.24,-0.59,1.11
2022-11-11 12:50:38.4170,0.06,0.24,-1.27,1.29
2022-11-11 12:50:38.4200,0.54,0.43,-1.59,1.73
2022-11-11 12:50:38.5150,0.53,0.59,-1.11,1.36
2022-11-11 12:50:38.5190,-0.15,0.63,-0.78,1.01
2022-11-11 12:50:38.5360,-1.09,0.47,-0.75,1.4
2022-11-11 12:50:38.5390,-1.65,0.29,-0.39,1.72
2022-11-11 12:50:38.5520,-1.83,0.36,-0.09,1.86
2022-11-11 12:50:38.5550,-1.6,0.6,0.02,1.7
2022-11-11 12:50:38.5670,-1.3,0.86,0.11,1.56
2022-11-11 12:50:38.5710,-1.0,1.34,0.51,1.74
2022-11-11 12:50:38.5850,-0.99,1.75,0.69,2.12
2022-11-11 12:50:38.5890,-1.44,1.73,0.64,2.34
2022-11-11 12:50:38.6800,-1.96,1.38,0.67,2.48
2022-11-11 12:50:38.6840,-2.1,1.06,0.72,2.46
2022-11-11 12:50:38.6890,-2.65,1.11,0.93,3.01
2022-11-11 12:50:38.7020,-3.28,1.2,0.6,3.54
2022-11-11 12:50:38.7050,-4.18,0.58,-1.05,4.34
2022-11-11 12:50:38.7170,-4.84,0.83,-1.8,5.23
2022-11-11 12:50:38.7200,-4.95,1.57,-2.93,5.96
2022-11-11 12:50:38.7340,-5.26,2.07,-4.29,7.09
2022-11-11 12:50:38.7370,-5.88,2.42,-5.02,8.1
2022-11-11 12:50:38.7500,-5.83,2.93,-4.99,8.21
2022-11-11 12:50:38.8410,-5.58,4.22,-4.43,8.28
2022-11-11 12:50:38.8450,-6.16,5.81,-4.33,9.51
2022-11-11 12:50:38.8530,-7.23,7.1,-4.65,11.14
2022-11-11 12:50:38.8560,-8.66,7.86,-4.98,12.71
2022-11-11 12:50:38.8680,-10.17,8.1,-5.02,13.93
2022-11-11 12:50:38.8720,-10.96,7.67,-5.13,14.32
2022-11-11 12:50:38.8840,-10.17,6.32,-4.92,12.94
2022-11-11 12:50:38.8870,-7.73,4.99,-3.89,9.98
2022-11-11 12:50:38.9010,-5.53,4.08,-3.79,7.84
2022-11-11 12:50:38.9040,-5.08,2.55,-5.61,7.98
2022-11-11 12:50:38.9970,-4.71,0.64,-7.8,9.13
2022-11-11 12:50:39.0010,-2.71,-0.48,-10.05,10.42
2022-11-11 12:50:39.0060,0.71,-0.27,-12.45,12.47
2022-11-11 12:50:39.0180,1.27,-0.02,-13.61,13.66
2022-11-11 12:50:39.0220,-2.29,-0.95,-13.41,13.63
2022-11-11 12:50:39.0340,-4.51,-1.76,-13.12,13.98
2022-11-11 12:50:39.0370,-3.6,-1.45,-13.07,13.63
2022-11-11 12:50:39.0500,-2.43,-1.22,-13.61,13.87
2022-11-11 12:50:39.0540,-2.35,-1.46,-13.34,13.62
2022-11-11 12:50:39.0670,-2.04,-0.98,-12.73,12.92
2022-11-11 12:50:39.1620,-1.0,0.17,-12.38,12.42
2022-11-11 12:50:39.1690,-0.21,0.89,-12.06,12.09
2022-11-11 12:50:39.1740,-0.16,0.62,-11.47,11.48
2022-11-11 12:50:39.1850,-0.41,-0.38,-10.47,10.48
2022-11-11 12:50:39.1890,-0.38,-1.33,-9.9,9.99
2022-11-11 12:50:39.2000,-0.05,-2.17,-9.44,9.68
2022-11-11 12:50:39.2040,0.36,-2.23,-8.86,9.14
2022-11-11 12:50:39.2170,0.62,-1.58,-8.29,8.46
2022-11-11 12:50:39.2200,0.29,-1.0,-7.51,7.58
2022-11-11 12:50:39.2340,-0.05,-0.54,-6.86,6.88
2022-11-11 12:50:39.3310,0.32,-0.15,-6.51,6.51
2022-11-11 12:50:39.3350,0.79,-0.36,-6.25,6.31
2022-11-11 12:50:39.3520,0.58,-1.27,-5.86,6.02
2022-11-11 12:50:39.3560,-0.04,-2.47,-5.41,5.94
2022-11-11 12:50:39.3680,-0.53,-3.67,-4.99,6.21
2022-11-11 12:50:39.3720,-0.82,-4.89,-4.5,6.69
2022-11-11 12:50:39.3840,-0.8,-6.1,-3.96,7.31
2022-11-11 12:50:39.3870,-0.27,-6.91,-3.61,7.8
2022-11-11 12:50:39.4000,0.49,-7.18,-3.74,8.11
2022-11-11 12:50:39.4040,-0.11,-7.37,-3.67,8.23
2022-11-11 12:50:39.5010,-1.07,-7.53,-3.1,8.21
2022-11-11 12:50:39.5070,-1.3,-7.52,-2.31,7.97
2022-11-11 12:50:39.5200,-1.2,-7.43,-1.4,7.65
2022-11-11 12:50:39.5250,-1.22,-7.7,-0.43,7.8
2022-11-11 12:50:39.5350,-1.7,-8.3,0.42,8.48
2022-11-11 12:50:39.5390,-2.36,-8.91,1.11,9.28
2022-11-11 12:50:39.5500,-2.73,-9.49,1.68,10.01
2022-11-11 12:50:39.5540,-2.63,-9.91,2.07,10.45
2022-11-11 12:50:39.5670,-2.22,-10.12,2.39,10.63
2022-11-11 12:50:39.5700,-1.62,-10.0,2.54,10.44
2022-11-11 12:50:39.6690,-1.23,-9.33,2.39,9.7
2022-11-11 12:50:39.6730,-1.12,-8.2,2.28,8.58
2022-11-11 12:50:39.6860,-0.42,-7.0,2.35,7.39
2022-11-11 12:50:39.6890,0.55,-5.87,2.3,6.32
2022-11-11 12:50:39.7020,1.56,-4.73,2.1,5.4
2022-11-11 12:50:39.7050,2.66,-3.44,1.84,4.72
2022-11-11 12:50:39.7170,3.53,-1.92,1.52,4.29
2022-11-11 12:50:39.7200,4.03,0.02,1.06,4.16
2022-11-11 12:50:39.7340,4.67,2.53,0.38,5.32
2022-11-11 12:50:39.7370,5.19,5.72,-0.58,7.74
2022-11-11 12:50:39.8380,4.96,9.77,-1.81,11.1
2022-11-11 12:50:39.8410,4.27,14.34,-3.09,15.27
2022-11-11 12:50:39.8530,3.98,16.62,-4.09,17.57
2022-11-11 12:50:39.8570,4.43,14.22,-4.56,15.57
2022-11-11 12:50:39.8690,5.33,9.69,-4.47,11.92
2022-11-11 12:50:39.8730,6.96,5.93,-5.04,10.44
2022-11-11 12:50:39.8840,9.78,4.63,-6.41,12.57
2022-11-11 12:50:39.8880,11.14,4.71,-8.82,14.96
2022-11-11 12:50:39.9010,1.2,4.68,-9.4,10.56
2022-11-11 12:50:39.9050,-19.31,8.59,-5.35,21.8
2022-11-11 12:50:40.0080,-10.62,22.51,6.06,25.61
2022-11-11 12:50:40.0120,5.62,19.93,11.66,23.76
2022-11-11 12:50:40.0200,6.54,2.82,2.89,7.68
2022-11-11 12:50:40.0230,0.46,-7.16,0.41,7.18
2022-11-11 12:50:41.7620,-1.57,-8.37,0.08,8.51
2022-11-11 12:50:41.7750,0.18,-4.64,0.91,4.73
2022-11-11 12:50:41.7850,1.94,-1.0,-0.55,2.25
2022-11-11 12:50:41.7990,3.12,0.85,-1.83,3.71
2022-11-11 12:50:41.8100,2.32,2.03,-0.9,3.21
2022-11-11 12:50:41.8200,1.35,2.13,-0.74,2.62
2022-11-11 12:50:41.8490,1.16,1.85,-1.88,2.88
2022-11-11 12:50:41.8600,2.03,1.7,-3.61,4.47
2022-11-11 12:50:41.8700,4.51,1.24,-3.71,5.97
2022-11-11 12:50:41.8810,7.05,1.49,-2.02,7.48
2022-11-11 12:50:41.8910,6.27,1.82,-0.57,6.55
2022-11-11 12:50:41.9010,2.83,1.32,0.17,3.12
2022-11-11 12:50:41.9130,-0.11,0.11,0.46,0.48
2022-11-11 12:50:41.9240,-1.59,-0.91,0.74,1.97
2022-11-11 12:50:41.9340,-2.42,-1.21,1.12,2.92
2022-11-11 12:50:41.9450,-3.35,-1.69,0.48,3.78
2022-11-11 12:50:41.9740,-3.35,-1.86,-0.66,3.88
2022-11-11 12:50:42.0030,-2.2,-1.3,-1.57,2.99
2022-11-11 12:50:42.0660,-0.76,-0.81,-2.52,2.75
2022-11-11 12:50:42.0780,0.27,-0.71,-3.32,3.4
2022-11-11 12:50:42.0910,0.27,-0.42,-3.6,3.63
2022-11-11 12:50:42.1040,-0.81,-0.33,-3.09,3.21
2022-11-11 12:50:42.1160,-2.81,-0.68,-1.63,3.31
2022-11-11 12:50:42.1270,-4.59,-0.75,-0.56,4.68
2022-11-11 12:50:42.1420,-5.12,-0.38,0.44,5.15
2022-11-11 12:50:42.1550,-4.98,-0.08,1.16,5.11
2022-11-11 12:50:42.1900,-4.45,-0.23,0.78,4.52
2022-11-11 12:50:42.2010,-2.82,-0.25,0.22,2.83
2022-11-11 12:50:42.2120,-0.87,0.27,-0.89,1.27
2022-11-11 12:50:42.2230,1.47,1.06,-1.02,2.07
2022-11-11 12:50:42.2340,2.83,1.68,-0.76,3.37
2022-11-11 12:50:42.2450,2.22,1.48,-0.52,2.71
2022-11-11 12:50:42.2560,0.69,1.17,0.01,1.35
2022-11-11 12:50:42.2670,-1.0,1.23,0.5,1.66
2022-11-11 12:50:42.2810,-2.29,1.19,-0.09,2.58
2022-11-11 12:50:42.2910,-2.14,1.57,-0.83,2.78
2022-11-11 12:50:42.3230,-1.18,2.58,-0.94,2.98
2022-11-11 12:50:42.3350,-0.33,2.82,-1.77,3.34
2022-11-11 12:50:42.3460,0.63,2.95,-1.97,3.6
2022-11-11 12:50:42.3560,-0.6,2.84,-1.48,3.25
2022-11-11 12:50:42.3670,-2.35,2.96,-0.8,3.86
2022-11-11 12:50:42.3780,-3.68,2.58,-0.67,4.54
2022-11-11 12:50:42.3900,-5.2,2.62,-0.1,5.82
2022-11-11 12:50:42.4010,-6.18,2.81,-0.08,6.78
2022-11-11 12:50:42.4120,-6.12,3.27,0.07,6.93
2022-11-11 12:50:42.4230,-6.3,3.54,0.13,7.22
2022-11-11 12:50:42.4550,-7.09,3.17,0.45,7.77
2022-11-11 12:50:42.4670,-7.64,3.23,1.0,8.35
2022-11-11 12:50:42.4790,-8.55,3.68,1.27,9.39
2022-11-11 12:50:42.4920,-10.07,3.84,1.3,10.85
2022-11-11 12:50:42.5040,-11.67,3.71,0.8,12.27
2022-11-11 12:50:42.5280,-13.11,3.76,-0.01,13.63
2022-11-11 12:50:42.5560,-15.12,4.24,-1.21,15.74
2022-11-11 12:50:42.5670,-16.7,5.19,-2.34,17.64
2022-11-11 12:50:42.5780,-16.52,6.45,-3.49,18.07
2022-11-11 12:50:42.5880,-14.94,7.67,-4.08,17.28
2022-11-11 12:50:42.6200,-11.5,9.45,-5.09,15.73
2022-11-11 12:50:42.6300,-9.22,11.33,-5.77,15.7
2022-11-11 12:50:42.6400,-10.65,12.73,-5.77,17.57
2022-11-11 12:50:42.6520,-10.21,13.45,-5.6,17.79
2022-11-11 12:50:42.6630,-6.01,12.41,-5.31,14.77
2022-11-11 12:50:42.6730,-2.26,10.35,-5.41,11.89
2022-11-11 12:50:42.6840,-2.43,7.74,-5.39,9.73
2022-11-11 12:50:42.6940,-3.31,4.43,-4.13,6.9
2022-11-11 12:50:42.7050,-3.05,1.73,-2.95,4.58
2022-11-11 12:50:42.7230,-2.95,-0.05,-0.94,3.09
2022-11-11 12:50:42.7650,-2.05,-1.52,0.58,2.61
2022-11-11 12:50:43.0050,-0.63,-3.28,0.9,3.45
2022-11-11 12:50:43.1850,-1.29,-5.22,1.59,5.6
2022-11-11 12:50:43.3370,-2.93,-7.22,2.16,8.08
2022-11-11 12:50:43.3620,-3.84,-8.63,2.46,9.76
2022-11-11 12:50:43.3820,-5.11,-9.42,2.64,11.03
2022-11-11 12:50:43.4050,-5.98,-9.57,2.85,11.63
2022-11-11 12:50:43.4470,-5.71,-9.51,2.97,11.48
2022-11-11 12:50:43.5020,-5.35,-9.41,3.0,11.23
2022-11-11 12:50:43.5360,-4.89,-9.12,2.96,10.76
2022-11-11 12:50:43.7060,-4.47,-8.54,2.76,10.02
2022-11-11 12:50:43.7360,-4.48,-7.7,2.53,9.26
2022-11-11 12:50:43.7470,-3.89,-6.88,2.51,8.29
2022-11-11 12:50:43.7650,-2.64,-6.59,2.4,7.49
2022-11-11 12:50:43.7800,-1.81,-6.56,2.21,7.15
2022-11-11 12:50:43.7930,-1.42,-6.33,2.43,6.92
2022-11-11 12:50:43.8100,-0.36,-6.05,2.5,6.55
2022-11-11 12:50:43.8590,0.45,-5.5,1.75,5.78
2022-11-11 12:50:43.8720,0.77,-4.6,1.46,4.88
2022-11-11 12:50:43.8820,1.66,-3.63,1.72,4.34
2022-11-11 12:50:43.9230,3.4,-2.63,1.84,4.67
2022-11-11 12:50:43.9330,5.24,-1.59,1.3,5.62
2022-11-11 12:50:43.9460,6.28,-0.13,0.25,6.28
2022-11-11 12:50:43.9560,6.83,2.1,-0.8,7.19
2022-11-11 12:50:43.9710,8.19,5.08,-2.14,9.87
2022-11-11 12:50:43.9960,10.19,8.52,-3.74,13.79
2022-11-11 12:50:44.0060,12.76,12.57,-5.83,18.83
2022-11-11 12:50:44.0240,15.07,16.61,-8.15,23.86
2022-11-11 12:50:44.0360,16.51,18.57,-10.07,26.81
2022-11-11 12:50:44.0480,17.24,16.4,-10.99,26.2
2022-11-11 12:50:44.0860,17.26,9.95,-11.39,22.94
2022-11-11 12:50:44.0960,16.6,3.95,-11.24,20.43
2022-11-11 12:50:44.1200,14.59,1.71,-10.85,18.26
2022-11-11 12:50:44.1300,13.49,2.01,-9.26,16.48
2022-11-11 12:50:44.1410,13.54,1.92,-7.43,15.56
2022-11-11 12:50:44.1510,3.85,2.25,-3.47,5.65
2022-11-11 12:50:44.2000,-26.05,1.18,1.16,26.1
2022-11-11 12:50:44.2130,-26.22,10.93,8.24,29.57
2022-11-11 12:50:44.2370,-1.84,24.39,15.79,29.11
2022-11-11 12:50:44.2490,7.3,20.78,6.09,22.85
2022-11-11 12:50:44.2790,1.59,4.44,4.61,6.59
2022-11-11 12:50:44.2890,-0.33,-5.6,-0.3,5.61
2022-11-11 12:50:44.3320,3.67,-7.9,-5.21,10.15
2022-11-11 12:50:44.3430,4.77,-7.09,-8.93,12.35
2022-11-11 12:50:44.3540,2.57,-3.21,-11.25,11.97
2022-11-11 12:50:44.3650,3.65,0.41,-7.17,8.05
2022-11-11 12:50:44.3750,6.07,0.28,-4.8,7.74
2022-11-11 12:50:44.4190,6.13,0.54,-5.7,8.38
2022-11-11 12:50:44.4290,5.71,1.49,-3.94,7.09
2022-11-11 12:50:44.4410,5.36,2.26,-1.02,5.9
2022-11-11 12:50:44.4790,3.38,2.76,0.95,4.46
2022-11-11 12:50:44.4890,0.53,2.11,2.76,3.51
2022-11-11 12:50:44.4980,-2.17,1.04,3.7,4.41
2022-11-11 12:50:44.5080,-4.28,0.27,3.53,5.55
2022-11-11 12:50:44.5180,-4.78,-0.03,2.53,5.4
2022-11-11 12:50:44.5280,-3.8,-0.37,0.17,3.82
2022-11-11 12:50:44.5380,-1.55,-1.08,-2.25,2.93
2022-11-11 12:50:44.5470,0.92,-1.63,-3.36,3.84
2022-11-11 12:50:44.5570,1.74,-1.68,-3.26,4.05
2022-11-11 12:50:44.5670,0.97,-1.4,-2.79,3.26
2022-11-11 12:50:44.5950,-0.01,-0.96,-2.02,2.23
2022-11-11 12:50:44.6040,-0.67,-0.42,-0.82,1.13
2022-11-11 12:50:44.6140,-1.33,0.16,0.4,1.39
2022-11-11 12:50:44.6240,-2.3,0.68,0.75,2.51
2022-11-11 12:50:44.6340,-2.95,1.06,1.16,3.34
2022-11-11 12:50:44.6430,-2.74,1.24,1.07,3.19
2022-11-11 12:50:44.6530,-1.78,0.9,0.18,2.0
2022-11-11 12:50:44.6630,-0.62,0.17,-0.62,0.89
2022-11-11 12:50:44.6760,0.35,0.37,-1.28,1.37
2022-11-11 12:50:44.6860,0.15,0.84,-1.47,1.69
2022-11-11 12:50:44.7130,-1.05,0.53,-1.46,1.87
2022-11-11 12:50:44.7230,-1.99,0.87,-1.74,2.78
2022-11-11 12:50:44.7330,-2.24,1.64,-1.74,3.27
2022-11-11 12:50:44.7430,-1.89,2.47,-0.92,3.24
2022-11-11 12:50:44.7530,-0.95,3.62,-0.21,3.74
2022-11-11 12:50:44.7620,-0.92,4.01,0.07,4.11
2022-11-11 12:50:44.7720,-1.83,4.44,0.88,4.88
2022-11-11 12:50:44.7820,-3.25,4.58,1.3,5.76
2022-11-11 12:50:44.7920,-5.08,4.3,1.09,6.74
2022-11-11 12:50:44.8020,-6.26,4.28,0.94,7.64
2022-11-11 12:50:44.8350,-7.56,3.89,0.73,8.53
2022-11-11 12:50:44.8510,-8.51,3.48,0.86,9.23
2022-11-11 12:50:44.8620,-9.41,3.23,1.47,10.05
2022-11-11 12:50:44.8720,-9.94,3.12,2.49,10.71
2022-11-11 12:50:44.8820,-9.86,3.55,3.35,11.0
2022-11-11 12:50:44.8920,-11.12,3.63,3.0,12.07
2022-11-11 12:50:44.9020,-12.79,3.15,2.15,13.34
2022-11-11 12:50:44.9140,-13.47,3.11,1.48,13.9
2022-11-11 12:50:44.9280,-13.78,4.04,0.28,14.36
2022-11-11 12:50:44.9380,-14.47,5.58,-1.78,15.61
2022-11-11 12:50:44.9660,-15.27,6.61,-3.08,16.92
2022-11-11 12:50:44.9770,-13.85,8.23,-3.99,16.59
2022-11-11 12:50:44.9870,-11.62,11.39,-5.5,17.17
2022-11-11 12:50:44.9970,-13.9,13.02,-6.24,20.04
2022-11-11 12:50:45.0060,-14.72,13.29,-5.56,20.59
2022-11-11 12:50:45.0160,-8.71,12.87,-5.18,16.38
2022-11-11 12:50:45.0260,-1.51,11.73,-6.66,13.57
