time,ax,ay,az,atotal
2022-11-11 12:50:07.0160,0.01,-0.08,-0.15,0.17
2022-11-11 12:50:07.0170,0.19,-0.09,-0.16,0.26
2022-11-11 12:50:07.0190,0.35,-0.07,-0.1,0.37
2022-11-11 12:50:07.0210,0.28,0.03,-0.27,0.39
2022-11-11 12:50:07.0220,0.18,0.17,-0.23,0.33
2022-11-11 12:50:07.0240,0.04,0.05,-0.09,0.11
2022-11-11 12:50:07.0260,-0.08,-0.06,-0.06,0.11
2022-11-11 12:50:07.0360,-0.14,-0.03,-0.07,0.15
2022-11-11 12:50:07.0460,-0.13,0.0,-0.04,0.13
2022-11-11 12:50:07.0560,-0.12,0.06,0.02,0.13
2022-11-11 12:50:07.1130,-0.12,0.1,0.11,0.19
2022-11-11 12:50:07.1140,-0.17,0.06,0.09,0.2
2022-11-11 12:50:07.1160,-0.17,0.0,-0.04,0.17
2022-11-11 12:50:07.1170,-0.05,-0.04,-0.13,0.14
2022-11-11 12:50:07.1190,0.05,0.01,-0.17,0.17
2022-11-11 12:50:07.1210,0.08,0.05,-0.16,0.18
2022-11-11 12:50:07.1260,0.02,0.05,-0.03,0.06
2022-11-11 12:50:07.1410,-0.05,0.04,0.06,0.08
2022-11-11 12:50:07.1450,-0.05,0.02,0.07,0.08
2022-11-11 12:50:07.1560,-0.05,-0.03,-0.02,0.06
2022-11-11 12:50:07.2130,-0.03,-0.07,-0.06,0.09
2022-11-11 12:50:07.2140,0.05,-0.07,-0.01,0.08
2022-11-11 12:50:07.2150,0.06,0.02,0.01,0.06
2022-11-11 12:50:07.2170,0.05,0.1,-0.05,0.12
2022-11-11 12:50:07.2190,0.05,0.11,-0.02,0.12
2022-11-11 12:50:07.2200,0.04,0.05,-0.03,0.07
2022-11-11 12:50:07.2250,0.02,-0.03,-0.09,0.09
2022-11-11 12:50:07.2410,-0.01,-0.1,-0.13,0.16
2022-11-11 12:50:07.2450,0.02,-0.15,-0.03,0.15
2022-11-11 12:50:07.2550,0.0,-0.16,0.1,0.18
2022-11-11 12:50:07.3110,-0.3,-0.08,-0.43,0.53
2022-11-11 12:50:07.3130,-0.32,0.07,0.05,0.33
2022-11-11 12:50:07.3140,-0.26,0.35,0.31,0.53
2022-11-11 12:50:07.3160,-0.38,0.33,0.21,0.54
2022-11-11 12:50:07.3180,-0.46,0.16,0.22,0.53
2022-11-11 12:50:07.3200,-0.37,-0.01,0.3,0.47
2022-11-11 12:50:07.3240,-0.23,-0.14,0.22,0.34
2022-11-11 12:50:07.3340,-0.07,-0.21,0.03,0.22
2022-11-11 12:50:07.3450,0.1,-0.22,0.02,0.24
2022-11-11 12:50:07.3540,0.16,-0.15,0.15,0.26
2022-11-11 12:50:07.4110,0.03,-0.03,0.15,0.15
2022-11-11 12:50:07.4120,-0.17,0.08,-0.02,0.18
2022-11-11 12:50:07.4140,-0.2,0.15,0.03,0.25
2022-11-11 12:50:07.4150,-0.05,0.15,0.14,0.21
2022-11-11 12:50:07.4170,0.03,0.1,0.05,0.11
2022-11-11 12:50:07.4190,0.02,0.04,0.0,0.04
2022-11-11 12:50:07.4240,0.08,-0.02,0.08,0.11
2022-11-11 12:50:07.4340,0.1,-0.06,0.09,0.14
2022-11-11 12:50:07.4440,-0.03,-0.1,0.01,0.1
2022-11-11 12:50:07.4540,-0.03,-0.13,0.06,0.14
2022-11-11 12:50:07.5100,0.11,-0.12,0.19,0.25
2022-11-11 12:50:07.5110,0.13,-0.06,0.1,0.17
2022-11-11 12:50:07.5130,0.1,0.01,0.0,0.1
2022-11-11 12:50:07.5150,0.14,0.03,0.02,0.14
2022-11-11 12:50:07.5160,0.19,0.01,-0.04,0.19
2022-11-11 12:50:07.5180,0.2,-0.03,-0.24,0.31
2022-11-11 12:50:07.5230,0.26,-0.09,-0.37,0.46
2022-11-11 12:50:07.5330,0.41,-0.13,-0.25,0.49
2022-11-11 12:50:07.5430,0.42,-0.08,-0.02,0.42
2022-11-11 12:50:07.5530,0.24,0.04,0.11,0.26
2022-11-11 12:50:07.6100,0.02,0.1,0.18,0.2
2022-11-11 12:50:07.6110,-0.12,0.11,0.22,0.27
2022-11-11 12:50:07.6120,-0.18,0.07,0.14,0.23
2022-11-11 12:50:07.6140,-0.25,0.01,0.04,0.25
2022-11-11 12:50:07.6160,-0.23,-0.02,0.02,0.23
2022-11-11 12:50:07.6180,-0.09,-0.03,0.03,0.09
2022-11-11 12:50:07.6220,0.0,0.01,-0.04,0.04
2022-11-11 12:50:07.6330,0.06,0.06,-0.11,0.13
2022-11-11 12:50:07.6430,0.12,0.06,-0.13,0.18
2022-11-11 12:50:07.6520,0.11,0.09,-0.13,0.19
2022-11-11 12:50:07.7090,0.16,0.08,-0.13,0.22
2022-11-11 12:50:07.7110,0.29,0.04,-0.18,0.34
2022-11-11 12:50:07.7120,0.26,0.0,-0.35,0.43
2022-11-11 12:50:07.7140,0.02,0.0,-0.43,0.43
2022-11-11 12:50:07.7150,-0.18,0.06,-0.21,0.28
2022-11-11 12:50:07.7170,-0.3,0.13,0.1,0.34
2022-11-11 12:50:07.7220,-0.37,0.15,0.22,0.45
2022-11-11 12:50:07.7320,-0.43,0.14,0.14,0.47
2022-11-11 12:50:07.7420,-0.43,0.14,0.07,0.45
2022-11-11 12:50:07.7520,-0.29,0.21,0.12,0.37
2022-11-11 12:50:07.8090,-0.08,0.22,0.11,0.25
2022-11-11 12:50:07.8100,0.06,0.13,-0.03,0.14
2022-11-11 12:50:07.8120,0.18,-0.02,-0.13,0.22
2022-11-11 12:50:07.8140,0.21,-0.15,-0.22,0.33
2022-11-11 12:50:07.8150,0.01,-0.23,-0.24,0.33
2022-11-11 12:50:07.8170,-0.21,-0.31,-0.17,0.41
2022-11-11 12:50:07.8210,-0.2,-0.31,-0.03,0.37
2022-11-11 12:50:07.8310,-0.07,-0.24,0.16,0.29
2022-11-11 12:50:07.8410,-0.14,-0.1,0.44,0.47
2022-11-11 12:50:07.8510,-0.46,0.18,0.55,0.73
2022-11-11 12:50:07.9080,-0.81,0.46,0.5,1.05
2022-11-11 12:50:07.9100,-0.94,0.56,0.44,1.17
2022-11-11 12:50:07.9110,-0.68,0.45,0.3,0.86
2022-11-11 12:50:07.9130,-0.18,0.14,0.17,0.28
2022-11-11 12:50:07.9150,0.16,-0.09,0.04,0.18
2022-11-11 12:50:07.9170,0.39,-0.26,-0.15,0.49
2022-11-11 12:50:07.9210,0.52,-0.33,-0.28,0.67
2022-11-11 12:50:07.9310,0.36,-0.17,-0.22,0.45
2022-11-11 12:50:07.9410,0.08,-0.03,0.0,0.08
2022-11-11 12:50:07.9510,-0.05,-0.03,0.3,0.3
2022-11-11 12:50:08.0080,-0.01,-0.09,0.26,0.27
2022-11-11 12:50:08.0090,0.12,-0.15,-0.08,0.2
2022-11-11 12:50:08.0110,0.21,-0.09,-0.24,0.33
2022-11-11 12:50:08.0130,0.41,-0.03,-0.31,0.51
2022-11-11 12:50:08.0140,0.56,0.1,-0.11,0.57
2022-11-11 12:50:08.0160,0.46,0.27,0.14,0.55
2022-11-11 12:50:08.0200,0.33,0.2,0.02,0.38
2022-11-11 12:50:08.0300,0.34,-0.06,-0.21,0.4
2022-11-11 12:50:08.0400,0.44,-0.28,-0.31,0.6
2022-11-11 12:50:08.0500,0.63,-0.32,-0.42,0.82
2022-11-11 12:50:08.1070,0.84,-0.27,-0.49,1.0
2022-11-11 12:50:08.1080,0.98,-0.09,-0.49,1.09
2022-11-11 12:50:08.1100,0.93,0.24,-0.61,1.13
2022-11-11 12:50:08.1120,0.58,0.57,-0.63,1.02
2022-11-11 12:50:08.1130,0.12,0.72,-0.35,0.8
2022-11-11 12:50:08.1150,-0.2,0.45,0.01,0.49
2022-11-11 12:50:08.1190,-0.3,-0.37,0.08,0.48
2022-11-11 12:50:08.1300,-0.24,-1.03,0.0,1.05
2022-11-11 12:50:08.1400,-0.05,-0.94,0.08,0.94
2022-11-11 12:50:08.1500,0.1,-0.26,0.11,0.29
2022-11-11 12:50:08.2060,0.04,0.35,-0.18,0.39
2022-11-11 12:50:08.2080,0.06,0.64,-0.26,0.69
2022-11-11 12:50:08.2090,0.16,0.67,-0.3,0.75
2022-11-11 12:50:08.2110,0.05,0.41,-0.31,0.51
2022-11-11 12:50:08.2130,-0.15,0.03,-0.25,0.29
2022-11-11 12:50:08.2140,-0.28,-0.31,-0.07,0.42
2022-11-11 12:50:08.2190,-0.21,-0.37,0.08,0.43
2022-11-11 12:50:08.2290,0.05,-0.18,-0.13,0.22
2022-11-11 12:50:08.2390,0.27,0.09,-0.35,0.45
2022-11-11 12:50:08.2490,0.29,0.34,-0.48,0.65
2022-11-11 12:50:08.3060,0.2,0.41,-0.47,0.65
2022-11-11 12:50:08.3070,0.01,0.33,-0.25,0.41
2022-11-11 12:50:08.3090,-0.32,0.19,0.03,0.37
2022-11-11 12:50:08.3100,-0.5,0.1,0.4,0.64
2022-11-11 12:50:08.3120,-0.49,0.02,0.68,0.83
2022-11-11 12:50:08.3140,-0.48,-0.1,0.42,0.64
2022-11-11 12:50:08.3180,-0.2,-0.12,-0.06,0.24
2022-11-11 12:50:08.3290,0.28,0.01,-0.54,0.6
2022-11-11 12:50:08.3380,0.53,0.08,-0.81,0.97
2022-11-11 12:50:08.3480,0.49,0.11,-0.67,0.83
2022-11-11 12:50:08.4050,0.33,0.12,-0.56,0.66
2022-11-11 12:50:08.4070,0.14,-0.03,-0.41,0.43
2022-11-11 12:50:08.4080,-0.14,-0.11,0.14,0.22
2022-11-11 12:50:08.4240,-0.46,-0.04,0.49,0.67
2022-11-11 12:50:08.4250,-0.68,0.05,0.5,0.84
2022-11-11 12:50:08.4270,-0.69,0.13,0.3,0.76
2022-11-11 12:50:08.4290,-0.41,0.17,-0.01,0.44
2022-11-11 12:50:08.4300,0.08,0.23,-0.31,0.39
2022-11-11 12:50:08.4380,0.44,0.19,-0.66,0.81
2022-11-11 12:50:08.4480,0.54,0.02,-0.87,1.02
2022-11-11 12:50:08.5030,0.38,-0.14,-0.81,0.9
2022-11-11 12:50:08.5050,0.03,-0.2,-0.51,0.54
2022-11-11 12:50:08.5060,-0.46,-0.1,-0.06,0.47
2022-11-11 12:50:08.5240,-0.73,0.13,0.57,0.93
2022-11-11 12:50:08.5250,-0.46,0.38,0.86,1.04
2022-11-11 12:50:08.5270,0.16,0.35,0.43,0.57
2022-11-11 12:50:08.5290,0.7,0.04,-0.13,0.71
2022-11-11 12:50:08.5310,0.92,-0.19,-0.42,1.02
2022-11-11 12:50:08.5370,0.79,-0.24,-0.47,0.95
2022-11-11 12:50:08.5470,0.44,-0.19,-0.46,0.66
2022-11-11 12:50:08.6030,0.04,0.0,-0.33,0.33
2022-11-11 12:50:08.6040,-0.51,0.09,-0.06,0.52
2022-11-11 12:50:08.6050,-1.04,0.14,0.34,1.1
2022-11-11 12:50:08.6070,-1.2,0.18,0.5,1.31
2022-11-11 12:50:08.6090,-0.8,0.18,0.48,0.95
2022-11-11 12:50:08.6110,-0.03,0.03,0.08,0.09
2022-11-11 12:50:08.6160,0.5,-0.2,-0.32,0.62
2022-11-11 12:50:08.6270,0.58,-0.25,-0.43,0.76
2022-11-11 12:50:08.6370,0.31,-0.05,-0.45,0.54
2022-11-11 12:50:08.6470,0.01,0.21,-0.2,0.29
2022-11-11 12:50:08.7030,-0.21,0.33,-0.03,0.39
2022-11-11 12:50:08.7050,-0.28,0.25,0.01,0.37
2022-11-11 12:50:08.7060,-0.22,0.14,0.13,0.29
2022-11-11 12:50:08.7080,-0.23,0.2,0.1,0.32
2022-11-11 12:50:08.7100,-0.2,0.21,-0.01,0.29
2022-11-11 12:50:08.7120,0.01,0.17,0.01,0.17
2022-11-11 12:50:08.7160,0.21,0.09,-0.12,0.25
2022-11-11 12:50:08.7260,0.25,-0.04,-0.25,0.35
2022-11-11 12:50:08.7360,0.17,-0.17,-0.35,0.42
2022-11-11 12:50:08.7460,0.01,-0.31,-0.46,0.55
2022-11-11 12:50:08.8020,-0.15,-0.34,-0.37,0.52
2022-11-11 12:50:08.8040,-0.22,-0.17,-0.19,0.33
2022-11-11 12:50:08.8050,-0.27,0.0,-0.05,0.27
2022-11-11 12:50:08.8070,-0.24,0.05,0.06,0.25
2022-11-11 12:50:08.8090,-0.06,0.05,0.04,0.08
2022-11-11 12:50:08.8100,0.2,0.08,-0.05,0.22
2022-11-11 12:50:08.8150,0.32,0.15,-0.12,0.37
2022-11-11 12:50:08.8250,0.21,0.2,-0.23,0.37
2022-11-11 12:50:08.8350,0.06,0.08,-0.18,0.2
2022-11-11 12:50:08.8450,0.0,-0.03,-0.12,0.12
2022-11-11 12:50:08.9020,-0.01,-0.03,-0.14,0.14
2022-11-11 12:50:08.9030,0.02,0.07,-0.16,0.17
2022-11-11 12:50:08.9050,0.0,0.16,-0.06,0.17
2022-11-11 12:50:08.9060,-0.06,0.19,0.0,0.19
2022-11-11 12:50:08.9080,-0.08,0.13,0.03,0.15
2022-11-11 12:50:08.9100,0.04,0.05,-0.04,0.07
2022-11-11 12:50:08.9150,0.31,-0.01,0.0,0.31
2022-11-11 12:50:08.9250,0.63,0.07,0.01,0.63
2022-11-11 12:50:08.9350,0.43,0.05,-0.07,0.43
2022-11-11 12:50:08.9450,-0.02,-0.17,0.01,0.17
2022-11-11 12:50:09.0010,-0.1,-0.32,0.05,0.33
2022-11-11 12:50:09.0030,0.09,-0.29,0.02,0.3
2022-11-11 12:50:09.0040,0.26,-0.19,-0.07,0.32
2022-11-11 12:50:09.0060,0.21,0.06,-0.04,0.22
2022-11-11 12:50:09.0080,-0.01,0.41,-0.06,0.41
2022-11-11 12:50:09.0100,-0.14,0.55,0.06,0.57
2022-11-11 12:50:09.0140,-0.15,0.43,0.17,0.48
2022-11-11 12:50:09.0240,-0.1,0.11,0.14,0.2
2022-11-11 12:50:09.0340,0.01,-0.25,0.09,0.26
2022-11-11 12:50:09.0440,0.11,-0.46,-0.04,0.47
2022-11-11 12:50:09.1000,0.13,-0.48,-0.04,0.49
2022-11-11 12:50:09.1020,0.11,-0.21,0.01,0.23
2022-11-11 12:50:09.1030,-0.22,0.09,-0.1,0.25
2022-11-11 12:50:09.1050,-0.54,0.29,-0.07,0.61
2022-11-11 12:50:09.1070,-0.56,0.35,0.13,0.67
2022-11-11 12:50:09.1090,-0.33,0.17,0.18,0.41
2022-11-11 12:50:09.1130,-0.02,-0.05,0.0,0.05
2022-11-11 12:50:09.1240,0.11,-0.05,-0.05,0.13
2022-11-11 12:50:09.1330,0.01,0.03,0.09,0.09
2022-11-11 12:50:09.1440,-0.22,0.05,0.1,0.24
2022-11-11 12:50:09.2010,-0.33,-0.02,0.02,0.33
2022-11-11 12:50:09.2030,-0.23,-0.17,0.08,0.29
2022-11-11 12:50:09.2040,0.01,-0.25,0.13,0.28
2022-11-11 12:50:09.2060,-0.02,-0.23,0.02,0.23
2022-11-11 12:50:09.2080,-0.25,-0.04,0.03,0.25
2022-11-11 12:50:09.2100,-0.25,0.25,-0.03,0.35
2022-11-11 12:50:09.2130,-0.04,0.3,-0.11,0.32
2022-11-11 12:50:09.2230,0.11,0.02,-0.12,0.16
2022-11-11 12:50:09.2330,0.06,-0.31,-0.04,0.31
2022-11-11 12:50:09.2430,0.03,-0.22,0.12,0.25
2022-11-11 12:50:09.3000,-0.06,0.16,-0.16,0.23
2022-11-11 12:50:09.3020,-0.07,0.47,-0.4,0.62
2022-11-11 12:50:09.3030,0.2,0.48,-0.39,0.65
2022-11-11 12:50:09.3050,0.54,0.15,-0.21,0.59
2022-11-11 12:50:09.3060,0.55,-0.23,-0.23,0.63
2022-11-11 12:50:09.3080,0.38,-0.31,-0.13,0.5
2022-11-11 12:50:09.3120,0.24,-0.12,-0.05,0.27
2022-11-11 12:50:09.3230,0.14,0.15,0.03,0.2
2022-11-11 12:50:09.3320,0.02,0.26,0.03,0.26
2022-11-11 12:50:09.3420,-0.11,0.27,-0.02,0.29
2022-11-11 12:50:09.3990,-0.2,0.29,-0.05,0.35
2022-11-11 12:50:09.4010,-0.24,0.21,-0.08,0.32
2022-11-11 12:50:09.4020,-0.2,0.07,-0.08,0.22
2022-11-11 12:50:09.4040,-0.24,-0.03,0.02,0.24
2022-11-11 12:50:09.4060,-0.33,-0.01,0.06,0.33
2022-11-11 12:50:09.4080,-0.31,0.03,0.01,0.31
2022-11-11 12:50:09.4110,-0.14,0.08,-0.09,0.18
2022-11-11 12:50:09.4220,0.1,0.1,-0.17,0.22
2022-11-11 12:50:09.4320,0.27,0.07,-0.17,0.32
2022-11-11 12:50:09.4420,0.18,-0.1,-0.17,0.26
2022-11-11 12:50:09.4990,0.02,-0.25,0.01,0.25
2022-11-11 12:50:09.5000,-0.04,-0.16,0.11,0.19
2022-11-11 12:50:09.5020,-0.15,0.06,-0.06,0.17
2022-11-11 12:50:09.5030,-0.28,0.2,-0.13,0.36
2022-11-11 12:50:09.5050,-0.2,0.2,-0.05,0.28
2022-11-11 12:50:09.5070,-0.03,0.06,-0.07,0.09
2022-11-11 12:50:09.5110,0.16,-0.11,-0.04,0.19
2022-11-11 12:50:09.5210,0.16,-0.19,-0.08,0.26
2022-11-11 12:50:09.5310,0.05,-0.19,-0.03,0.19
2022-11-11 12:50:09.5410,-0.02,-0.05,0.15,0.15
2022-11-11 12:50:09.5990,-0.17,0.13,0.24,0.32
2022-11-11 12:50:09.6000,-0.32,0.19,0.16,0.4
2022-11-11 12:50:09.6020,-0.16,0.18,-0.09,0.25
2022-11-11 12:50:09.6030,0.18,0.06,-0.39,0.43
2022-11-11 12:50:09.6050,0.36,-0.13,-0.41,0.56
2022-11-11 12:50:09.6070,0.22,-0.28,-0.07,0.36
2022-11-11 12:50:09.6100,-0.12,-0.17,0.02,0.2
2022-11-11 12:50:09.6210,-0.38,0.09,0.0,0.39
2022-11-11 12:50:09.6300,-0.39,0.32,0.09,0.51
2022-11-11 12:50:09.6410,-0.18,0.36,0.12,0.42
2022-11-11 12:50:09.6980,0.17,0.21,-0.05,0.27
2022-11-11 12:50:09.7000,0.36,-0.03,-0.24,0.43
2022-11-11 12:50:09.7010,0.24,-0.28,-0.2,0.41
2022-11-11 12:50:09.7030,0.2,-0.22,-0.18,0.34
2022-11-11 12:50:09.7050,0.24,0.09,-0.22,0.33
2022-11-11 12:50:09.7070,0.25,0.28,-0.17,0.41
2022-11-11 12:50:09.7100,0.17,0.25,-0.23,0.37
2022-11-11 12:50:09.7200,0.04,0.04,-0.25,0.25
2022-11-11 12:50:09.7300,-0.04,-0.08,-0.16,0.18
2022-11-11 12:50:09.7400,-0.02,0.01,-0.14,0.14
2022-11-11 12:50:09.7980,0.07,0.15,-0.14,0.21
2022-11-11 12:50:09.7990,0.18,0.2,-0.21,0.34
2022-11-11 12:50:09.8000,0.21,0.15,-0.34,0.42
2022-11-11 12:50:09.8020,0.18,0.04,-0.33,0.37
2022-11-11 12:50:09.8040,0.06,0.01,-0.23,0.23
2022-11-11 12:50:09.8050,-0.13,0.07,-0.12,0.19
2022-11-11 12:50:09.8090,-0.29,0.12,-0.07,0.32
2022-11-11 12:50:09.8190,-0.22,0.15,-0.03,0.26
2022-11-11 12:50:09.8290,0.01,0.13,-0.17,0.21
2022-11-11 12:50:09.8390,0.03,0.01,-0.28,0.28
2022-11-11 12:50:09.8970,-0.18,-0.04,-0.04,0.18
2022-11-11 12:50:09.8990,-0.44,0.04,0.06,0.44
2022-11-11 12:50:09.9000,-0.47,0.19,0.05,0.5
2022-11-11 12:50:09.9020,-0.24,0.3,-0.04,0.38
2022-11-11 12:50:09.9030,-0.03,0.25,-0.22,0.33
2022-11-11 12:50:09.9050,0.06,0.04,-0.33,0.33
2022-11-11 12:50:09.9080,-0.02,-0.1,-0.26,0.27
2022-11-11 12:50:09.9190,-0.18,-0.04,-0.05,0.19
2022-11-11 12:50:09.9280,-0.27,0.17,0.1,0.33
2022-11-11 12:50:09.9390,-0.25,0.29,0.06,0.38
2022-11-11 12:50:09.9960,-0.08,0.16,0.0,0.17
2022-11-11 12:50:09.9980,0.15,-0.06,-0.12,0.2
2022-11-11 12:50:09.9990,0.29,-0.21,-0.23,0.42
2022-11-11 12:50:10.0010,0.3,-0.17,-0.3,0.45
2022-11-11 12:50:10.0030,0.09,-0.02,-0.31,0.32
2022-11-11 12:50:10.0040,-0.18,0.06,-0.08,0.2
2022-11-11 12:50:10.0080,-0.3,0.15,0.21,0.39
2022-11-11 12:50:10.0180,-0.31,0.15,0.18,0.38
2022-11-11 12:50:10.0280,-0.11,0.08,0.08,0.15
2022-11-11 12:50:10.0380,0.21,0.03,-0.08,0.22
2022-11-11 12:50:10.0960,0.42,-0.02,-0.21,0.47
2022-11-11 12:50:10.0980,0.46,-0.05,-0.23,0.51
2022-11-11 12:50:10.0990,0.3,-0.05,-0.14,0.33
2022-11-11 12:50:10.1000,0.0,0.03,-0.1,0.1
2022-11-11 12:50:10.1020,-0.24,0.12,-0.04,0.27
2022-11-11 12:50:10.1040,-0.31,0.13,0.07,0.34
2022-11-11 12:50:10.1070,-0.3,0.08,0.04,0.31
2022-11-11 12:50:10.1170,-0.19,0.0,-0.07,0.2
2022-11-11 12:50:10.1270,0.04,-0.05,-0.18,0.19
2022-11-11 12:50:10.1370,0.16,-0.06,-0.18,0.24
2022-11-11 12:50:10.1950,0.14,0.02,-0.13,0.19
2022-11-11 12:50:10.1960,0.0,0.18,-0.06,0.18
2022-11-11 12:50:10.1980,-0.13,0.2,-0.01,0.23
2022-11-11 12:50:10.1990,-0.15,0.07,-0.01,0.16
2022-11-11 12:50:10.2010,0.0,-0.01,-0.03,0.03
2022-11-11 12:50:10.2030,0.19,0.0,-0.14,0.23
2022-11-11 12:50:10.2070,0.25,0.02,-0.3,0.39
2022-11-11 12:50:10.2170,0.13,0.02,-0.2,0.23
2022-11-11 12:50:10.2270,-0.09,0.05,0.02,0.1
2022-11-11 12:50:10.2370,-0.27,0.09,0.06,0.29
2022-11-11 12:50:10.2940,-0.22,0.1,0.02,0.24
2022-11-11 12:50:10.2950,-0.04,0.05,-0.07,0.09
2022-11-11 12:50:10.2970,0.12,-0.02,-0.16,0.2
2022-11-11 12:50:10.2980,0.22,-0.03,-0.06,0.23
2022-11-11 12:50:10.3000,0.14,-0.01,-0.08,0.16
2022-11-11 12:50:10.3190,-0.01,0.0,-0.08,0.08
2022-11-11 12:50:10.3200,-0.1,0.06,-0.01,0.11
2022-11-11 12:50:10.3220,-0.06,0.13,-0.03,0.14
2022-11-11 12:50:10.3260,0.08,0.16,-0.12,0.21
2022-11-11 12:50:10.3360,0.19,0.07,-0.22,0.29
2022-11-11 12:50:10.3930,0.21,-0.03,-0.18,0.27
2022-11-11 12:50:10.3950,0.11,-0.03,-0.09,0.14
2022-11-11 12:50:10.3960,-0.09,-0.01,-0.03,0.09
2022-11-11 12:50:10.3980,-0.11,0.03,0.03,0.11
2022-11-11 12:50:10.3990,0.06,0.07,-0.06,0.11
2022-11-11 12:50:10.4000,0.19,0.07,-0.15,0.25
2022-11-11 12:50:10.4060,0.17,0.09,-0.14,0.23
2022-11-11 12:50:10.4160,0.1,0.09,-0.13,0.18
2022-11-11 12:50:10.4260,0.04,-0.03,-0.19,0.19
2022-11-11 12:50:10.4360,-0.04,-0.14,-0.06,0.15
2022-11-11 12:50:10.4930,-0.09,-0.05,0.01,0.1
2022-11-11 12:50:10.4950,-0.13,0.11,0.0,0.17
2022-11-11 12:50:10.4960,-0.12,0.13,0.01,0.17
2022-11-11 12:50:10.4980,-0.1,0.05,0.01,0.11
2022-11-11 12:50:10.4990,-0.06,-0.03,-0.08,0.1
2022-11-11 12:50:10.5190,0.06,-0.01,-0.14,0.15
2022-11-11 12:50:10.5200,0.12,0.06,-0.22,0.25
2022-11-11 12:50:10.5220,0.02,0.04,-0.18,0.18
2022-11-11 12:50:10.5250,-0.18,0.02,0.03,0.18
2022-11-11 12:50:10.5350,-0.4,0.06,0.11,0.41
2022-11-11 12:50:10.5920,-0.4,0.14,0.05,0.42
2022-11-11 12:50:10.5930,-0.2,0.11,-0.09,0.24
2022-11-11 12:50:10.5950,0.05,0.01,-0.15,0.15
2022-11-11 12:50:10.5960,0.22,-0.07,-0.18,0.29
2022-11-11 12:50:10.5980,0.26,-0.09,-0.24,0.36
2022-11-11 12:50:10.5990,0.25,-0.05,-0.2,0.32
2022-11-11 12:50:10.6190,0.18,0.05,-0.1,0.21
2022-11-11 12:50:10.6200,-0.02,0.13,0.03,0.13
2022-11-11 12:50:10.6240,-0.27,0.15,-0.01,0.3
2022-11-11 12:50:10.6340,-0.27,0.11,-0.03,0.29
2022-11-11 12:50:10.6920,-0.14,0.07,-0.02,0.15
2022-11-11 12:50:10.6930,0.0,0.03,-0.13,0.13
2022-11-11 12:50:10.6940,0.08,0.01,-0.2,0.21
2022-11-11 12:50:10.6960,0.05,0.02,-0.08,0.09
2022-11-11 12:50:10.6980,-0.03,0.02,-0.03,0.04
2022-11-11 12:50:10.6990,-0.11,0.02,-0.02,0.11
2022-11-11 12:50:10.7180,-0.12,0.07,0.02,0.14
2022-11-11 12:50:10.7200,-0.09,0.1,0.03,0.13
2022-11-11 12:50:10.7230,-0.01,0.1,-0.01,0.1
2022-11-11 12:50:10.7340,0.07,0.06,-0.08,0.12
2022-11-11 12:50:10.7910,0.14,-0.02,-0.2,0.24
2022-11-11 12:50:10.7920,0.12,-0.09,-0.29,0.32
2022-11-11 12:50:10.7940,-0.03,-0.06,-0.09,0.11
2022-11-11 12:50:10.7960,-0.28,0.05,0.04,0.28
2022-11-11 12:50:10.7970,-0.43,0.18,0.09,0.47
2022-11-11 12:50:10.7990,-0.4,0.23,0.1,0.47
2022-11-11 12:50:10.8180,-0.22,0.15,0.05,0.27
2022-11-11 12:50:10.8200,0.01,0.03,-0.06,0.06
2022-11-11 12:50:10.8230,0.17,-0.05,-0.1,0.2
2022-11-11 12:50:10.8330,0.18,-0.07,-0.15,0.24
2022-11-11 12:50:10.8900,0.08,-0.08,-0.08,0.13
2022-11-11 12:50:10.8910,0.01,-0.05,-0.06,0.07
2022-11-11 12:50:10.8930,-0.03,-0.01,-0.03,0.04
2022-11-11 12:50:10.8940,-0.1,0.03,0.01,0.1
2022-11-11 12:50:10.8960,-0.16,0.04,0.07,0.17
2022-11-11 12:50:10.8970,-0.2,0.03,0.08,0.21
2022-11-11 12:50:10.9020,-0.28,0.12,0.06,0.31
2022-11-11 12:50:10.9130,-0.35,0.24,0.0,0.42
2022-11-11 12:50:10.9230,-0.26,0.24,-0.01,0.35
2022-11-11 12:50:10.9330,-0.13,0.17,0.01,0.21
2022-11-11 12:50:10.9910,-0.05,0.02,-0.01,0.05
2022-11-11 12:50:10.9920,0.01,-0.07,0.06,0.09
2022-11-11 12:50:10.9930,0.06,-0.06,0.03,0.09
2022-11-11 12:50:10.9950,0.12,-0.03,-0.1,0.15
2022-11-11 12:50:10.9970,0.16,0.01,-0.19,0.24
2022-11-11 12:50:10.9980,0.23,0.04,-0.09,0.25
2022-11-11 12:50:11.0180,0.28,0.09,-0.08,0.3
2022-11-11 12:50:11.0190,0.34,0.05,-0.15,0.37
2022-11-11 12:50:11.0220,0.25,-0.01,-0.05,0.25
2022-11-11 12:50:11.0320,0.23,-0.01,-0.11,0.25
2022-11-11 12:50:11.0890,0.45,-0.04,-0.3,0.54
2022-11-11 12:50:11.0910,0.53,-0.01,-0.22,0.57
2022-11-11 12:50:11.0920,0.26,0.03,-0.24,0.35
2022-11-11 12:50:11.0940,-0.01,0.03,-0.16,0.16
2022-11-11 12:50:11.0960,-0.07,0.07,0.07,0.12
2022-11-11 12:50:11.0970,0.01,0.09,0.05,0.1
2022-11-11 12:50:11.1010,0.12,0.06,-0.11,0.17
2022-11-11 12:50:11.1110,0.07,0.11,-0.1,0.16
2022-11-11 12:50:11.1210,-0.05,0.21,-0.1,0.23
2022-11-11 12:50:11.1310,-0.04,0.24,-0.03,0.24
2022-11-11 12:50:11.1890,-0.05,0.17,0.01,0.17
2022-11-11 12:50:11.1910,-0.12,0.04,-0.05,0.13
2022-11-11 12:50:11.1920,-0.12,-0.1,-0.17,0.23
2022-11-11 12:50:11.1940,-0.06,-0.14,-0.27,0.31
2022-11-11 12:50:11.1960,0.0,-0.08,-0.36,0.36
2022-11-11 12:50:11.1970,0.0,-0.03,-0.31,0.31
2022-11-11 12:50:11.2010,-0.11,-0.01,-0.13,0.17
2022-11-11 12:50:11.2170,-0.28,-0.02,-0.07,0.28
2022-11-11 12:50:11.2210,-0.24,0.02,-0.05,0.24
2022-11-11 12:50:11.2310,-0.01,0.05,-0.03,0.05
2022-11-11 12:50:11.2890,0.21,0.06,-0.16,0.27
2022-11-11 12:50:11.2900,0.37,0.1,-0.28,0.47
2022-11-11 12:50:11.2910,0.39,0.1,-0.39,0.56
2022-11-11 12:50:11.2930,0.37,0.06,-0.31,0.48
2022-11-11 12:50:11.2940,0.21,-0.02,-0.21,0.29
2022-11-11 12:50:11.2970,-0.09,-0.11,-0.15,0.2
2022-11-11 12:50:11.3000,-0.3,-0.17,0.06,0.35
2022-11-11 12:50:11.3170,-0.42,-0.18,0.1,0.46
2022-11-11 12:50:11.3200,-0.44,-0.13,-0.11,0.47
2022-11-11 12:50:11.3300,-0.21,-0.06,-0.12,0.24
2022-11-11 12:50:11.3870,0.01,0.13,-0.18,0.22
2022-11-11 12:50:11.3890,0.03,0.26,-0.37,0.45
2022-11-11 12:50:11.3900,0.01,0.35,-0.29,0.45
2022-11-11 12:50:11.3920,-0.11,0.28,-0.11,0.32
2022-11-11 12:50:11.3930,-0.19,0.11,-0.01,0.21
2022-11-11 12:50:11.3950,-0.2,-0.04,-0.01,0.2
2022-11-11 12:50:11.3990,-0.12,-0.12,-0.03,0.17
2022-11-11 12:50:11.4090,-0.02,-0.11,-0.19,0.22
2022-11-11 12:50:11.4200,0.05,-0.03,-0.27,0.27
2022-11-11 12:50:11.4290,0.12,0.12,-0.16,0.23
2022-11-11 12:50:11.4870,0.07,0.26,-0.02,0.27
2022-11-11 12:50:11.4890,-0.13,0.28,-0.13,0.33
2022-11-11 12:50:11.4900,-0.25,0.17,-0.2,0.36
2022-11-11 12:50:11.4910,-0.07,0.02,-0.09,0.11
2022-11-11 12:50:11.4930,0.2,-0.02,-0.11,0.22
2022-11-11 12:50:11.4950,0.36,0.01,-0.26,0.44
2022-11-11 12:50:11.4990,0.34,0.03,-0.42,0.54
2022-11-11 12:50:11.5090,0.3,-0.04,-0.28,0.41
2022-11-11 12:50:11.5190,0.28,-0.15,0.02,0.31
2022-11-11 12:50:11.5290,0.11,-0.13,0.08,0.18
2022-11-11 12:50:11.5870,-0.13,-0.04,-0.14,0.19
2022-11-11 12:50:11.5890,-0.2,0.13,-0.22,0.32
2022-11-11 12:50:11.5900,-0.06,0.17,-0.18,0.25
2022-11-11 12:50:11.5920,0.14,0.01,-0.12,0.18
2022-11-11 12:50:11.5930,0.23,-0.09,-0.08,0.25
2022-11-11 12:50:11.5960,0.16,-0.14,-0.32,0.38
2022-11-11 12:50:11.5980,0.13,-0.12,-0.38,0.41
2022-11-11 12:50:11.6080,0.2,0.01,-0.13,0.23
2022-11-11 12:50:11.6180,0.21,0.08,-0.08,0.23
2022-11-11 12:50:11.6280,0.08,0.08,-0.08,0.13
2022-11-11 12:50:11.6860,-0.01,-0.07,-0.02,0.07
2022-11-11 12:50:11.6880,0.03,-0.22,0.12,0.25
2022-11-11 12:50:11.6890,0.15,-0.23,0.12,0.29
2022-11-11 12:50:11.6910,0.25,-0.06,0.05,0.26
2022-11-11 12:50:11.6930,0.27,0.18,0.05,0.32
2022-11-11 12:50:11.6940,0.18,0.32,-0.09,0.37
2022-11-11 12:50:11.6970,-0.05,0.33,-0.3,0.44
2022-11-11 12:50:11.7080,-0.28,0.16,-0.13,0.34
2022-11-11 12:50:11.7180,-0.43,-0.05,0.16,0.46
2022-11-11 12:50:11.7280,-0.63,-0.07,-0.01,0.63
2022-11-11 12:50:11.7840,-0.55,0.01,-0.18,0.57
2022-11-11 12:50:11.7860,-0.17,0.1,0.04,0.2
2022-11-11 12:50:11.7870,0.09,0.21,0.11,0.25
2022-11-11 12:50:11.7890,0.08,0.25,-0.02,0.26
2022-11-11 12:50:11.7910,-0.17,0.21,-0.06,0.27
2022-11-11 12:50:11.7930,-0.43,0.19,-0.1,0.48
2022-11-11 12:50:11.7970,-0.39,0.09,-0.13,0.42
2022-11-11 12:50:11.8070,-0.09,-0.04,-0.01,0.09
2022-11-11 12:50:11.8170,0.32,-0.08,-0.08,0.33
2022-11-11 12:50:11.8270,0.75,-0.16,-0.46,0.89
2022-11-11 12:50:11.8840,0.94,-0.22,-0.66,1.16
2022-11-11 12:50:11.8860,0.82,-0.13,-0.4,0.92
2022-11-11 12:50:11.8870,0.48,0.11,0.05,0.49
2022-11-11 12:50:11.8890,0.19,0.39,0.17,0.46
2022-11-11 12:50:11.8910,-0.27,0.54,0.04,0.6
2022-11-11 12:50:11.8920,-0.83,0.36,-0.07,0.9
2022-11-11 12:50:11.8960,-0.88,-0.07,-0.12,0.89
2022-11-11 12:50:11.9070,-0.48,-0.31,-0.04,0.57
2022-11-11 12:50:11.9160,-0.08,-0.24,0.07,0.26
2022-11-11 12:50:11.9260,0.04,-0.05,0.08,0.1
2022-11-11 12:50:11.9850,0.11,0.15,0.15,0.23
2022-11-11 12:50:11.9870,0.26,0.21,0.22,0.4
2022-11-11 12:50:11.9880,0.39,0.16,0.13,0.44
2022-11-11 12:50:11.9900,0.59,0.02,0.01,0.59
2022-11-11 12:50:11.9920,0.66,-0.09,0.0,0.66
2022-11-11 12:50:11.9930,0.26,-0.01,-0.05,0.26
2022-11-11 12:50:11.9960,-0.24,0.17,-0.19,0.35
2022-11-11 12:50:12.0060,-0.44,0.14,-0.1,0.47
2022-11-11 12:50:12.0160,-0.41,-0.05,0.1,0.42
2022-11-11 12:50:12.0260,-0.27,-0.1,0.19,0.34
2022-11-11 12:50:12.0840,0.06,-0.07,0.15,0.17
2022-11-11 12:50:12.0850,0.44,-0.04,-0.11,0.45
2022-11-11 12:50:12.0870,0.59,0.03,-0.4,0.71
2022-11-11 12:50:12.0890,0.34,0.16,-0.28,0.46
2022-11-11 12:50:12.0900,0.08,0.26,-0.09,0.28
2022-11-11 12:50:12.0920,0.07,0.14,-0.01,0.15
2022-11-11 12:50:12.0950,0.24,-0.1,0.02,0.26
2022-11-11 12:50:12.1050,0.33,-0.14,0.05,0.36
2022-11-11 12:50:12.1150,0.16,0.04,0.07,0.17
2022-11-11 12:50:12.1250,-0.2,0.18,0.09,0.28
2022-11-11 12:50:12.1830,-0.49,0.14,0.13,0.52
2022-11-11 12:50:12.1850,-0.57,-0.08,0.15,0.59
2022-11-11 12:50:12.1860,-0.43,-0.23,0.1,0.49
2022-11-11 12:50:12.2000,-0.23,-0.19,0.1,0.31
2022-11-11 12:50:12.2010,-0.13,-0.04,0.18,0.22
2022-11-11 12:50:12.2020,-0.04,0.08,0.25,0.26
2022-11-11 12:50:12.2050,0.12,0.18,0.06,0.22
2022-11-11 12:50:12.2060,0.12,0.17,-0.11,0.23
2022-11-11 12:50:12.2140,0.01,0.14,-0.18,0.22
2022-11-11 12:50:12.2250,-0.07,0.16,-0.15,0.23
2022-11-11 12:50:12.2810,-0.11,0.11,-0.14,0.2
2022-11-11 12:50:12.2830,-0.07,-0.09,-0.22,0.24
2022-11-11 12:50:12.2840,0.02,-0.26,-0.25,0.36
2022-11-11 12:50:12.3000,0.1,-0.2,-0.14,0.26
2022-11-11 12:50:12.3010,0.1,0.03,-0.04,0.11
2022-11-11 12:50:12.3020,0.08,0.23,-0.03,0.24
2022-11-11 12:50:12.3040,0.16,0.24,-0.05,0.29
2022-11-11 12:50:12.3060,0.19,0.13,-0.09,0.24
2022-11-11 12:50:12.3140,0.05,0.03,-0.12,0.13
2022-11-11 12:50:12.3240,-0.06,-0.05,-0.12,0.14
2022-11-11 12:50:12.3800,-0.11,-0.08,-0.12,0.18
2022-11-11 12:50:12.3820,-0.14,-0.09,-0.11,0.19
2022-11-11 12:50:12.3830,-0.15,-0.06,-0.03,0.16
2022-11-11 12:50:12.3850,-0.25,0.1,0.09,0.28
2022-11-11 12:50:12.3870,-0.31,0.29,0.09,0.43
2022-11-11 12:50:12.3880,-0.3,0.32,0.07,0.44
2022-11-11 12:50:12.3930,-0.3,0.2,0.02,0.36
2022-11-11 12:50:12.4030,-0.16,0.01,-0.09,0.18
2022-11-11 12:50:12.4130,0.09,-0.21,-0.06,0.23
2022-11-11 12:50:12.4230,0.25,-0.33,-0.06,0.41
2022-11-11 12:50:12.4810,0.26,-0.22,-0.19,0.39
2022-11-11 12:50:12.4830,0.21,0.04,-0.23,0.31
2022-11-11 12:50:12.4840,0.13,0.27,-0.14,0.33
2022-11-11 12:50:12.4860,0.03,0.29,-0.06,0.29
2022-11-11 12:50:12.4870,-0.09,0.1,0.02,0.13
2022-11-11 12:50:12.4890,-0.15,-0.1,0.16,0.24
2022-11-11 12:50:12.4930,-0.08,-0.16,0.22,0.28
2022-11-11 12:50:12.5030,0.01,0.02,-0.01,0.02
2022-11-11 12:50:12.5130,-0.09,0.2,-0.2,0.29
2022-11-11 12:50:12.5230,-0.21,0.23,-0.19,0.36
2022-11-11 12:50:12.5800,-0.16,0.11,-0.08,0.21
2022-11-11 12:50:12.5820,-0.09,-0.04,-0.02,0.1
2022-11-11 12:50:12.5830,-0.02,-0.11,0.04,0.11
2022-11-11 12:50:12.5850,0.05,-0.11,0.06,0.13
2022-11-11 12:50:12.5860,0.03,-0.06,-0.02,0.06
2022-11-11 12:50:12.5880,-0.02,0.01,-0.08,0.08
2022-11-11 12:50:12.5920,-0.02,0.03,-0.13,0.13
2022-11-11 12:50:12.6020,0.09,0.0,-0.05,0.1
2022-11-11 12:50:12.6120,0.22,-0.05,-0.01,0.22
2022-11-11 12:50:12.6220,0.21,0.0,-0.15,0.25
2022-11-11 12:50:12.6800,0.18,0.13,-0.28,0.35
2022-11-11 12:50:12.6820,0.17,0.19,-0.24,0.35
2022-11-11 12:50:12.6830,0.11,0.11,-0.19,0.24
2022-11-11 12:50:12.6840,-0.03,-0.03,-0.13,0.13
2022-11-11 12:50:12.6860,-0.13,-0.06,-0.08,0.16
2022-11-11 12:50:12.6880,-0.05,0.0,-0.08,0.09
2022-11-11 12:50:12.6910,0.11,0.1,-0.14,0.2
2022-11-11 12:50:12.7020,0.21,0.16,-0.21,0.33
2022-11-11 12:50:12.7110,0.14,0.11,-0.16,0.23
2022-11-11 12:50:12.7220,0.0,0.0,-0.09,0.09
2022-11-11 12:50:12.7790,-0.09,-0.06,-0.04,0.11
2022-11-11 12:50:12.7810,-0.1,-0.03,-0.01,0.1
2022-11-11 12:50:12.7820,-0.05,0.03,-0.06,0.08
2022-11-11 12:50:12.7840,0.01,0.04,-0.11,0.11
2022-11-11 12:50:12.7860,0.09,0.01,-0.06,0.1
2022-11-11 12:50:12.7880,0.16,-0.01,-0.03,0.16
2022-11-11 12:50:12.7910,0.13,0.02,-0.12,0.17
2022-11-11 12:50:12.8010,-0.01,0.08,-0.14,0.16
2022-11-11 12:50:12.8110,-0.09,0.11,-0.14,0.19
2022-11-11 12:50:12.8210,-0.04,0.08,-0.09,0.12
2022-11-11 12:50:12.8780,0.02,0.03,-0.09,0.09
2022-11-11 12:50:12.8800,0.04,-0.03,-0.04,0.06
2022-11-11 12:50:12.8810,0.03,-0.01,-0.02,0.03
2022-11-11 12:50:12.8830,-0.03,0.06,-0.02,0.06
2022-11-11 12:50:12.8840,-0.01,0.07,-0.01,0.07
2022-11-11 12:50:12.8860,0.08,0.03,-0.07,0.11
2022-11-11 12:50:12.8900,0.14,0.01,-0.1,0.17
2022-11-11 12:50:12.9000,0.17,-0.01,-0.04,0.17
2022-11-11 12:50:12.9100,0.17,-0.03,-0.03,0.17
2022-11-11 12:50:12.9200,0.16,0.02,-0.07,0.17
2022-11-11 12:50:12.9780,0.15,0.09,-0.11,0.2
2022-11-11 12:50:12.9800,0.07,0.12,-0.14,0.19
2022-11-11 12:50:12.9810,-0.01,0.08,-0.04,0.09
2022-11-11 12:50:12.9830,-0.09,-0.05,0.06,0.11
2022-11-11 12:50:12.9850,-0.15,-0.13,0.09,0.21
2022-11-11 12:50:12.9870,-0.17,-0.11,-0.03,0.2
2022-11-11 12:50:12.9900,-0.15,-0.02,-0.13,0.19
2022-11-11 12:50:13.0000,-0.15,0.06,-0.2,0.25
2022-11-11 12:50:13.0100,-0.18,0.09,-0.17,0.26
2022-11-11 12:50:13.0200,-0.2,0.05,0.02,0.2
2022-11-11 12:50:13.0770,-0.1,-0.01,0.04,0.1
2022-11-11 12:50:13.0790,-0.02,0.04,-0.16,0.16
2022-11-11 12:50:13.0800,-0.07,0.17,-0.21,0.27
2022-11-11 12:50:13.0820,-0.1,0.2,-0.19,0.29
2022-11-11 12:50:13.0830,-0.18,0.1,-0.14,0.24
2022-11-11 12:50:13.0850,-0.27,0.01,-0.1,0.28
2022-11-11 12:50:13.0890,-0.28,0.0,-0.03,0.28
2022-11-11 12:50:13.0990,-0.24,0.05,0.01,0.24
2022-11-11 12:50:13.1090,-0.15,0.1,-0.04,0.18
2022-11-11 12:50:13.1190,-0.06,0.11,-0.04,0.13
2022-11-11 12:50:13.1770,-0.02,0.09,-0.01,0.09
2022-11-11 12:50:13.1780,-0.1,0.05,-0.01,0.11
2022-11-11 12:50:13.1800,-0.18,0.05,-0.06,0.19
2022-11-11 12:50:13.1810,-0.12,0.02,-0.12,0.17
2022-11-11 12:50:13.1830,0.06,-0.02,-0.18,0.19
2022-11-11 12:50:13.1850,0.2,-0.05,-0.19,0.28
2022-11-11 12:50:13.1880,0.25,-0.02,-0.17,0.3
2022-11-11 12:50:13.1990,0.2,0.01,-0.13,0.23
2022-11-11 12:50:13.2080,0.13,0.08,-0.16,0.22
2022-11-11 12:50:13.2190,0.04,0.09,-0.11,0.14
2022-11-11 12:50:13.2750,-0.01,0.03,-0.06,0.06
2022-11-11 12:50:13.2770,-0.03,-0.02,-0.06,0.06
2022-11-11 12:50:13.2780,-0.04,0.0,-0.08,0.08
2022-11-11 12:50:13.2790,-0.03,0.06,-0.14,0.15
2022-11-11 12:50:13.2810,0.04,0.08,-0.12,0.14
2022-11-11 12:50:13.2830,0.06,0.09,-0.1,0.14
2022-11-11 12:50:13.2880,0.02,0.09,-0.16,0.18
2022-11-11 12:50:13.2980,0.06,0.04,-0.11,0.13
2022-11-11 12:50:13.3080,0.08,0.01,-0.07,0.1
2022-11-11 12:50:13.3180,0.07,-0.03,-0.12,0.14
2022-11-11 12:50:13.3750,0.08,-0.03,-0.1,0.13
2022-11-11 12:50:13.3760,0.17,0.02,-0.14,0.22
2022-11-11 12:50:13.3780,0.19,0.09,-0.22,0.3
2022-11-11 12:50:13.3800,0.06,0.11,-0.21,0.24
2022-11-11 12:50:13.3810,-0.11,0.06,-0.11,0.16
2022-11-11 12:50:13.3830,-0.18,0.01,-0.03,0.18
2022-11-11 12:50:13.3870,-0.14,-0.03,0.0,0.14
2022-11-11 12:50:13.3970,-0.03,-0.02,-0.04,0.05
2022-11-11 12:50:13.4070,0.06,0.02,-0.09,0.11
2022-11-11 12:50:13.4170,0.07,0.09,-0.12,0.16
2022-11-11 12:50:13.4740,-0.02,0.12,-0.13,0.17
2022-11-11 12:50:13.4750,-0.04,0.07,-0.12,0.14
2022-11-11 12:50:13.4760,0.01,0.02,-0.08,0.08
2022-11-11 12:50:13.4780,0.0,0.02,-0.03,0.03
2022-11-11 12:50:13.4800,-0.08,0.06,-0.01,0.1
2022-11-11 12:50:13.4810,-0.15,0.08,-0.01,0.17
2022-11-11 12:50:13.4870,-0.12,0.06,-0.03,0.13
2022-11-11 12:50:13.4960,-0.08,0.04,-0.03,0.09
2022-11-11 12:50:13.5070,-0.07,0.03,-0.1,0.12
2022-11-11 12:50:13.5170,-0.06,0.06,-0.11,0.13
2022-11-11 12:50:13.5730,0.0,0.08,-0.11,0.13
2022-11-11 12:50:13.5750,0.05,0.07,-0.12,0.14
2022-11-11 12:50:13.5760,0.07,0.01,-0.11,0.13
2022-11-11 12:50:13.5780,0.1,-0.01,-0.07,0.12
2022-11-11 12:50:13.5790,0.05,0.0,-0.04,0.06
2022-11-11 12:50:13.5810,-0.09,0.04,-0.04,0.1
2022-11-11 12:50:13.5860,-0.14,0.05,-0.06,0.16
2022-11-11 12:50:13.5960,-0.06,0.01,-0.1,0.11
2022-11-11 12:50:13.6060,0.05,0.02,-0.11,0.12
2022-11-11 12:50:13.6160,0.1,0.06,-0.17,0.2
2022-11-11 12:50:13.6720,0.0,0.09,-0.18,0.2
2022-11-11 12:50:13.6740,-0.11,0.05,-0.08,0.14
2022-11-11 12:50:13.6750,-0.12,-0.01,0.08,0.14
2022-11-11 12:50:13.6760,-0.07,-0.05,0.15,0.17
2022-11-11 12:50:13.6970,0.01,-0.05,0.11,0.12
2022-11-11 12:50:13.6980,0.1,0.06,0.0,0.11
2022-11-11 12:50:13.7000,0.04,0.16,-0.07,0.17
2022-11-11 12:50:13.7020,-0.02,0.14,-0.09,0.16
2022-11-11 12:50:13.7050,-0.02,0.02,-0.04,0.04
2022-11-11 12:50:13.7150,-0.01,-0.07,0.01,0.07
2022-11-11 12:50:13.7710,0.05,-0.07,-0.04,0.09
2022-11-11 12:50:13.7720,0.03,0.0,-0.12,0.12
2022-11-11 12:50:13.7730,-0.08,0.09,-0.11,0.16
2022-11-11 12:50:13.7760,-0.17,0.12,-0.06,0.21
2022-11-11 12:50:13.7770,-0.17,0.07,-0.03,0.18
2022-11-11 12:50:13.7960,-0.08,0.0,-0.01,0.08
2022-11-11 12:50:13.7970,0.05,-0.06,-0.01,0.07
2022-11-11 12:50:13.7990,0.15,-0.06,-0.08,0.18
2022-11-11 12:50:13.8050,0.2,-0.02,-0.18,0.26
2022-11-11 12:50:13.8150,0.16,0.01,-0.12,0.2
2022-11-11 12:50:13.8710,0.05,0.02,-0.08,0.09
2022-11-11 12:50:13.8730,-0.09,0.03,-0.03,0.09
2022-11-11 12:50:13.8740,-0.11,0.06,0.01,0.12
2022-11-11 12:50:13.8750,-0.08,0.1,-0.01,0.12
2022-11-11 12:50:13.8770,-0.07,0.09,-0.11,0.15
2022-11-11 12:50:13.8790,-0.04,0.05,-0.11,0.12
2022-11-11 12:50:13.8840,0.01,0.01,-0.08,0.08
2022-11-11 12:50:13.8940,0.02,-0.01,-0.13,0.13
2022-11-11 12:50:13.9050,0.07,0.01,-0.13,0.14
2022-11-11 12:50:13.9140,0.09,0.03,-0.11,0.14
2022-11-11 12:50:13.9700,0.04,0.05,-0.11,0.12
2022-11-11 12:50:13.9710,-0.01,0.04,-0.12,0.12
2022-11-11 12:50:13.9720,-0.04,0.03,-0.1,0.11
2022-11-11 12:50:13.9740,-0.02,0.01,-0.08,0.08
2022-11-11 12:50:13.9750,0.03,-0.01,-0.07,0.07
2022-11-11 12:50:13.9770,0.07,0.01,-0.05,0.08
2022-11-11 12:50:13.9840,0.03,0.06,-0.1,0.12
2022-11-11 12:50:13.9940,-0.03,0.09,-0.05,0.1
2022-11-11 12:50:14.0040,-0.05,0.09,-0.07,0.12
2022-11-11 12:50:14.0140,-0.06,0.06,-0.1,0.13
2022-11-11 12:50:14.0690,-0.07,0.05,-0.1,0.13
2022-11-11 12:50:14.0710,-0.06,0.04,-0.05,0.08
2022-11-11 12:50:14.0720,-0.03,0.01,-0.06,0.06
2022-11-11 12:50:14.0730,0.0,0.0,-0.14,0.14
2022-11-11 12:50:14.0750,0.01,0.01,-0.12,0.12
2022-11-11 12:50:14.0770,0.0,0.02,-0.09,0.09
2022-11-11 12:50:14.0830,0.02,0.02,-0.06,0.06
2022-11-11 12:50:14.0930,0.03,0.03,-0.08,0.09
2022-11-11 12:50:14.1030,0.02,0.03,-0.11,0.11
2022-11-11 12:50:14.1130,0.03,0.04,-0.08,0.09
2022-11-11 12:50:14.1690,0.04,0.04,-0.09,0.1
2022-11-11 12:50:14.1700,0.0,0.04,-0.14,0.14
2022-11-11 12:50:14.1720,-0.07,0.06,-0.09,0.12
2022-11-11 12:50:14.1740,-0.11,0.06,-0.03,0.12
2022-11-11 12:50:14.1750,-0.09,0.03,-0.02,0.09
2022-11-11 12:50:14.1760,-0.02,0.01,-0.02,0.03
2022-11-11 12:50:14.1950,0.03,0.0,-0.07,0.07
2022-11-11 12:50:14.1970,0.05,0.02,-0.11,0.12
2022-11-11 12:50:14.2020,0.05,0.06,-0.11,0.13
2022-11-11 12:50:14.2120,0.04,0.06,-0.11,0.13
2022-11-11 12:50:14.2670,-0.01,0.04,-0.08,0.09
2022-11-11 12:50:14.2690,-0.03,0.0,0.0,0.03
2022-11-11 12:50:14.2700,-0.03,0.01,-0.01,0.03
2022-11-11 12:50:14.2720,-0.01,0.04,-0.07,0.08
2022-11-11 12:50:14.2730,-0.02,0.08,-0.05,0.09
2022-11-11 12:50:14.2750,0.0,0.09,-0.06,0.1
2022-11-11 12:50:14.2820,0.02,0.03,-0.06,0.06
2022-11-11 12:50:14.2950,0.07,-0.05,-0.07,0.11
2022-11-11 12:50:14.3020,0.1,-0.08,-0.13,0.18
2022-11-11 12:50:14.3120,0.03,-0.03,-0.18,0.18
2022-11-11 12:50:14.3670,-0.05,0.05,-0.14,0.15
2022-11-11 12:50:14.3680,-0.09,0.12,-0.08,0.17
2022-11-11 12:50:14.3700,-0.12,0.11,-0.03,0.16
2022-11-11 12:50:14.3720,-0.12,0.09,-0.01,0.15
2022-11-11 12:50:14.3730,-0.08,0.07,0.02,0.1
2022-11-11 12:50:14.3740,0.01,0.02,-0.02,0.03
2022-11-11 12:50:14.3810,0.09,0.02,-0.06,0.11
2022-11-11 12:50:14.3910,0.09,0.04,-0.07,0.12
2022-11-11 12:50:14.4010,0.02,0.02,-0.05,0.05
2022-11-11 12:50:14.4110,-0.05,-0.03,-0.04,0.07
2022-11-11 12:50:14.4660,-0.06,-0.07,-0.09,0.12
2022-11-11 12:50:14.4680,-0.03,-0.06,-0.11,0.12
2022-11-11 12:50:14.4690,-0.02,-0.02,-0.09,0.09
2022-11-11 12:50:14.4710,-0.04,0.04,-0.05,0.07
2022-11-11 12:50:14.4720,-0.02,0.09,0.0,0.09
2022-11-11 12:50:14.4740,-0.05,0.14,-0.01,0.14
2022-11-11 12:50:14.4810,-0.14,0.17,-0.04,0.22
2022-11-11 12:50:14.4950,-0.13,0.11,0.01,0.17
2022-11-11 12:50:14.5010,-0.05,-0.01,-0.02,0.05
2022-11-11 12:50:14.5110,0.05,-0.12,-0.05,0.13
2022-11-11 12:50:14.5660,0.09,-0.14,-0.02,0.16
2022-11-11 12:50:14.5670,0.05,-0.08,-0.01,0.09
2022-11-11 12:50:14.5680,-0.03,0.01,-0.06,0.06
2022-11-11 12:50:14.5700,-0.02,0.03,-0.06,0.06
2022-11-11 12:50:14.5720,-0.01,0.05,-0.04,0.06
2022-11-11 12:50:14.5730,-0.04,0.02,0.0,0.04
2022-11-11 12:50:14.5800,-0.08,-0.01,0.03,0.08
2022-11-11 12:50:14.5900,-0.05,0.03,-0.02,0.06
2022-11-11 12:50:14.6000,0.02,0.1,-0.11,0.15
2022-11-11 12:50:14.6100,0.03,0.11,-0.15,0.18
2022-11-11 12:50:14.6660,-0.02,0.1,-0.18,0.2
2022-11-11 12:50:14.6670,-0.1,0.11,-0.21,0.25
2022-11-11 12:50:14.6680,-0.17,0.12,-0.16,0.26
2022-11-11 12:50:14.6710,-0.18,0.09,-0.08,0.21
2022-11-11 12:50:14.6720,-0.14,-0.02,0.0,0.14
2022-11-11 12:50:14.6740,-0.11,-0.06,0.0,0.12
2022-11-11 12:50:14.6790,-0.05,0.0,-0.05,0.07
2022-11-11 12:50:14.6950,0.04,0.08,-0.13,0.15
2022-11-11 12:50:14.6990,0.09,0.11,-0.22,0.26
2022-11-11 12:50:14.7090,0.1,0.09,-0.18,0.22
2022-11-11 12:50:14.7650,0.07,0.02,-0.1,0.12
2022-11-11 12:50:14.7660,0.02,-0.05,-0.18,0.18
2022-11-11 12:50:14.7670,0.03,-0.1,-0.15,0.18
2022-11-11 12:50:14.7690,0.05,-0.11,-0.04,0.12
2022-11-11 12:50:14.7710,-0.01,-0.07,0.0,0.07
2022-11-11 12:50:14.7720,-0.1,-0.03,0.0,0.1
2022-11-11 12:50:14.7790,-0.09,0.01,-0.04,0.09
2022-11-11 12:50:14.7890,-0.02,0.03,-0.1,0.1
2022-11-11 12:50:14.7990,0.14,0.08,-0.03,0.16
2022-11-11 12:50:14.8090,0.34,0.2,-0.1,0.4
2022-11-11 12:50:14.8650,0.12,0.31,-0.32,0.46
2022-11-11 12:50:14.8660,-0.33,0.29,-0.31,0.53
2022-11-11 12:50:14.8670,-0.51,0.14,-0.09,0.53
2022-11-11 12:50:14.8690,-0.46,0.0,0.06,0.46
2022-11-11 12:50:14.8710,-0.28,-0.05,0.04,0.28
2022-11-11 12:50:14.8720,-0.08,-0.05,-0.05,0.1
2022-11-11 12:50:14.8780,0.14,-0.03,-0.17,0.22
2022-11-11 12:50:14.8880,0.33,0.02,-0.25,0.41
2022-11-11 12:50:14.8980,0.43,0.14,-0.3,0.54
2022-11-11 12:50:14.9080,0.46,0.18,-0.32,0.58
2022-11-11 12:50:14.9640,0.45,0.11,-0.26,0.53
2022-11-11 12:50:14.9650,0.41,-0.04,-0.18,0.44
2022-11-11 12:50:14.9660,0.35,-0.14,-0.21,0.43
2022-11-11 12:50:14.9680,0.2,-0.11,-0.3,0.37
2022-11-11 12:50:14.9700,0.02,0.07,-0.22,0.23
2022-11-11 12:50:14.9720,-0.06,0.23,-0.14,0.27
2022-11-11 12:50:14.9780,-0.04,0.27,-0.12,0.29
2022-11-11 12:50:14.9880,0.08,0.17,-0.14,0.23
2022-11-11 12:50:14.9980,0.19,0.02,-0.21,0.28
2022-11-11 12:50:15.0070,0.31,-0.15,-0.25,0.42
2022-11-11 12:50:15.0630,0.37,-0.2,-0.33,0.53
2022-11-11 12:50:15.0640,0.37,-0.11,-0.33,0.5
2022-11-11 12:50:15.0650,0.41,0.05,-0.27,0.49
2022-11-11 12:50:15.0670,0.47,0.18,-0.23,0.55
2022-11-11 12:50:15.0690,0.62,0.22,-0.18,0.68
2022-11-11 12:50:15.0700,0.9,0.15,-0.04,0.91
2022-11-11 12:50:15.0770,1.14,-0.02,-0.04,1.14
2022-11-11 12:50:15.0870,1.31,-0.2,-0.13,1.33
2022-11-11 12:50:15.0970,1.55,-0.27,-0.22,1.58
2022-11-11 12:50:15.1070,1.78,-0.26,-0.35,1.83
2022-11-11 12:50:15.1620,2.07,-0.15,-0.41,2.11
2022-11-11 12:50:15.1640,2.27,-0.03,-0.47,2.31
2022-11-11 12:50:15.1650,2.25,0.17,-0.59,2.33
2022-11-11 12:50:15.1670,2.12,0.47,-0.67,2.27
2022-11-11 12:50:15.1690,1.96,0.78,-0.56,2.18
2022-11-11 12:50:15.1700,1.78,1.15,-0.46,2.16
2022-11-11 12:50:15.1760,1.65,1.66,-0.6,2.41
2022-11-11 12:50:15.1870,1.68,2.38,-0.95,3.06
2022-11-11 12:50:15.1970,1.85,3.22,-1.14,3.88
2022-11-11 12:50:15.2060,2.08,4.03,-1.37,4.73
2022-11-11 12:50:15.2610,2.32,4.59,-1.79,5.44
2022-11-11 12:50:15.2620,2.68,4.92,-1.92,5.92
2022-11-11 12:50:15.2630,3.34,4.99,-1.35,6.15
2022-11-11 12:50:15.2650,4.14,4.94,-0.63,6.47
2022-11-11 12:50:15.2670,4.68,4.97,-0.52,6.84
2022-11-11 12:50:15.2690,5.21,5.09,-0.71,7.31
2022-11-11 12:50:15.2760,5.87,5.08,-0.45,7.77
2022-11-11 12:50:15.2860,6.4,4.9,-0.13,8.06
2022-11-11 12:50:15.2960,6.71,4.62,-0.15,8.14
2022-11-11 12:50:15.3060,6.8,4.21,0.03,7.99
2022-11-11 12:50:15.3560,6.79,3.58,0.52,7.69
2022-11-11 12:50:15.3580,6.57,2.8,0.86,7.19
2022-11-11 12:50:15.3590,6.22,2.05,1.03,6.62
2022-11-11 12:50:15.3610,5.92,1.63,1.08,6.23
2022-11-11 12:50:15.3620,5.68,1.62,1.17,6.02
2022-11-11 12:50:15.3650,5.51,1.64,1.33,5.9
2022-11-11 12:50:15.3750,5.31,1.31,1.31,5.62
2022-11-11 12:50:15.3850,4.94,0.74,1.27,5.15
2022-11-11 12:50:15.3950,4.47,0.18,1.28,4.65
2022-11-11 12:50:15.4050,3.89,-0.15,1.25,4.08
2022-11-11 12:50:15.4560,3.26,-0.04,0.97,3.4
2022-11-11 12:50:15.4570,2.73,0.39,0.67,2.83
2022-11-11 12:50:15.4580,2.22,0.69,0.49,2.37
2022-11-11 12:50:15.4600,1.63,0.55,0.37,1.75
2022-11-11 12:50:15.4620,0.93,0.0,0.38,1.0
2022-11-11 12:50:15.4640,0.09,-0.68,0.48,0.83
2022-11-11 12:50:15.4750,-0.8,-1.3,0.52,1.61
2022-11-11 12:50:15.4850,-1.65,-1.84,0.56,2.53
2022-11-11 12:50:15.4950,-2.42,-2.27,0.59,3.37
2022-11-11 12:50:15.5050,-3.04,-2.53,0.5,3.98
2022-11-11 12:50:15.5560,-3.49,-2.6,0.42,4.37
2022-11-11 12:50:15.5570,-3.7,-2.56,0.44,4.52
2022-11-11 12:50:15.5580,-3.85,-2.57,0.41,4.64
2022-11-11 12:50:15.5600,-4.02,-2.78,0.35,4.9
2022-11-11 12:50:15.5620,-4.18,-3.21,0.19,5.27
2022-11-11 12:50:15.5640,-4.4,-3.64,-0.11,5.71
2022-11-11 12:50:15.5740,-4.59,-3.9,-0.49,6.04
2022-11-11 12:50:15.5840,-4.91,-4.05,-1.04,6.44
2022-11-11 12:50:15.5940,-5.3,-3.72,-1.6,6.66
2022-11-11 12:50:15.6040,-5.28,-2.78,-1.77,6.22
2022-11-11 12:50:15.6530,-4.89,-1.59,-1.72,5.42
2022-11-11 12:50:15.6550,-4.6,-0.47,-1.58,4.88
2022-11-11 12:50:15.6560,-4.79,0.42,-1.31,4.98
2022-11-11 12:50:15.6580,-5.43,0.57,-1.24,5.59
2022-11-11 12:50:15.6590,-6.4,-0.1,-1.65,6.61
2022-11-11 12:50:15.6630,-7.23,-0.64,-1.96,7.51
2022-11-11 12:50:15.6730,-7.29,-0.4,-1.63,7.48
2022-11-11 12:50:15.6840,-6.75,0.16,-1.27,6.87
2022-11-11 12:50:15.6930,-6.3,0.55,-1.49,6.49
2022-11-11 12:50:15.7030,-5.77,0.79,-2.09,6.18
2022-11-11 12:50:15.7530,-4.9,0.57,-2.32,5.45
2022-11-11 12:50:15.7540,-4.19,-0.17,-2.26,4.76
2022-11-11 12:50:15.7550,-4.12,-1.05,-2.14,4.75
2022-11-11 12:50:15.7570,-4.61,-1.59,-2.06,5.29
2022-11-11 12:50:15.7590,-5.22,-1.28,-2.01,5.73
2022-11-11 12:50:15.7630,-5.06,-0.28,-1.39,5.25
2022-11-11 12:50:15.7730,-2.73,1.24,-0.61,3.05
2022-11-11 12:50:15.7830,2.25,2.77,1.82,4.0
2022-11-11 12:50:15.7930,8.7,9.42,8.88,15.59
2022-11-11 12:50:15.8030,10.84,15.0,7.79,20.07
2022-11-11 12:50:15.8440,6.52,12.7,-1.25,14.33
2022-11-11 12:50:15.8450,1.24,3.73,-4.44,5.92
2022-11-11 12:50:15.8460,-0.95,-2.4,-4.11,4.85
2022-11-11 12:50:15.8480,-1.71,-4.73,-3.73,6.26
2022-11-11 12:50:15.8520,-2.72,-5.51,-2.98,6.82
2022-11-11 12:50:15.8620,-3.94,-4.97,-2.55,6.83
2022-11-11 12:50:15.8720,-5.29,-3.09,-3.08,6.85
2022-11-11 12:50:15.8820,-6.59,-0.47,-3.31,7.38
2022-11-11 12:50:15.8920,-7.33,2.05,-1.35,7.73
2022-11-11 12:50:15.9020,-6.68,3.72,1.34,7.76
2022-11-11 12:50:15.9430,-4.74,4.01,3.43,7.09
2022-11-11 12:50:15.9440,-2.95,2.96,3.35,5.35
2022-11-11 12:50:15.9460,-2.25,1.66,1.68,3.26
2022-11-11 12:50:15.9470,-1.97,0.78,0.61,2.2
2022-11-11 12:50:15.9510,-1.33,0.23,0.09,1.35
2022-11-11 12:50:15.9620,-0.37,0.06,-0.44,0.57
2022-11-11 12:50:15.9720,0.68,-0.16,-1.04,1.25
2022-11-11 12:50:15.9820,1.63,-0.56,-2.1,2.71
2022-11-11 12:50:15.9920,2.17,-0.87,-2.82,3.66
2022-11-11 12:50:16.0010,2.47,-0.7,-2.65,3.68
2022-11-11 12:50:16.0430,2.14,-0.18,-1.46,2.59
2022-11-11 12:50:16.0440,0.74,0.2,-0.19,0.78
2022-11-11 12:50:16.0460,-0.72,0.0,1.03,1.25
2022-11-11 12:50:16.0600,-1.56,-0.08,1.8,2.38
2022-11-11 12:50:16.0610,-1.48,0.12,1.75,2.29
2022-11-11 12:50:16.0630,-0.36,0.46,0.82,1.0
2022-11-11 12:50:16.0710,1.09,0.53,-0.34,1.25
2022-11-11 12:50:16.0810,2.02,0.35,-1.3,2.42
2022-11-11 12:50:16.0910,2.04,0.15,-2.01,2.86
2022-11-11 12:50:16.1010,1.28,0.17,-1.61,2.06
2022-11-11 12:50:16.1410,0.15,0.25,-0.11,0.31
2022-11-11 12:50:16.1420,-0.77,0.3,0.69,1.07
2022-11-11 12:50:16.1440,-0.81,0.24,0.85,1.19
2022-11-11 12:50:16.1600,0.03,0.28,0.8,0.84
2022-11-11 12:50:16.1610,0.98,0.51,0.12,1.11
2022-11-11 12:50:16.1630,1.36,0.87,-1.02,1.9
2022-11-11 12:50:16.1700,1.25,1.33,-1.72,2.5
2022-11-11 12:50:16.1800,0.83,2.06,-1.84,2.88
2022-11-11 12:50:16.1900,0.4,2.89,-1.34,3.21
2022-11-11 12:50:16.2000,0.27,4.13,-0.11,4.14
2022-11-11 12:50:16.2410,0.44,5.2,1.28,5.37
2022-11-11 12:50:16.2420,1.04,5.79,1.29,6.02
2022-11-11 12:50:16.2430,2.52,5.49,0.41,6.05
2022-11-11 12:50:16.2590,4.19,5.16,-0.31,6.65
2022-11-11 12:50:16.2610,5.42,5.17,0.04,7.49
2022-11-11 12:50:16.2620,5.95,5.6,-0.2,8.17
2022-11-11 12:50:16.2700,6.23,6.41,-0.43,8.94
2022-11-11 12:50:16.2800,6.58,6.78,-0.79,9.48
2022-11-11 12:50:16.2900,7.28,6.82,-1.54,10.09
2022-11-11 12:50:16.3000,8.13,6.72,-2.24,10.78
2022-11-11 12:50:16.3410,9.08,7.0,-2.1,11.65
2022-11-11 12:50:16.3420,10.25,8.08,-1.75,13.16
2022-11-11 12:50:16.3430,11.51,9.48,-2.49,15.11
2022-11-11 12:50:16.3590,12.5,10.21,-1.92,16.25
2022-11-11 12:50:16.3610,12.04,9.51,-2.67,15.57
2022-11-11 12:50:16.3630,10.58,9.65,-7.04,15.95
2022-11-11 12:50:16.3690,9.67,12.29,-9.72,18.41
2022-11-11 12:50:16.3790,8.87,15.25,-7.63,19.22
2022-11-11 12:50:16.3900,7.43,16.2,-4.56,18.39
2022-11-11 12:50:16.3990,5.77,14.21,-3.44,15.71
2022-11-11 12:50:16.4390,4.61,12.06,-2.67,13.18
2022-11-11 12:50:16.4410,3.99,10.35,-1.26,11.16
2022-11-11 12:50:16.4420,4.69,8.42,-0.49,9.65
2022-11-11 12:50:16.4440,6.17,6.47,-0.19,8.94
2022-11-11 12:50:16.4490,6.8,5.07,0.71,8.51
2022-11-11 12:50:16.4580,7.12,3.62,1.75,8.17
2022-11-11 12:50:16.4690,7.04,1.56,2.11,7.51
2022-11-11 12:50:16.4790,5.95,-0.66,2.13,6.35
2022-11-11 12:50:16.4880,4.85,-2.92,1.82,5.94
2022-11-11 12:50:16.4990,4.93,-5.54,1.34,7.53
2022-11-11 12:50:16.5400,6.18,-7.84,1.32,10.06
2022-11-11 12:50:16.5420,7.62,-8.74,1.41,11.68
2022-11-11 12:50:16.5430,8.74,-8.23,0.38,12.01
2022-11-11 12:50:16.5450,9.48,-6.8,0.03,11.66
2022-11-11 12:50:16.5480,9.58,-5.29,0.48,10.95
2022-11-11 12:50:16.5580,8.84,-4.39,0.66,9.89
2022-11-11 12:50:16.5680,7.18,-3.82,0.72,8.16
2022-11-11 12:50:16.5780,5.38,-3.55,0.64,6.47
2022-11-11 12:50:16.5880,3.28,-3.45,0.66,4.8
2022-11-11 12:50:16.5980,0.91,-2.95,1.53,3.44
2022-11-11 12:50:16.6390,-1.61,-2.17,3.36,4.31
2022-11-11 12:50:16.6410,-3.89,-1.46,4.98,6.48
2022-11-11 12:50:16.6420,-6.07,-0.64,4.64,7.66
2022-11-11 12:50:16.6440,-8.77,0.77,2.47,9.14
2022-11-11 12:50:16.6470,-10.82,1.66,1.09,11.0
2022-11-11 12:50:16.6580,-11.2,1.51,1.46,11.39
2022-11-11 12:50:16.6670,-10.35,0.99,1.17,10.46
2022-11-11 12:50:16.6780,-8.64,0.2,-0.9,8.68
2022-11-11 12:50:16.6870,-7.14,-0.5,-4.18,8.28
2022-11-11 12:50:16.6970,-6.58,-0.3,-7.46,9.95
2022-11-11 12:50:16.7390,-6.58,0.65,-8.64,10.87
2022-11-11 12:50:16.7400,-6.88,2.18,-7.44,10.36
2022-11-11 12:50:16.7410,-7.8,4.33,-6.17,10.84
2022-11-11 12:50:16.7430,-9.57,7.0,-4.76,12.77
2022-11-11 12:50:16.7470,-12.75,10.34,-3.17,16.71
2022-11-11 12:50:16.7570,-17.78,14.1,-0.9,22.71
2022-11-11 12:50:16.7670,-23.19,14.45,0.3,27.32
2022-11-11 12:50:16.7770,-24.89,7.81,-1.5,26.12
2022-11-11 12:50:16.7870,-21.61,0.25,-3.92,21.96
2022-11-11 12:50:16.7970,-18.08,-3.34,-5.11,19.08
2022-11-11 12:50:16.8340,-15.05,-5.08,-5.56,16.82
2022-11-11 12:50:16.8360,-11.12,-4.67,-5.16,13.11
2022-11-11 12:50:16.8370,-6.24,-2.99,-4.1,8.04
2022-11-11 12:50:16.8390,-0.63,-0.95,-1.81,2.13
2022-11-11 12:50:16.8460,9.66,10.12,13.07,19.14
2022-11-11 12:50:16.8560,18.39,20.75,21.71,35.21
2022-11-11 12:50:16.8670,9.67,18.83,3.08,21.39
2022-11-11 12:50:16.8760,-1.08,6.65,-1.47,6.89
2022-11-11 12:50:16.8860,-3.05,1.47,-6.07,6.95
2022-11-11 12:50:16.8960,-3.73,-1.98,-6.68,7.9
2022-11-11 12:50:16.9330,-4.7,-4.28,-5.66,8.51
2022-11-11 12:50:16.9340,-6.03,-4.91,-4.66,9.06
2022-11-11 12:50:16.9360,-7.7,-4.49,-4.42,9.94
2022-11-11 12:50:16.9370,-10.31,-2.13,-5.04,11.67
2022-11-11 12:50:16.9570,-11.99,0.71,-2.99,12.37
2022-11-11 12:50:16.9590,-10.09,2.39,1.88,10.53
2022-11-11 12:50:16.9660,-5.72,3.38,5.06,8.35
2022-11-11 12:50:16.9760,-2.46,3.5,5.4,6.88
2022-11-11 12:50:16.9850,-1.15,2.78,3.13,4.34
2022-11-11 12:50:16.9960,-0.55,1.78,0.39,1.9
2022-11-11 12:50:17.0320,0.06,0.33,-2.62,2.64
2022-11-11 12:50:17.0340,0.89,-0.83,-5.06,5.2
2022-11-11 12:50:17.0350,2.06,-1.32,-5.4,5.92
2022-11-11 12:50:17.0360,3.43,-1.38,-3.97,5.42
2022-11-11 12:50:17.0570,4.76,-0.93,-0.92,4.93
2022-11-11 12:50:17.0590,5.47,-0.32,1.84,5.78
2022-11-11 12:50:17.0650,3.45,0.43,1.5,3.78
2022-11-11 12:50:17.0750,0.13,0.97,-0.56,1.12
2022-11-11 12:50:17.0850,-1.72,0.79,0.04,1.89
2022-11-11 12:50:17.0950,-2.33,0.28,1.5,2.78
2022-11-11 12:50:17.1320,-1.73,0.04,1.46,2.26
2022-11-11 12:50:17.1340,-0.76,0.19,0.59,0.98
2022-11-11 12:50:17.1350,-0.18,0.69,-0.63,0.95
2022-11-11 12:50:17.1360,0.24,1.34,-1.9,2.33
2022-11-11 12:50:17.1570,0.77,1.6,-2.1,2.75
2022-11-11 12:50:17.1580,1.36,1.53,-1.32,2.43
2022-11-11 12:50:17.1640,1.68,1.25,-0.99,2.31
2022-11-11 12:50:17.1740,1.49,1.33,-1.44,2.46
2022-11-11 12:50:17.1840,1.07,1.85,-0.77,2.27
2022-11-11 12:50:17.1940,0.55,2.97,0.47,3.05
2022-11-11 12:50:17.2310,0.31,3.84,2.17,4.42
2022-11-11 12:50:17.2330,0.68,4.01,1.96,4.51
2022-11-11 12:50:17.2340,1.6,4.28,1.35,4.76
2022-11-11 12:50:17.2350,2.76,4.57,1.13,5.45
2022-11-11 12:50:17.2440,3.9,4.88,1.16,6.35
2022-11-11 12:50:17.2540,4.81,4.96,0.99,6.97
2022-11-11 12:50:17.2640,5.38,4.88,0.52,7.28
2022-11-11 12:50:17.2740,5.9,4.74,-0.15,7.56
2022-11-11 12:50:17.2840,6.41,4.84,-0.83,8.07
2022-11-11 12:50:17.2940,6.91,5.17,-1.65,8.78
2022-11-11 12:50:17.3310,7.49,5.7,-2.12,9.64
2022-11-11 12:50:17.3320,8.12,6.7,-1.48,10.63
2022-11-11 12:50:17.3340,8.69,8.67,-0.48,12.28
2022-11-11 12:50:17.3360,8.7,10.82,0.03,13.88
2022-11-11 12:50:17.3430,9.25,12.79,0.6,15.79
2022-11-11 12:50:17.3560,10.14,11.75,-2.09,15.66
2022-11-11 12:50:17.3630,9.58,9.7,-7.89,15.75
2022-11-11 12:50:17.3730,9.36,11.83,-13.47,20.22
2022-11-11 12:50:17.3830,9.47,14.66,-12.47,21.44
2022-11-11 12:50:17.3930,8.13,15.57,-6.96,18.89
2022-11-11 12:50:17.4300,5.99,14.17,-3.95,15.88
2022-11-11 12:50:17.4310,4.84,12.6,-3.32,13.89
2022-11-11 12:50:17.4330,4.28,11.65,-0.8,12.43
2022-11-11 12:50:17.4340,4.86,10.3,1.62,11.5
2022-11-11 12:50:17.4420,6.61,8.11,2.43,10.74
2022-11-11 12:50:17.4520,7.49,5.96,2.69,9.94
2022-11-11 12:50:17.4630,7.31,4.02,2.35,8.66
2022-11-11 12:50:17.4720,7.04,1.53,1.63,7.38
2022-11-11 12:50:17.4820,6.39,-0.54,0.72,6.45
2022-11-11 12:50:17.4920,5.87,-2.25,-0.09,6.28
2022-11-11 12:50:17.5300,6.31,-4.46,-0.24,7.73
2022-11-11 12:50:17.5320,7.38,-6.85,-0.89,10.1
2022-11-11 12:50:17.5330,8.49,-8.49,-1.26,12.07
2022-11-11 12:50:17.5350,9.48,-9.28,-1.59,13.36
2022-11-11 12:50:17.5420,10.5,-8.59,-1.42,13.64
2022-11-11 12:50:17.5560,10.89,-6.11,-0.55,12.49
2022-11-11 12:50:17.5620,10.03,-3.54,-0.19,10.63
2022-11-11 12:50:17.5720,8.48,-1.82,0.22,8.67
2022-11-11 12:50:17.5820,7.01,-1.3,0.73,7.16
2022-11-11 12:50:17.5920,4.9,-1.2,0.85,5.11
2022-11-11 12:50:17.6290,2.26,-1.18,0.7,2.64
2022-11-11 12:50:17.6300,-0.42,-1.15,0.94,1.54
2022-11-11 12:50:17.6320,-3.03,-1.02,1.27,3.44
2022-11-11 12:50:17.6330,-5.63,-0.16,2.01,5.98
2022-11-11 12:50:17.6410,-8.7,1.66,2.97,9.34
2022-11-11 12:50:17.6510,-11.6,3.38,3.62,12.61
2022-11-11 12:50:17.6610,-13.21,4.07,2.58,14.06
2022-11-11 12:50:17.6710,-12.2,3.1,0.51,12.59
2022-11-11 12:50:17.6810,-8.97,1.45,-1.12,9.15
2022-11-11 12:50:17.6910,-6.69,0.84,-2.82,7.3
2022-11-11 12:50:17.7300,-5.79,0.27,-4.7,7.46
2022-11-11 12:50:17.7310,-5.79,0.71,-5.74,8.18
2022-11-11 12:50:17.7320,-6.62,2.73,-5.51,9.03
2022-11-11 12:50:17.7340,-8.47,5.81,-4.67,11.28
2022-11-11 12:50:17.7410,-11.5,9.41,-3.45,15.25
2022-11-11 12:50:17.7510,-15.91,13.51,-0.98,20.89
2022-11-11 12:50:17.7610,-21.95,17.23,1.6,27.95
2022-11-11 12:50:17.7710,-26.92,14.24,1.36,30.48
2022-11-11 12:50:17.7810,-26.05,4.15,-1.06,26.39
2022-11-11 12:50:17.7900,-23.11,-2.57,-3.43,23.5
2022-11-11 12:50:17.8240,-20.8,-6.04,-5.78,22.41
2022-11-11 12:50:17.8250,-16.88,-8.29,-7.43,20.22
2022-11-11 12:50:17.8270,-9.93,-7.39,-8.98,15.29
2022-11-11 12:50:17.8300,-2.15,-3.11,-0.94,3.89
2022-11-11 12:50:17.8400,5.67,4.57,19.37,20.69
2022-11-11 12:50:17.8500,9.43,16.01,21.81,28.65
2022-11-11 12:50:17.8610,2.1,14.22,1.78,14.48
2022-11-11 12:50:17.8700,-2.04,5.68,-5.63,8.25
2022-11-11 12:50:17.8800,-3.92,8.45,-12.74,15.78
2022-11-11 12:50:17.8900,-6.93,8.15,-7.98,13.34
2022-11-11 12:50:17.9270,-8.02,3.13,-3.48,9.28
2022-11-11 12:50:17.9280,-8.54,1.03,-4.46,9.68
2022-11-11 12:50:17.9300,-8.85,0.2,-4.88,10.1
2022-11-11 12:50:17.9310,-8.37,-0.49,-3.05,8.92
2022-11-11 12:50:17.9400,-6.67,-0.92,0.23,6.73
2022-11-11 12:50:17.9500,-4.63,-0.61,3.88,6.07
2022-11-11 12:50:17.9600,-2.53,0.82,6.5,7.02
2022-11-11 12:50:17.9690,-1.26,2.41,6.61,7.14
2022-11-11 12:50:17.9790,-1.55,2.27,3.12,4.15
2022-11-11 12:50:17.9890,-1.73,1.14,-0.64,2.16
2022-11-11 12:50:18.0250,-0.82,0.23,-3.51,3.61
2022-11-11 12:50:18.0270,0.58,-0.19,-4.83,4.86
2022-11-11 12:50:18.0280,2.04,-0.67,-4.33,4.83
2022-11-11 12:50:18.0300,3.41,-1.41,-3.14,4.84
2022-11-11 12:50:18.0390,4.72,-1.87,-1.52,5.29
2022-11-11 12:50:18.0490,5.68,-1.49,0.07,5.87
2022-11-11 12:50:18.0590,5.42,-0.14,0.65,5.46
2022-11-11 12:50:18.0690,3.18,1.03,-0.22,3.34
2022-11-11 12:50:18.0790,0.91,0.76,-0.49,1.28
2022-11-11 12:50:18.0890,-0.62,0.58,0.35,0.91
2022-11-11 12:50:18.1240,-1.38,0.8,0.49,1.66
2022-11-11 12:50:18.1260,-1.54,0.9,-0.53,1.86
2022-11-11 12:50:18.1270,-0.94,0.76,-1.8,2.16
2022-11-11 12:50:18.1290,0.52,0.64,-1.97,2.13
2022-11-11 12:50:18.1380,1.94,0.81,-0.82,2.25
2022-11-11 12:50:18.1480,2.59,0.84,-0.78,2.83
2022-11-11 12:50:18.1590,1.96,0.91,-0.87,2.32
2022-11-11 12:50:18.1680,0.59,1.61,-0.78,1.88
2022-11-11 12:50:18.1780,-0.77,3.18,1.21,3.48
2022-11-11 12:50:18.1880,-1.09,4.27,2.3,4.97
2022-11-11 12:50:18.2240,-0.13,4.79,2.14,5.24
2022-11-11 12:50:18.2250,1.68,4.34,2.31,5.19
2022-11-11 12:50:18.2260,3.12,3.87,1.53,5.2
2022-11-11 12:50:18.2280,3.61,4.1,0.51,5.48
2022-11-11 12:50:18.2380,3.52,4.71,0.66,5.91
2022-11-11 12:50:18.2480,3.39,5.42,1.73,6.62
2022-11-11 12:50:18.2580,3.57,5.87,2.57,7.33
2022-11-11 12:50:18.2680,4.07,6.15,2.58,7.81
2022-11-11 12:50:18.2780,4.81,6.4,2.49,8.38
2022-11-11 12:50:18.2880,5.63,6.85,2.9,9.32
2022-11-11 12:50:18.3240,6.43,8.28,2.7,10.82
2022-11-11 12:50:18.3250,7.61,10.71,1.4,13.21
2022-11-11 12:50:18.3260,9.3,13.08,0.72,16.06
2022-11-11 12:50:18.3280,10.81,14.1,-1.34,17.81
2022-11-11 12:50:18.3380,11.54,13.63,-5.12,18.57
2022-11-11 12:50:18.3480,11.28,13.66,-10.29,20.48
2022-11-11 12:50:18.3580,10.93,14.09,-11.86,21.41
2022-11-11 12:50:18.3670,8.73,13.54,-8.03,18.0
2022-11-11 12:50:18.3770,5.78,13.57,-5.19,15.63
2022-11-11 12:50:18.3870,4.66,12.65,-3.71,13.98
2022-11-11 12:50:18.4210,4.31,10.47,-0.81,11.35
2022-11-11 12:50:18.4220,4.33,8.39,2.16,9.68
2022-11-11 12:50:18.4240,5.23,6.4,2.9,8.75
2022-11-11 12:50:18.4260,6.78,4.53,1.75,8.33
2022-11-11 12:50:18.4370,7.54,2.94,1.05,8.16
2022-11-11 12:50:18.4470,7.65,1.43,0.81,7.82
2022-11-11 12:50:18.4570,7.68,-0.18,0.55,7.7
2022-11-11 12:50:18.4660,7.5,-1.86,0.28,7.73
2022-11-11 12:50:18.4760,7.31,-3.38,-1.1,8.12
2022-11-11 12:50:18.4860,7.4,-4.98,-1.82,9.1
2022-11-11 12:50:18.5220,7.88,-6.51,-2.31,10.47
2022-11-11 12:50:18.5230,8.63,-7.47,-1.59,11.52
2022-11-11 12:50:18.5240,9.24,-8.08,-2.49,12.52
2022-11-11 12:50:18.5260,9.49,-7.53,-3.97,12.74
2022-11-11 12:50:18.5360,9.35,-6.13,-3.73,11.78
2022-11-11 12:50:18.5460,9.11,-4.53,-2.2,10.4
2022-11-11 12:50:18.5560,8.46,-2.88,-0.64,8.95
2022-11-11 12:50:18.5660,6.06,-1.12,-0.47,6.18
2022-11-11 12:50:18.5760,2.93,-0.15,-1.37,3.23
2022-11-11 12:50:18.5860,0.45,0.5,-1.1,1.28
2022-11-11 12:50:18.6220,-2.66,1.59,1.48,3.43
2022-11-11 12:50:18.6230,-6.88,3.26,4.74,8.96
2022-11-11 12:50:18.6250,-11.28,4.73,6.35,13.78
2022-11-11 12:50:18.6270,-13.71,5.05,4.91,15.41
2022-11-11 12:50:18.6350,-12.7,3.74,2.49,13.47
2022-11-11 12:50:18.6450,-8.95,1.25,1.44,9.15
2022-11-11 12:50:18.6550,-6.48,-0.28,-0.63,6.51
2022-11-11 12:50:18.6650,-5.7,-1.04,-3.71,6.88
2022-11-11 12:50:18.6750,-5.84,-1.24,-6.67,8.95
2022-11-11 12:50:18.6850,-6.36,-0.66,-7.33,9.72
2022-11-11 12:50:18.7210,-7.46,0.67,-5.68,9.4
2022-11-11 12:50:18.7220,-9.72,2.31,-4.3,10.87
2022-11-11 12:50:18.7240,-12.76,4.18,-3.64,13.91
2022-11-11 12:50:18.7260,-16.33,7.22,-2.76,18.06
2022-11-11 12:50:18.7350,-21.1,11.84,-1.31,24.23
2022-11-11 12:50:18.7450,-25.76,14.82,-0.45,29.72
2022-11-11 12:50:18.7550,-27.39,10.98,-1.56,29.55
2022-11-11 12:50:18.7650,-23.76,1.68,-4.04,24.15
2022-11-11 12:50:18.7750,-20.07,-3.56,-5.11,21.01
2022-11-11 12:50:18.7850,-16.78,-6.18,-5.09,18.59
2022-11-11 12:50:18.8210,-11.84,-6.83,-4.35,14.34
2022-11-11 12:50:18.8220,-4.2,-5.6,2.13,7.31
2022-11-11 12:50:18.8230,0.37,-2.27,12.06,12.27
2022-11-11 12:50:18.8250,1.08,3.3,12.66,13.12
2022-11-11 12:50:18.8340,-0.35,5.03,5.77,7.66
2022-11-11 12:50:18.8440,-2.19,6.0,-0.65,6.42
2022-11-11 12:50:18.8540,-3.46,10.06,-8.28,13.48
2022-11-11 12:50:18.8640,-4.32,12.26,-8.69,15.63
2022-11-11 12:50:18.8740,-4.19,8.7,-4.36,10.59
2022-11-11 12:50:18.8840,-3.42,4.83,-5.42,8.02
2022-11-11 12:50:18.9210,-2.83,2.0,-6.14,7.05
2022-11-11 12:50:18.9220,-2.54,-0.09,-4.29,4.98
2022-11-11 12:50:18.9230,-2.5,-1.09,-1.58,3.15
2022-11-11 12:50:18.9250,-2.63,-1.32,1.59,3.34
2022-11-11 12:50:18.9330,-2.74,-0.92,3.57,4.59
2022-11-11 12:50:18.9440,-2.66,0.24,4.15,4.93
2022-11-11 12:50:18.9530,-2.44,1.22,3.28,4.26
2022-11-11 12:50:18.9630,-2.07,1.46,1.42,2.9
2022-11-11 12:50:18.9730,-1.28,1.22,-0.56,1.85
2022-11-11 12:50:18.9830,-0.15,0.72,-2.25,2.36
2022-11-11 12:50:19.0200,1.01,0.07,-3.26,3.41
2022-11-11 12:50:19.0220,1.86,-0.65,-3.02,3.6
2022-11-11 12:50:19.0230,2.43,-1.38,-1.79,3.31
2022-11-11 12:50:19.0250,2.59,-1.47,-0.39,3.0
2022-11-11 12:50:19.0330,2.01,-0.49,0.92,2.26
2022-11-11 12:50:19.0430,1.01,0.65,1.34,1.79
2022-11-11 12:50:19.0530,0.18,0.58,1.18,1.32
2022-11-11 12:50:19.0630,-0.24,0.0,0.44,0.5
2022-11-11 12:50:19.0730,-0.26,0.01,-0.54,0.59
2022-11-11 12:50:19.0830,-0.06,0.49,-1.12,1.22
2022-11-11 12:50:19.1200,0.29,0.89,-1.23,1.54
2022-11-11 12:50:19.1210,0.55,0.94,-1.11,1.55
2022-11-11 12:50:19.1230,0.75,0.79,-0.96,1.45
2022-11-11 12:50:19.1250,0.86,0.6,-0.66,1.23
2022-11-11 12:50:19.1320,0.82,0.55,-0.08,0.99
2022-11-11 12:50:19.1420,0.54,0.74,0.34,0.97
2022-11-11 12:50:19.1520,0.04,0.93,0.14,0.94
2022-11-11 12:50:19.1620,-0.32,1.03,0.53,1.2
2022-11-11 12:50:19.1720,-0.41,1.44,0.42,1.55
2022-11-11 12:50:19.1820,-0.33,2.37,0.16,2.39
2022-11-11 12:50:19.2180,-0.1,3.47,1.06,3.62
2022-11-11 12:50:19.2200,0.3,4.21,1.14,4.37
2022-11-11 12:50:19.2210,0.97,4.3,0.92,4.5
2022-11-11 12:50:19.2230,1.86,3.81,0.57,4.27
2022-11-11 12:50:19.2320,2.75,3.45,0.52,4.44
2022-11-11 12:50:19.2420,3.33,3.24,0.57,4.68
2022-11-11 12:50:19.2520,3.48,3.17,0.15,4.7
2022-11-11 12:50:19.2620,3.49,3.26,-0.03,4.77
2022-11-11 12:50:19.2720,3.59,3.96,0.37,5.35
2022-11-11 12:50:19.2810,3.95,5.69,-0.15,6.92
2022-11-11 12:50:19.3170,4.79,7.8,-0.39,9.16
2022-11-11 12:50:19.3180,6.0,9.88,-0.02,11.55
2022-11-11 12:50:19.3200,7.44,11.41,0.16,13.62
2022-11-11 12:50:19.3220,8.63,11.7,-0.23,14.54
2022-11-11 12:50:19.3310,8.84,10.52,-1.9,13.87
2022-11-11 12:50:19.3410,7.57,9.67,-4.66,13.13
2022-11-11 12:50:19.3510,5.6,10.58,-6.21,13.48
2022-11-11 12:50:19.3610,4.51,11.27,-4.91,13.09
2022-11-11 12:50:19.3710,4.72,10.51,-1.24,11.58
2022-11-11 12:50:19.3810,6.36,8.61,2.25,10.93
2022-11-11 12:50:19.4180,8.25,7.27,3.13,11.43
2022-11-11 12:50:19.4190,8.88,6.63,1.33,11.16
2022-11-11 12:50:19.4200,8.9,5.77,-0.71,10.63
2022-11-11 12:50:19.4220,9.05,4.47,-1.57,10.21
2022-11-11 12:50:19.4300,9.23,2.66,-1.32,9.69
2022-11-11 12:50:19.4410,9.22,0.79,-0.71,9.28
2022-11-11 12:50:19.4500,8.97,-0.71,-0.1,8.99
2022-11-11 12:50:19.4600,8.57,-1.98,0.5,8.8
2022-11-11 12:50:19.4700,8.18,-3.1,1.03,8.8
2022-11-11 12:50:19.4810,7.9,-4.12,1.37,9.01
2022-11-11 12:50:19.5160,7.79,-4.79,1.19,9.22
2022-11-11 12:50:19.5180,7.84,-4.59,0.28,9.08
2022-11-11 12:50:19.5190,7.9,-3.07,-0.31,8.48
2022-11-11 12:50:19.5210,7.66,-1.36,-0.42,7.79
2022-11-11 12:50:19.5300,7.24,-0.4,-0.85,7.3
2022-11-11 12:50:19.5400,6.61,0.03,-1.79,6.84
2022-11-11 12:50:19.5500,5.71,0.24,-2.9,6.4
2022-11-11 12:50:19.5600,4.65,0.4,-3.59,5.88
2022-11-11 12:50:19.5700,3.59,0.57,-3.74,5.21
2022-11-11 12:50:19.5800,2.58,0.78,-3.58,4.48
2022-11-11 12:50:19.6160,1.5,1.19,-3.41,3.91
2022-11-11 12:50:19.6170,0.16,2.0,-3.39,3.93
2022-11-11 12:50:19.6190,-1.57,3.18,-3.6,5.05
2022-11-11 12:50:19.6210,-3.72,4.49,-4.02,7.08
2022-11-11 12:50:19.6290,-6.11,5.74,-3.42,9.05
2022-11-11 12:50:19.6390,-8.35,6.59,-2.21,10.86
2022-11-11 12:50:19.6490,-9.75,6.29,-1.98,11.77
2022-11-11 12:50:19.6590,-9.17,4.64,-2.43,10.56
2022-11-11 12:50:19.6690,-7.03,2.14,-3.2,8.01
2022-11-11 12:50:19.6790,-5.8,0.58,-5.43,7.96
2022-11-11 12:50:19.7160,-5.43,-0.02,-8.34,9.95
2022-11-11 12:50:19.7170,-5.53,0.46,-10.77,12.11
2022-11-11 12:50:19.7190,-6.46,1.98,-11.58,13.4
2022-11-11 12:50:19.7210,-7.96,3.81,-11.28,14.32
2022-11-11 12:50:19.7290,-10.11,5.23,-10.63,15.57
2022-11-11 12:50:19.7390,-12.48,5.9,-9.72,16.88
2022-11-11 12:50:19.7480,-14.99,5.75,-9.09,18.44
2022-11-11 12:50:19.7590,-18.16,4.68,-8.87,20.74
2022-11-11 12:50:19.7690,-21.36,2.67,-7.89,22.92
2022-11-11 12:50:19.7790,-22.91,-0.23,-5.61,23.58
2022-11-11 12:50:19.8140,-21.55,-3.43,-2.92,22.01
2022-11-11 12:50:19.8160,-18.39,-5.4,0.05,19.16
2022-11-11 12:50:19.8180,-16.0,-5.02,1.76,16.86
2022-11-11 12:50:19.8190,-13.17,-2.54,0.84,13.43
2022-11-11 12:50:19.8280,-8.25,-1.12,2.75,8.76
2022-11-11 12:50:19.8380,-5.37,-0.73,3.84,6.64
2022-11-11 12:50:19.8480,-4.8,1.48,1.75,5.31
2022-11-11 12:50:19.8580,-4.89,4.89,-2.66,7.4
2022-11-11 12:50:19.8680,-5.13,8.66,-5.48,11.46
2022-11-11 12:50:19.8780,-4.4,10.04,-4.39,11.8
2022-11-11 12:50:19.9150,-2.61,8.64,-1.09,9.09
2022-11-11 12:50:19.9160,-1.11,7.14,0.14,7.22
2022-11-11 12:50:19.9180,-0.11,5.51,-0.58,5.54
2022-11-11 12:50:19.9200,0.59,3.45,-1.31,3.73
2022-11-11 12:50:19.9270,1.2,1.28,-1.03,2.03
2022-11-11 12:50:19.9380,1.69,-0.35,-0.47,1.78
2022-11-11 12:50:19.9470,1.7,-0.99,-1.36,2.39
2022-11-11 12:50:19.9570,1.44,-0.9,-2.11,2.7
2022-11-11 12:50:19.9670,1.15,-0.53,-2.09,2.44
2022-11-11 12:50:19.9770,0.83,-0.05,-1.36,1.59
2022-11-11 12:50:20.0150,0.31,0.92,-0.38,1.04
2022-11-11 12:50:20.0170,-0.33,2.34,0.07,2.36
2022-11-11 12:50:20.0180,-0.81,3.13,0.44,3.26
2022-11-11 12:50:20.0360,-1.08,3.21,0.72,3.46
2022-11-11 12:50:20.0370,-1.09,2.36,0.76,2.7
2022-11-11 12:50:20.0390,-0.98,0.91,0.15,1.34
2022-11-11 12:50:20.0460,-0.66,-0.69,-1.09,1.44
2022-11-11 12:50:20.0570,-0.21,-1.77,-1.82,2.54
2022-11-11 12:50:20.0670,0.04,-2.18,-1.42,2.6
2022-11-11 12:50:20.0770,-0.08,-2.46,-0.33,2.48
2022-11-11 12:50:20.1130,-0.36,-2.44,0.0,2.46
2022-11-11 12:50:20.1140,-0.23,-2.55,-0.12,2.56
2022-11-11 12:50:20.1150,0.44,-2.24,-0.53,2.34
2022-11-11 12:50:20.1170,1.38,-1.43,-0.39,2.02
2022-11-11 12:50:20.1260,2.25,-0.53,0.01,2.31
2022-11-11 12:50:20.1360,2.7,-0.07,0.47,2.74
2022-11-11 12:50:20.1460,2.79,-0.04,-0.19,2.79
2022-11-11 12:50:20.1560,2.89,0.23,-1.24,3.15
2022-11-11 12:50:20.1660,2.61,0.93,-1.29,3.05
2022-11-11 12:50:20.1760,1.41,1.28,-1.17,2.23
2022-11-11 12:50:20.2140,-0.19,1.27,-0.6,1.41
2022-11-11 12:50:20.2160,-1.44,1.26,0.3,1.93
2022-11-11 12:50:20.2170,-1.95,1.01,0.66,2.29
2022-11-11 12:50:20.2370,-1.43,0.3,0.26,1.48
2022-11-11 12:50:20.2390,-0.17,-0.14,0.02,0.22
2022-11-11 12:50:20.2410,1.05,0.09,0.01,1.05
2022-11-11 12:50:20.2450,2.0,0.45,0.19,2.05
2022-11-11 12:50:20.2560,2.8,0.77,0.6,2.96
2022-11-11 12:50:20.2650,3.69,1.18,0.36,3.89
2022-11-11 12:50:20.2750,4.38,1.86,-0.06,4.75
2022-11-11 12:50:20.3110,4.48,2.82,-0.29,5.3
2022-11-11 12:50:20.3130,3.98,3.92,-0.5,5.6
2022-11-11 12:50:20.3140,3.57,5.15,-0.67,6.3
2022-11-11 12:50:20.3160,3.65,6.06,-0.96,7.13
2022-11-11 12:50:20.3250,4.21,6.35,-0.39,7.62
2022-11-11 12:50:20.3350,4.87,6.88,0.0,8.42
2022-11-11 12:50:20.3450,5.55,8.16,-0.02,9.86
2022-11-11 12:50:20.3550,6.38,10.08,-0.44,11.93
2022-11-11 12:50:20.3650,7.28,11.71,-0.29,13.79
2022-11-11 12:50:20.3750,8.1,12.11,-0.52,14.57
2022-11-11 12:50:20.4110,8.06,11.24,-1.59,13.92
2022-11-11 12:50:20.4130,6.97,8.76,-2.93,11.57
2022-11-11 12:50:20.4140,4.93,4.96,-3.39,7.77
2022-11-11 12:50:20.4160,3.5,1.08,-2.17,4.25
2022-11-11 12:50:20.4240,4.1,-2.2,-1.21,4.8
2022-11-11 12:50:20.4340,5.61,-3.41,-3.53,7.45
2022-11-11 12:50:20.4440,6.97,-3.42,-6.58,10.17
2022-11-11 12:50:20.4540,8.35,-3.57,-5.49,10.61
2022-11-11 12:50:20.4640,9.54,-3.65,-3.04,10.65
2022-11-11 12:50:20.4740,9.35,-3.41,-3.22,10.46
2022-11-11 12:50:20.5130,7.33,-3.06,-4.49,9.12
2022-11-11 12:50:20.5150,5.82,-3.18,-4.25,7.87
2022-11-11 12:50:20.5160,5.36,-2.99,-4.25,7.46
2022-11-11 12:50:20.5170,5.54,-2.23,-5.58,8.17
2022-11-11 12:50:20.5240,6.04,-2.07,-7.3,9.69
2022-11-11 12:50:20.5340,6.5,-2.23,-8.73,11.11
2022-11-11 12:50:20.5440,6.78,-2.04,-9.91,12.17
2022-11-11 12:50:20.5540,6.55,-1.58,-11.06,12.95
2022-11-11 12:50:20.5640,5.62,-0.98,-11.9,13.19
2022-11-11 12:50:20.5740,4.46,-0.23,-12.23,13.01
2022-11-11 12:50:20.6110,3.67,0.64,-12.2,12.75
2022-11-11 12:50:20.6130,3.09,1.44,-12.25,12.71
2022-11-11 12:50:20.6140,2.47,2.12,-12.56,12.97
2022-11-11 12:50:20.6160,1.53,2.74,-13.22,13.58
2022-11-11 12:50:20.6230,0.37,3.46,-13.85,14.28
2022-11-11 12:50:20.6330,-0.34,4.07,-13.84,14.43
2022-11-11 12:50:20.6430,-0.45,4.38,-13.76,14.44
2022-11-11 12:50:20.6530,-0.43,4.44,-14.21,14.89
2022-11-11 12:50:20.6630,-0.65,4.4,-14.81,15.46
2022-11-11 12:50:20.6730,-1.12,4.02,-14.93,15.5
2022-11-11 12:50:20.7110,-1.69,3.4,-14.15,14.65
2022-11-11 12:50:20.7130,-2.27,2.55,-12.83,13.27
2022-11-11 12:50:20.7140,-2.7,1.58,-11.51,11.92
2022-11-11 12:50:20.7160,-2.94,0.7,-10.56,10.98
2022-11-11 12:50:20.7220,-3.13,0.07,-9.72,10.21
2022-11-11 12:50:20.7320,-3.45,-0.31,-8.56,9.23
2022-11-11 12:50:20.7420,-3.84,-0.53,-7.29,8.25
2022-11-11 12:50:20.7530,-4.11,-0.79,-6.08,7.38
2022-11-11 12:50:20.7620,-4.01,-1.1,-5.48,6.87
2022-11-11 12:50:20.7720,-3.63,-1.43,-5.26,6.54
2022-11-11 12:50:20.8100,-3.35,-1.38,-4.53,5.8
2022-11-11 12:50:20.8120,-4.06,-0.56,-3.72,5.53
2022-11-11 12:50:20.8130,-4.45,0.28,-3.23,5.5
2022-11-11 12:50:20.8150,-4.63,0.87,-3.23,5.71
2022-11-11 12:50:20.8220,-5.22,0.79,-4.0,6.62
2022-11-11 12:50:20.8320,-6.22,-0.15,-4.57,7.71
2022-11-11 12:50:20.8420,-7.49,-1.25,-4.42,8.78
2022-11-11 12:50:20.8520,-8.46,-2.12,-4.03,9.6
2022-11-11 12:50:20.8620,-9.07,-2.39,-3.73,10.09
2022-11-11 12:50:20.8720,-9.21,-1.9,-3.1,9.9
2022-11-11 12:50:20.9100,-8.63,-1.16,-2.13,8.96
2022-11-11 12:50:20.9120,-8.29,-0.78,-1.78,8.51
2022-11-11 12:50:20.9130,-7.97,-1.1,-1.39,8.16
2022-11-11 12:50:20.9150,-7.44,-1.59,-0.8,7.64
2022-11-11 12:50:20.9210,-6.73,-1.44,-0.8,6.92
2022-11-11 12:50:20.9310,-6.54,-0.74,-1.3,6.7
2022-11-11 12:50:20.9410,-6.87,0.04,-1.53,7.03
2022-11-11 12:50:20.9510,-5.26,0.94,-1.05,5.44
2022-11-11 12:50:20.9610,-2.36,2.28,-0.93,3.41
2022-11-11 12:50:20.9710,-0.85,4.19,0.03,4.27
2022-11-11 12:50:21.0100,-0.33,5.15,0.96,5.24
2022-11-11 12:50:21.0120,-0.95,4.56,-0.17,4.66
2022-11-11 12:50:21.0130,-2.28,2.21,0.02,3.17
2022-11-11 12:50:21.0150,-2.84,-0.05,1.68,3.3
2022-11-11 12:50:21.0210,-2.89,-1.0,1.63,3.46
2022-11-11 12:50:21.0310,-2.15,-1.23,0.49,2.52
2022-11-11 12:50:21.0410,-0.57,-0.91,-0.23,1.09
2022-11-11 12:50:21.0510,0.67,-0.64,-1.06,1.4
2022-11-11 12:50:21.0600,1.29,-0.58,-1.67,2.18
2022-11-11 12:50:21.0710,1.45,-0.41,-1.88,2.4
2022-11-11 12:50:21.1100,0.86,-0.04,-1.81,2.0
2022-11-11 12:50:21.1110,0.18,0.24,-1.46,1.49
2022-11-11 12:50:21.1120,-0.41,0.5,-1.16,1.32
2022-11-11 12:50:21.1140,-0.77,0.59,-0.69,1.19
2022-11-11 12:50:21.1200,-0.67,0.6,0.03,0.89
2022-11-11 12:50:21.1300,-0.2,0.62,0.38,0.75
2022-11-11 12:50:21.1400,0.55,0.37,-0.01,0.66
2022-11-11 12:50:21.1500,1.12,0.06,-0.84,1.4
2022-11-11 12:50:21.1600,1.29,-0.09,-1.38,1.89
2022-11-11 12:50:21.1700,1.18,-0.09,-1.35,1.79
2022-11-11 12:50:21.2070,0.68,0.06,-1.05,1.25
2022-11-11 12:50:21.2090,-0.05,0.02,-0.84,0.84
2022-11-11 12:50:21.2110,-0.68,-0.07,-0.42,0.8
2022-11-11 12:50:21.2120,-0.76,0.06,0.26,0.8
2022-11-11 12:50:21.2200,-0.38,0.16,0.39,0.56
2022-11-11 12:50:21.2290,0.34,-0.04,0.13,0.36
2022-11-11 12:50:21.2400,1.27,-0.35,-0.49,1.4
2022-11-11 12:50:21.2490,1.87,-0.55,-1.14,2.25
2022-11-11 12:50:21.2590,2.07,-0.46,-1.12,2.39
2022-11-11 12:50:21.2690,1.51,-0.05,-0.7,1.66
2022-11-11 12:50:21.3070,0.43,0.16,-0.36,0.58
2022-11-11 12:50:21.3090,-0.18,0.09,0.22,0.29
2022-11-11 12:50:21.3100,-0.62,0.14,0.52,0.82
2022-11-11 12:50:21.3120,-0.61,0.15,0.65,0.9
2022-11-11 12:50:21.3320,0.01,0.25,0.66,0.7
2022-11-11 12:50:21.3340,0.76,0.25,-0.09,0.8
2022-11-11 12:50:21.3390,1.48,0.06,-0.71,1.64
2022-11-11 12:50:21.3490,1.93,-0.06,-0.88,2.12
2022-11-11 12:50:21.3590,1.97,-0.23,-0.71,2.1
2022-11-11 12:50:21.3690,1.68,-0.29,-0.62,1.81
2022-11-11 12:50:21.4080,1.19,-0.13,-0.75,1.41
2022-11-11 12:50:21.4100,1.32,0.06,-0.84,1.56
2022-11-11 12:50:21.4110,1.74,0.19,-0.95,1.99
2022-11-11 12:50:21.4130,1.57,0.2,-1.38,2.09
2022-11-11 12:50:21.4180,0.72,0.38,-1.14,1.4
2022-11-11 12:50:21.4280,0.2,0.76,-0.46,0.91
2022-11-11 12:50:21.4380,0.31,0.91,0.63,1.14
2022-11-11 12:50:21.4480,0.83,1.07,0.48,1.43
2022-11-11 12:50:21.4580,1.6,1.38,-0.38,2.14
2022-11-11 12:50:21.4680,1.82,1.92,-0.88,2.78
2022-11-11 12:50:21.5060,1.14,2.7,-1.37,3.23
2022-11-11 12:50:21.5080,-0.13,3.39,-0.65,3.45
2022-11-11 12:50:21.5090,-1.24,4.0,0.01,4.18
2022-11-11 12:50:21.5110,-1.53,4.63,0.92,4.96
2022-11-11 12:50:21.5180,-0.17,5.38,1.63,5.62
2022-11-11 12:50:21.5320,1.14,5.56,1.05,5.77
2022-11-11 12:50:21.5380,3.0,5.37,0.28,6.15
2022-11-11 12:50:21.5480,4.5,5.26,-0.25,6.92
2022-11-11 12:50:21.5580,5.48,5.18,-0.63,7.56
2022-11-11 12:50:21.5670,6.06,5.16,-0.9,8.0
2022-11-11 12:50:21.6070,6.43,4.93,-1.1,8.17
2022-11-11 12:50:21.6080,7.03,4.92,-1.2,8.66
2022-11-11 12:50:21.6090,7.76,5.26,-1.71,9.52
2022-11-11 12:50:21.6110,8.52,5.47,-2.24,10.36
2022-11-11 12:50:21.6170,9.43,5.67,-2.28,11.23
2022-11-11 12:50:21.6270,9.91,6.03,-2.61,11.89
2022-11-11 12:50:21.6370,10.51,6.5,-3.01,12.71
2022-11-11 12:50:21.6470,10.94,7.23,-3.67,13.61
2022-11-11 12:50:21.6570,10.2,8.06,-4.52,13.76
2022-11-11 12:50:21.6670,8.77,9.28,-5.42,13.87
2022-11-11 12:50:21.7050,7.83,9.72,-4.97,13.43
2022-11-11 12:50:21.7070,7.06,9.56,-5.4,13.05
2022-11-11 12:50:21.7080,5.52,8.45,-6.32,11.9
2022-11-11 12:50:21.7100,3.47,6.32,-7.24,10.21
2022-11-11 12:50:21.7170,2.88,3.57,-4.85,6.67
2022-11-11 12:50:21.7260,5.81,3.54,-1.14,6.89
2022-11-11 12:50:21.7370,8.99,4.41,-1.11,10.07
2022-11-11 12:50:21.7460,9.6,2.95,-2.25,10.29
2022-11-11 12:50:21.7560,9.08,0.92,-1.91,9.32
2022-11-11 12:50:21.7660,8.38,-1.03,-1.27,8.53
2022-11-11 12:50:21.8050,7.73,-2.44,-0.83,8.14
2022-11-11 12:50:21.8070,7.58,-3.45,-0.03,8.32
2022-11-11 12:50:21.8080,7.17,-4.21,-0.34,8.32
2022-11-11 12:50:21.8090,7.1,-4.88,-0.66,8.64
2022-11-11 12:50:21.8160,7.82,-5.32,-0.42,9.46
2022-11-11 12:50:21.8260,8.04,-5.25,-0.5,9.61
2022-11-11 12:50:21.8360,7.69,-5.01,-0.67,9.2
2022-11-11 12:50:21.8460,6.74,-4.85,-0.86,8.34
2022-11-11 12:50:21.8560,5.35,-4.66,-1.2,7.19
2022-11-11 12:50:21.8660,4.15,-4.33,-0.9,6.06
2022-11-11 12:50:21.9060,3.54,-3.13,-0.13,4.72
2022-11-11 12:50:21.9070,3.07,-1.35,0.19,3.35
2022-11-11 12:50:21.9080,1.52,0.06,-0.52,1.6
2022-11-11 12:50:21.9100,-1.13,1.15,-1.91,2.49
2022-11-11 12:50:21.9150,-3.99,2.09,-2.99,5.4
2022-11-11 12:50:21.9310,-5.88,3.13,-3.31,7.43
2022-11-11 12:50:21.9350,-6.53,4.19,-3.08,8.34
2022-11-11 12:50:21.9450,-7.14,5.29,-3.26,9.46
2022-11-11 12:50:21.9550,-8.44,6.68,-3.89,11.44
2022-11-11 12:50:21.9650,-9.46,8.04,-3.87,13.0
2022-11-11 12:50:22.0040,-9.89,8.43,-4.09,13.62
2022-11-11 12:50:22.0050,-10.71,8.1,-5.04,14.34
2022-11-11 12:50:22.0070,-11.91,7.31,-5.47,15.0
2022-11-11 12:50:22.0080,-13.1,6.11,-5.68,15.53
2022-11-11 12:50:22.0150,-14.06,4.61,-5.56,15.8
2022-11-11 12:50:22.0250,-14.59,3.18,-5.53,15.92
2022-11-11 12:50:22.0350,-14.87,2.2,-5.22,15.91
2022-11-11 12:50:22.0440,-15.29,1.3,-4.72,16.05
2022-11-11 12:50:22.0550,-16.22,0.5,-4.34,16.79
2022-11-11 12:50:22.0640,-16.65,0.11,-3.48,17.01
2022-11-11 12:50:22.1040,-15.4,0.44,-2.5,15.6
2022-11-11 12:50:22.1060,-13.56,1.29,-2.01,13.76
2022-11-11 12:50:22.1070,-11.73,2.18,-1.29,12.0
2022-11-11 12:50:22.1090,-7.11,3.21,1.74,7.99
2022-11-11 12:50:22.1140,0.75,3.48,6.27,7.21
2022-11-11 12:50:22.1240,7.76,5.3,4.93,10.61
2022-11-11 12:50:22.1340,8.51,8.57,0.65,12.09
2022-11-11 12:50:22.1440,2.89,7.89,-2.76,8.84
2022-11-11 12:50:22.1540,-0.76,3.58,-3.01,4.73
2022-11-11 12:50:22.1640,-1.97,-0.46,-1.78,2.69
2022-11-11 12:50:22.2050,-3.25,-3.16,-1.21,4.69
2022-11-11 12:50:22.2060,-4.37,-3.5,-2.64,6.19
2022-11-11 12:50:22.2080,-5.91,-2.39,-5.03,8.12
2022-11-11 12:50:22.2100,-7.36,-0.83,-4.71,8.77
2022-11-11 12:50:22.2130,-7.44,0.97,-2.13,7.79
2022-11-11 12:50:22.2300,-5.61,2.24,0.9,6.1
2022-11-11 12:50:22.2330,-2.87,2.13,1.37,3.82
2022-11-11 12:50:22.2430,-1.17,1.5,1.03,2.16
2022-11-11 12:50:22.2530,0.03,1.07,0.3,1.11
2022-11-11 12:50:22.2630,1.31,0.48,-0.22,1.41
2022-11-11 12:50:22.3040,2.39,0.3,-0.39,2.44
2022-11-11 12:50:22.3050,2.83,0.4,-1.09,3.05
2022-11-11 12:50:22.3060,2.52,0.33,-1.06,2.75
2022-11-11 12:50:22.3080,1.1,0.11,-1.13,1.58
2022-11-11 12:50:22.3130,-0.46,-0.18,-1.19,1.28
2022-11-11 12:50:22.3230,-1.52,-0.13,-0.61,1.64
2022-11-11 12:50:22.3330,-1.43,0.05,-0.2,1.44
2022-11-11 12:50:22.3430,-0.27,0.15,-0.33,0.45
2022-11-11 12:50:22.3530,0.77,0.06,-0.51,0.92
2022-11-11 12:50:22.3630,0.92,0.12,-0.32,0.98
2022-11-11 12:50:22.4030,0.77,0.47,-0.55,1.05
2022-11-11 12:50:22.4040,0.84,0.63,-0.76,1.29
2022-11-11 12:50:22.4050,1.27,0.68,-0.8,1.64
2022-11-11 12:50:22.4070,1.45,0.72,-0.91,1.85
2022-11-11 12:50:22.4120,1.53,0.74,-0.8,1.87
2022-11-11 12:50:22.4220,1.6,0.95,-0.62,1.96
2022-11-11 12:50:22.4320,1.49,1.2,-0.89,2.11
2022-11-11 12:50:22.4420,1.64,1.53,-0.36,2.27
2022-11-11 12:50:22.4520,1.58,2.06,0.31,2.61
2022-11-11 12:50:22.4620,1.23,2.33,0.65,2.71
2022-11-11 12:50:22.5030,1.43,3.09,1.71,3.81
2022-11-11 12:50:22.5040,1.97,4.0,1.24,4.62
2022-11-11 12:50:22.5050,2.57,4.47,1.24,5.3
2022-11-11 12:50:22.5070,2.7,4.54,1.22,5.42
2022-11-11 12:50:22.5110,3.0,4.64,1.56,5.74
2022-11-11 12:50:22.5220,4.1,5.0,1.32,6.59
2022-11-11 12:50:22.5320,5.45,5.25,0.81,7.61
2022-11-11 12:50:22.5410,6.69,5.23,0.14,8.49
2022-11-11 12:50:22.5520,7.51,4.82,-0.25,8.92
2022-11-11 12:50:22.5620,7.95,4.45,-0.22,9.11
2022-11-11 12:50:22.6030,8.29,4.52,-0.01,9.44
2022-11-11 12:50:22.6040,8.69,4.77,0.53,9.92
2022-11-11 12:50:22.6050,9.28,5.04,1.14,10.62
2022-11-11 12:50:22.6070,10.8,5.48,0.84,12.13
2022-11-11 12:50:22.6110,12.71,6.39,0.26,14.22
2022-11-11 12:50:22.6210,13.75,7.38,-0.15,15.6
2022-11-11 12:50:22.6310,12.78,8.12,-1.61,15.22
2022-11-11 12:50:22.6410,10.38,9.4,-3.93,14.54
2022-11-11 12:50:22.6510,8.76,11.41,-5.45,15.38
2022-11-11 12:50:22.6610,7.75,12.06,-4.53,15.03
2022-11-11 12:50:22.7020,6.31,11.62,-4.64,14.01
2022-11-11 12:50:22.7030,4.92,10.04,-5.12,12.29
2022-11-11 12:50:22.7050,4.21,7.51,-2.8,9.05
2022-11-11 12:50:22.7060,4.04,6.7,-1.78,8.02
2022-11-11 12:50:22.7100,5.73,6.9,-0.09,8.96
2022-11-11 12:50:22.7200,9.02,6.46,1.55,11.2
2022-11-11 12:50:22.7300,10.37,4.1,1.13,11.2
2022-11-11 12:50:22.7400,9.5,0.95,-0.01,9.54
2022-11-11 12:50:22.7500,7.79,-1.42,0.02,7.91
2022-11-11 12:50:22.7600,5.99,-2.8,0.32,6.61
2022-11-11 12:50:22.8020,5.55,-3.63,0.47,6.64
2022-11-11 12:50:22.8030,6.97,-4.42,0.89,8.3
2022-11-11 12:50:22.8040,8.19,-4.92,0.61,9.57
2022-11-11 12:50:22.8060,8.12,-4.8,0.6,9.45
2022-11-11 12:50:22.8100,7.51,-4.47,0.87,8.78
2022-11-11 12:50:22.8200,7.45,-4.61,1.17,8.83
2022-11-11 12:50:22.8300,7.8,-3.95,1.24,8.83
2022-11-11 12:50:22.8400,5.96,-2.74,0.07,6.56
2022-11-11 12:50:22.8500,2.42,-2.21,-0.46,3.3
2022-11-11 12:50:22.8600,0.06,-2.01,0.6,2.09
2022-11-11 12:50:22.9020,-0.97,-1.44,1.11,2.06
2022-11-11 12:50:22.9030,-2.8,-0.46,0.63,2.9
2022-11-11 12:50:22.9050,-5.34,0.89,0.71,5.46
2022-11-11 12:50:22.9060,-7.97,2.18,1.21,8.35
2022-11-11 12:50:22.9090,-10.05,2.8,0.93,10.47
2022-11-11 12:50:22.9190,-10.35,2.85,-0.17,10.73
2022-11-11 12:50:22.9290,-8.62,3.06,-1.06,9.2
2022-11-11 12:50:22.9390,-7.41,3.69,-2.45,8.63
2022-11-11 12:50:22.9490,-7.76,4.96,-5.04,10.49
2022-11-11 12:50:22.9590,-9.28,6.88,-7.18,13.6
2022-11-11 12:50:23.0010,-10.96,8.91,-6.98,15.75
2022-11-11 12:50:23.0030,-12.82,10.49,-5.68,17.51
2022-11-11 12:50:23.0040,-15.92,10.71,-5.18,19.87
2022-11-11 12:50:23.0060,-20.22,8.64,-5.84,22.75
2022-11-11 12:50:23.0080,-23.0,5.01,-6.02,24.29
2022-11-11 12:50:23.0180,-22.61,0.91,-5.42,23.26
2022-11-11 12:50:23.0290,-20.25,-1.59,-5.31,20.99
2022-11-11 12:50:23.0390,-17.93,-1.34,-5.28,18.73
2022-11-11 12:50:23.0490,-16.61,0.21,-3.71,17.02
2022-11-11 12:50:23.0580,-14.21,2.11,-0.12,14.36
2022-11-11 12:50:23.1020,-6.19,5.27,6.04,10.12
2022-11-11 12:50:23.1030,6.29,5.24,13.22,15.54
2022-11-11 12:50:23.1050,12.41,7.87,7.76,16.61
2022-11-11 12:50:23.1070,5.27,13.88,-1.51,14.92
2022-11-11 12:50:23.1090,-1.84,9.92,-4.35,10.98
2022-11-11 12:50:23.1180,-2.27,5.61,-4.03,7.27
2022-11-11 12:50:23.1280,-3.58,1.24,-4.51,5.89
2022-11-11 12:50:23.1380,-4.35,-3.14,-2.98,6.13
2022-11-11 12:50:23.1480,-4.37,-6.2,-1.48,7.72
2022-11-11 12:50:23.1580,-6.57,-4.62,-3.87,8.91
2022-11-11 12:50:23.2010,-7.89,-0.98,-5.16,9.47
2022-11-11 12:50:23.2020,-6.85,1.06,-3.16,7.61
2022-11-11 12:50:23.2030,-4.74,1.97,-0.42,5.15
2022-11-11 12:50:23.2050,-2.63,2.28,1.05,3.63
2022-11-11 12:50:23.2070,-1.28,2.12,1.45,2.86
2022-11-11 12:50:23.2170,0.14,2.09,1.75,2.72
2022-11-11 12:50:23.2270,1.54,1.54,0.66,2.27
2022-11-11 12:50:23.2370,2.6,0.46,-0.61,2.7
2022-11-11 12:50:23.2470,3.25,-0.38,-1.01,3.42
2022-11-11 12:50:23.2570,2.56,-0.58,-1.33,2.94
2022-11-11 12:50:23.3000,0.42,-0.37,-0.9,1.05
2022-11-11 12:50:23.3020,-1.22,-0.26,-0.6,1.38
2022-11-11 12:50:23.3030,-1.7,-0.33,-0.54,1.81
2022-11-11 12:50:23.3050,-1.03,-0.43,-0.66,1.29
2022-11-11 12:50:23.3070,0.41,-0.48,-0.54,0.83
2022-11-11 12:50:23.3170,1.33,-0.15,-0.42,1.4
2022-11-11 12:50:23.3270,1.11,0.37,-0.3,1.2
2022-11-11 12:50:23.3370,0.76,0.67,-0.29,1.05
2022-11-11 12:50:23.3470,0.79,0.74,-0.44,1.16
2022-11-11 12:50:23.3570,1.16,0.67,-0.65,1.48
2022-11-11 12:50:23.4000,1.51,0.48,-1.01,1.87
2022-11-11 12:50:23.4020,1.48,0.35,-1.27,1.98
2022-11-11 12:50:23.4030,1.46,0.58,-0.45,1.63
2022-11-11 12:50:23.4050,1.32,1.1,-0.64,1.83
2022-11-11 12:50:23.4070,1.19,1.78,-0.73,2.26
2022-11-11 12:50:23.4160,1.2,2.85,-1.1,3.28
2022-11-11 12:50:23.4260,1.28,3.87,0.2,4.08
2022-11-11 12:50:23.4360,1.73,4.2,0.66,4.59
2022-11-11 12:50:23.4460,2.73,4.12,1.23,5.09
2022-11-11 12:50:23.4560,3.71,4.34,1.76,5.97
2022-11-11 12:50:23.5000,4.47,4.98,1.97,6.97
2022-11-11 12:50:23.5020,4.64,5.39,2.08,7.41
2022-11-11 12:50:23.5030,5.2,5.46,2.03,7.8
2022-11-11 12:50:23.5050,6.18,5.33,1.97,8.39
2022-11-11 12:50:23.5070,7.29,5.09,1.44,9.0
2022-11-11 12:50:23.5160,8.57,5.1,0.75,10.0
2022-11-11 12:50:23.5250,9.51,5.22,0.11,10.84
2022-11-11 12:50:23.5360,10.2,5.23,-0.22,11.46
2022-11-11 12:50:23.5450,10.82,5.65,-0.11,12.2
2022-11-11 12:50:23.5550,11.72,7.39,-0.21,13.85
2022-11-11 12:50:23.6000,13.26,9.12,0.71,16.1
2022-11-11 12:50:23.6020,13.77,9.45,-0.05,16.7
2022-11-11 12:50:23.6030,13.68,7.93,-2.55,16.01
2022-11-11 12:50:23.6050,11.84,8.2,-7.22,16.11
2022-11-11 12:50:23.6070,9.3,10.44,-9.02,16.63
2022-11-11 12:50:23.6150,7.1,11.24,-5.48,14.37
2022-11-11 12:50:23.6250,4.85,10.96,-3.7,12.54
2022-11-11 12:50:23.6350,3.19,9.52,-5.45,11.42
2022-11-11 12:50:23.6450,2.96,7.33,-4.61,9.15
2022-11-11 12:50:23.6550,4.3,6.51,-2.38,8.15
2022-11-11 12:50:23.6980,6.69,5.85,-1.06,8.94
2022-11-11 12:50:23.7000,8.13,3.54,-0.42,8.87
2022-11-11 12:50:23.7010,7.74,0.5,-0.28,7.76
2022-11-11 12:50:23.7030,6.84,-1.29,0.15,6.96
2022-11-11 12:50:23.7050,6.17,-2.18,0.5,6.56
2022-11-11 12:50:23.7140,6.08,-3.14,0.46,6.85
2022-11-11 12:50:23.7240,6.77,-4.68,0.09,8.23
2022-11-11 12:50:23.7340,8.04,-6.22,-0.36,10.17
2022-11-11 12:50:23.7440,9.11,-6.91,-1.05,11.48
2022-11-11 12:50:23.7540,9.24,-6.89,-1.69,11.64
2022-11-11 12:50:23.7990,8.63,-6.17,-2.08,10.81
2022-11-11 12:50:23.8000,7.59,-4.74,-1.96,9.16
2022-11-11 12:50:23.8010,6.32,-3.8,-1.55,7.53
2022-11-11 12:50:23.8030,5.31,-3.76,-0.68,6.54
2022-11-11 12:50:23.8050,3.57,-3.36,-0.27,4.9
2022-11-11 12:50:23.8140,0.93,-2.01,-0.2,2.22
2022-11-11 12:50:23.8230,-1.51,-0.45,0.69,1.72
2022-11-11 12:50:23.8330,-3.7,1.24,0.69,3.96
2022-11-11 12:50:23.8430,-6.1,3.05,-0.23,6.82
2022-11-11 12:50:23.8540,-8.56,4.5,-0.9,9.71
2022-11-11 12:50:23.8990,-10.79,5.5,-1.65,12.22
2022-11-11 12:50:23.9000,-11.81,6.2,-1.78,13.45
2022-11-11 12:50:23.9010,-11.29,6.6,-1.51,13.16
2022-11-11 12:50:23.9030,-10.38,6.61,-2.19,12.49
2022-11-11 12:50:23.9050,-10.09,6.91,-3.89,12.83
2022-11-11 12:50:23.9130,-10.52,7.56,-5.33,14.0
2022-11-11 12:50:23.9230,-11.13,8.26,-5.87,15.05
2022-11-11 12:50:23.9330,-11.51,8.36,-6.11,15.48
2022-11-11 12:50:23.9430,-12.65,8.14,-6.74,16.48
2022-11-11 12:50:23.9530,-15.45,7.27,-7.55,18.66
2022-11-11 12:50:23.9990,-18.5,4.4,-5.85,19.89
2022-11-11 12:50:24.0010,-20.26,0.61,-3.81,20.62
2022-11-11 12:50:24.0020,-19.9,-1.73,-3.45,20.27
2022-11-11 12:50:24.0080,-17.66,-0.53,-4.05,18.12
2022-11-11 12:50:24.0090,-15.2,2.03,-4.49,15.97
2022-11-11 12:50:24.0120,-13.33,3.19,-3.64,14.18
2022-11-11 12:50:24.0220,-10.68,3.24,-0.23,11.16
2022-11-11 12:50:24.0320,-2.84,4.18,7.27,8.85
2022-11-11 12:50:24.0420,10.32,4.1,15.69,19.22
2022-11-11 12:50:24.0520,16.58,5.35,6.33,18.53
2022-11-11 12:50:24.0980,8.71,10.41,-2.74,13.84
2022-11-11 12:50:24.1000,-1.26,8.4,-4.14,9.44
2022-11-11 12:50:24.1010,-2.93,4.34,-1.66,5.49
2022-11-11 12:50:24.1110,-4.41,1.73,-3.47,5.87
2022-11-11 12:50:24.1130,-6.38,-1.6,-4.58,8.01
2022-11-11 12:50:24.1140,-6.96,-4.77,-3.79,9.24
2022-11-11 12:50:24.1220,-8.24,-4.18,-4.96,10.48
2022-11-11 12:50:24.1320,-9.14,-0.71,-4.31,10.13
2022-11-11 12:50:24.1420,-7.86,2.09,-2.92,8.64
2022-11-11 12:50:24.1520,-5.11,2.85,-0.49,5.87
2022-11-11 12:50:24.1980,-2.61,2.54,1.44,3.91
2022-11-11 12:50:24.1990,-1.34,1.9,2.23,3.22
2022-11-11 12:50:24.2010,0.35,1.4,1.65,2.19
2022-11-11 12:50:24.2030,2.59,0.56,-0.14,2.65
2022-11-11 12:50:24.2040,4.46,-0.32,-1.84,4.83
2022-11-11 12:50:24.2110,5.32,-0.73,-2.31,5.84
2022-11-11 12:50:24.2210,3.89,-0.64,-2.05,4.44
2022-11-11 12:50:24.2310,0.55,-0.73,-1.61,1.85
2022-11-11 12:50:24.2410,-2.28,-1.23,-0.98,2.76
2022-11-11 12:50:24.2510,-3.58,-0.81,-0.09,3.67
2022-11-11 12:50:24.2980,-3.19,0.58,0.85,3.35
2022-11-11 12:50:24.2990,-1.05,0.89,0.77,1.57
2022-11-11 12:50:24.3010,0.84,0.35,0.29,0.95
2022-11-11 12:50:24.3020,1.91,0.13,0.21,1.92
2022-11-11 12:50:24.3040,2.31,0.1,-0.24,2.32
2022-11-11 12:50:24.3110,1.65,0.15,-0.7,1.79
2022-11-11 12:50:24.3200,0.5,0.18,-1.04,1.16
2022-11-11 12:50:24.3310,-0.38,0.32,-1.13,1.23
2022-11-11 12:50:24.3410,-0.47,0.53,-0.75,1.03
2022-11-11 12:50:24.3500,0.29,0.72,-0.5,0.92
2022-11-11 12:50:24.3970,1.3,1.04,-0.75,1.82
2022-11-11 12:50:24.3990,2.15,1.27,-0.87,2.64
2022-11-11 12:50:24.4000,2.39,1.31,-0.5,2.77
2022-11-11 12:50:24.4020,2.09,1.5,-0.46,2.61
2022-11-11 12:50:24.4040,1.9,2.6,0.27,3.23
2022-11-11 12:50:24.4100,1.82,3.2,0.44,3.7
2022-11-11 12:50:24.4200,1.81,3.79,1.3,4.39
2022-11-11 12:50:24.4300,1.98,4.0,1.12,4.6
2022-11-11 12:50:24.4400,2.94,4.41,1.24,5.44
2022-11-11 12:50:24.4500,3.54,4.61,1.25,5.94
2022-11-11 12:50:24.4980,4.47,4.35,1.14,6.34
2022-11-11 12:50:24.5000,5.79,4.14,0.71,7.15
2022-11-11 12:50:24.5010,6.86,4.29,0.18,8.09
2022-11-11 12:50:24.5030,7.68,4.55,-0.34,8.93
2022-11-11 12:50:24.5040,8.37,4.85,-0.6,9.69
2022-11-11 12:50:24.5090,8.64,5.35,-0.43,10.17
2022-11-11 12:50:24.5190,8.69,6.24,-0.24,10.7
2022-11-11 12:50:24.5290,9.45,8.01,-0.47,12.39
2022-11-11 12:50:24.5390,10.82,9.97,-0.13,14.71
2022-11-11 12:50:24.5490,11.44,11.48,0.09,16.2
2022-11-11 12:50:24.5970,12.71,11.6,0.37,17.21
2022-11-11 12:50:24.5990,12.9,9.47,-3.54,16.38
2022-11-11 12:50:24.6000,10.79,7.7,-10.57,16.95
2022-11-11 12:50:24.6020,8.74,7.93,-10.01,15.47
2022-11-11 12:50:24.6030,6.34,9.21,-4.82,12.17
2022-11-11 12:50:24.6090,3.41,9.9,-3.52,11.04
2022-11-11 12:50:24.6190,2.18,8.28,-4.85,9.84
2022-11-11 12:50:24.6290,2.94,5.79,-2.6,6.99
2022-11-11 12:50:24.6390,3.45,3.54,-1.54,5.17
2022-11-11 12:50:24.6490,4.94,1.91,-0.19,5.29
2022-11-11 12:50:24.6970,6.5,0.81,1.69,6.76
2022-11-11 12:50:24.6990,6.52,-0.99,1.37,6.73
2022-11-11 12:50:24.7000,6.16,-2.76,0.94,6.81
2022-11-11 12:50:24.7020,6.0,-4.2,0.63,7.35
2022-11-11 12:50:24.7030,6.56,-5.49,0.72,8.58
2022-11-11 12:50:24.7080,7.69,-6.2,0.55,9.89
2022-11-11 12:50:24.7180,8.69,-6.69,0.17,10.96
2022-11-11 12:50:24.7280,9.09,-6.67,0.29,11.27
2022-11-11 12:50:24.7380,8.72,-6.06,0.76,10.64
2022-11-11 12:50:24.7480,7.83,-5.6,1.08,9.68
2022-11-11 12:50:24.7970,6.74,-5.09,1.68,8.61
2022-11-11 12:50:24.7990,5.59,-4.4,2.5,7.54
2022-11-11 12:50:24.8000,4.46,-3.57,3.23,6.56
2022-11-11 12:50:24.8020,3.06,-3.06,3.83,5.77
2022-11-11 12:50:24.8040,1.32,-2.66,4.19,5.13
2022-11-11 12:50:24.8070,-0.01,-1.53,4.78,5.01
2022-11-11 12:50:24.8170,-1.2,0.35,4.77,4.93
2022-11-11 12:50:24.8280,-2.76,2.52,3.84,5.35
2022-11-11 12:50:24.8370,-4.71,4.53,2.53,7.0
2022-11-11 12:50:24.8470,-6.99,6.12,1.28,9.37
2022-11-11 12:50:24.8970,-8.62,7.89,0.07,11.68
2022-11-11 12:50:24.8980,-8.54,9.46,-0.44,12.75
2022-11-11 12:50:24.9000,-7.58,10.12,-2.0,12.8
2022-11-11 12:50:24.9010,-7.1,10.17,-3.89,12.99
2022-11-11 12:50:24.9030,-7.73,10.06,-4.46,13.44
2022-11-11 12:50:24.9070,-9.79,10.05,-4.99,14.89
2022-11-11 12:50:24.9170,-12.46,9.54,-5.02,16.47
2022-11-11 12:50:24.9270,-16.14,8.67,-4.31,18.82
2022-11-11 12:50:24.9370,-20.12,7.22,-1.78,21.45
2022-11-11 12:50:24.9470,-21.4,4.13,-0.43,21.79
2022-11-11 12:50:24.9960,-18.96,0.62,-1.56,19.03
2022-11-11 12:50:24.9980,-15.36,-0.68,-2.93,15.65
2022-11-11 12:50:24.9990,-12.03,-0.55,-3.17,12.45
2022-11-11 12:50:25.0010,-9.92,-0.02,-2.8,10.3
2022-11-11 12:50:25.0030,-8.63,0.94,-2.97,9.17
2022-11-11 12:50:25.0060,-6.29,2.15,-2.02,6.94
2022-11-11 12:50:25.0160,-1.24,3.34,2.32,4.25
2022-11-11 12:50:25.0260,4.99,4.21,5.79,8.72
2022-11-11 12:50:25.0360,7.97,6.26,3.25,10.64
2022-11-11 12:50:25.0460,4.46,7.64,-1.62,8.99
2022-11-11 12:50:25.0950,-1.72,4.78,-4.17,6.57
2022-11-11 12:50:25.0970,-4.73,1.57,-1.84,5.31
2022-11-11 12:50:25.0980,-5.18,-0.26,-0.5,5.21
2022-11-11 12:50:25.1000,-5.12,-1.51,-3.44,6.35
2022-11-11 12:50:25.1020,-5.18,-3.09,-4.83,7.72
2022-11-11 12:50:25.1060,-4.02,-1.89,-2.78,5.24
2022-11-11 12:50:25.1160,-4.2,1.05,-2.31,4.9
2022-11-11 12:50:25.1260,-5.23,2.66,-0.61,5.89
2022-11-11 12:50:25.1360,-4.82,2.45,1.02,5.5
2022-11-11 12:50:25.1460,-3.91,1.65,1.5,4.5
2022-11-11 12:50:25.1970,-2.72,1.8,0.92,3.38
2022-11-11 12:50:25.1980,-1.16,1.77,0.41,2.15
2022-11-11 12:50:25.1990,0.17,1.31,0.57,1.43
2022-11-11 12:50:25.2010,1.24,0.74,0.37,1.49
2022-11-11 12:50:25.2030,1.71,0.24,0.16,1.73
2022-11-11 12:50:25.2050,1.32,-0.11,-0.72,1.5
2022-11-11 12:50:25.2150,0.17,-0.23,-1.23,1.26
2022-11-11 12:50:25.2250,-0.82,-0.28,-0.74,1.13
2022-11-11 12:50:25.2350,-0.65,-0.48,-0.26,0.84
2022-11-11 12:50:25.2450,0.44,-0.71,-0.37,0.91
2022-11-11 12:50:25.2960,1.56,-0.81,-0.78,1.92
2022-11-11 12:50:25.2970,2.02,-0.82,-1.21,2.49
2022-11-11 12:50:25.2990,1.62,-0.64,-1.26,2.14
2022-11-11 12:50:25.3000,0.97,-0.29,-0.67,1.21
2022-11-11 12:50:25.3020,0.6,-0.02,-0.34,0.68
2022-11-11 12:50:25.3040,0.56,-0.2,-0.21,0.63
2022-11-11 12:50:25.3150,0.78,-0.4,0.1,0.88
2022-11-11 12:50:25.3260,0.87,-0.27,0.31,0.96
2022-11-11 12:50:25.3340,1.12,-0.04,0.43,1.2
2022-11-11 12:50:25.3440,1.2,0.28,0.09,1.23
2022-11-11 12:50:25.3950,0.54,0.43,0.22,0.72
2022-11-11 12:50:25.3970,-0.15,0.46,0.67,0.82
2022-11-11 12:50:25.3980,-0.28,0.42,0.8,0.94
2022-11-11 12:50:25.4000,0.43,0.07,0.73,0.85
2022-11-11 12:50:25.4010,1.38,-0.32,0.23,1.43
2022-11-11 12:50:25.4040,1.49,-0.44,-0.37,1.59
2022-11-11 12:50:25.4140,1.58,-0.14,-0.5,1.66
2022-11-11 12:50:25.4240,1.81,0.29,-0.5,1.9
2022-11-11 12:50:25.4340,0.92,0.56,-0.98,1.45
2022-11-11 12:50:25.4440,-0.9,0.84,-0.65,1.39
2022-11-11 12:50:25.4950,-1.86,1.16,0.3,2.21
2022-11-11 12:50:25.4960,-1.79,1.46,0.95,2.49
2022-11-11 12:50:25.4980,-0.78,1.56,0.15,1.75
2022-11-11 12:50:25.4990,0.6,1.64,-0.42,1.79
2022-11-11 12:50:25.5010,1.66,1.95,-1.15,2.8
2022-11-11 12:50:25.5040,2.23,2.3,-1.42,3.5
2022-11-11 12:50:25.5130,2.27,2.62,-1.22,3.67
2022-11-11 12:50:25.5230,2.23,2.82,-0.6,3.64
2022-11-11 12:50:25.5330,2.42,3.22,0.07,4.02
2022-11-11 12:50:25.5430,3.12,4.11,0.15,5.16
2022-11-11 12:50:25.5950,4.37,5.53,-0.03,7.04
2022-11-11 12:50:25.5960,5.6,7.14,0.27,9.07
2022-11-11 12:50:25.5970,5.62,8.68,0.16,10.34
2022-11-11 12:50:25.5990,4.43,9.73,-0.16,10.69
2022-11-11 12:50:25.6010,3.7,10.04,-1.32,10.78
2022-11-11 12:50:25.6030,3.99,9.15,-2.14,10.2
2022-11-11 12:50:25.6130,4.24,7.43,-2.84,9.01
2022-11-11 12:50:25.6230,3.53,5.44,-4.52,7.9
2022-11-11 12:50:25.6330,2.1,3.4,-6.25,7.41
2022-11-11 12:50:25.6430,2.21,1.68,-5.84,6.46
2022-11-11 12:50:25.6930,4.2,1.18,-4.22,6.06
2022-11-11 12:50:25.6950,6.13,0.94,-2.5,6.68
2022-11-11 12:50:25.6960,7.02,-0.79,-1.06,7.14
2022-11-11 12:50:25.6980,6.81,-3.44,-0.11,7.63
2022-11-11 12:50:25.6990,6.17,-5.14,0.55,8.04
2022-11-11 12:50:25.7020,6.07,-5.5,1.15,8.27
2022-11-11 12:50:25.7120,5.87,-5.69,1.37,8.28
2022-11-11 12:50:25.7220,5.74,-6.21,1.71,8.62
2022-11-11 12:50:25.7320,5.5,-6.45,1.52,8.61
2022-11-11 12:50:25.7420,5.0,-6.4,0.38,8.13
2022-11-11 12:50:25.7940,5.2,-5.7,1.53,7.86
2022-11-11 12:50:25.7950,4.82,-4.97,2.76,7.45
2022-11-11 12:50:25.7960,3.29,-4.07,2.88,5.97
2022-11-11 12:50:25.7980,1.82,-3.0,4.52,5.72
2022-11-11 12:50:25.8000,0.01,-1.46,6.87,7.02
2022-11-11 12:50:25.8020,-2.38,0.34,8.63,8.95
2022-11-11 12:50:25.8110,-4.36,2.0,9.73,10.84
2022-11-11 12:50:25.8210,-5.33,3.29,9.55,11.42
2022-11-11 12:50:25.8310,-5.46,3.71,8.12,10.46
2022-11-11 12:50:25.8410,-5.31,3.06,5.59,8.29
2022-11-11 12:50:25.8940,-4.45,1.65,3.25,5.75
2022-11-11 12:50:25.8950,-2.87,0.19,1.58,3.28
2022-11-11 12:50:25.8970,-0.81,-0.41,1.01,1.35
2022-11-11 12:50:25.8980,0.96,0.34,1.68,1.96
2022-11-11 12:50:25.9000,1.6,2.42,2.98,4.15
2022-11-11 12:50:25.9020,1.0,4.72,4.47,6.57
2022-11-11 12:50:25.9110,-0.72,5.88,5.65,8.18
2022-11-11 12:50:25.9210,-2.82,5.69,5.75,8.56
2022-11-11 12:50:25.9310,-3.63,4.65,5.64,8.16
2022-11-11 12:50:25.9410,-2.6,3.62,4.75,6.51
2022-11-11 12:50:25.9930,-0.56,2.42,3.59,4.36
2022-11-11 12:50:25.9950,1.29,1.08,2.47,2.98
2022-11-11 12:50:25.9960,2.5,0.3,1.36,2.86
2022-11-11 12:50:25.9980,3.09,0.24,1.24,3.33
2022-11-11 12:50:25.9990,2.5,0.86,0.64,2.72
2022-11-11 12:50:26.0010,0.76,0.9,-1.66,2.03
2022-11-11 12:50:26.0100,-1.16,-0.62,-2.57,2.88
2022-11-11 12:50:26.0200,-1.94,-0.64,-0.28,2.06
2022-11-11 12:50:26.0300,-2.85,0.7,1.07,3.12
2022-11-11 12:50:26.0400,-2.64,2.39,3.01,4.66
2022-11-11 12:50:26.0930,-0.78,2.92,2.79,4.11
2022-11-11 12:50:26.0940,0.81,2.67,0.2,2.79
2022-11-11 12:50:26.0950,2.68,2.71,-0.89,3.91
2022-11-11 12:50:26.0970,4.36,3.12,0.34,5.37
2022-11-11 12:50:26.0990,3.87,3.48,0.83,5.27
2022-11-11 12:50:26.1010,0.45,1.82,0.25,1.89
2022-11-11 12:50:26.1100,-2.95,-0.63,0.64,3.08
2022-11-11 12:50:26.1190,-3.21,-1.62,1.33,3.83
2022-11-11 12:50:26.1300,-0.96,-1.38,0.77,1.84
2022-11-11 12:50:26.1400,1.24,-1.23,-0.24,1.76
2022-11-11 12:50:26.1930,2.06,-1.08,-1.04,2.54
2022-11-11 12:50:26.1940,1.04,-0.44,-0.91,1.45
2022-11-11 12:50:26.1960,-0.01,0.27,-0.94,0.97
2022-11-11 12:50:26.1970,-0.24,0.7,-0.85,1.12
2022-11-11 12:50:26.1990,0.05,0.74,-0.89,1.15
2022-11-11 12:50:26.2010,0.39,0.83,-1.07,1.4
2022-11-11 12:50:26.2090,0.79,0.66,-1.22,1.59
2022-11-11 12:50:26.2190,0.98,0.47,-0.82,1.36
2022-11-11 12:50:26.2290,0.52,0.65,-0.33,0.89
2022-11-11 12:50:26.2390,-0.39,0.65,0.11,0.76
2022-11-11 12:50:26.2920,-0.87,0.19,0.93,1.28
2022-11-11 12:50:26.2930,-0.55,-0.1,1.36,1.47
2022-11-11 12:50:26.2940,0.13,-0.05,0.42,0.44
2022-11-11 12:50:26.2960,0.79,-0.1,-0.45,0.91
2022-11-11 12:50:26.2980,1.01,-0.29,-0.92,1.39
2022-11-11 12:50:26.3000,0.67,-0.33,-0.84,1.12
2022-11-11 12:50:26.3090,-0.17,-0.09,-0.88,0.9
2022-11-11 12:50:26.3180,-0.9,0.0,-0.64,1.1
2022-11-11 12:50:26.3280,-0.86,0.05,0.28,0.9
2022-11-11 12:50:26.3380,-0.53,0.04,0.76,0.92
2022-11-11 12:50:26.3920,0.0,-0.06,0.65,0.65
2022-11-11 12:50:26.3940,0.63,-0.15,-0.24,0.69
2022-11-11 12:50:26.3950,1.3,-0.29,-0.72,1.51
2022-11-11 12:50:26.3970,1.19,-0.03,-0.9,1.49
2022-11-11 12:50:26.3990,0.34,0.24,-0.57,0.7
2022-11-11 12:50:26.4000,-0.42,0.34,-0.25,0.59
2022-11-11 12:50:26.4080,-0.51,0.31,-0.19,0.62
2022-11-11 12:50:26.4180,-0.04,0.19,-0.18,0.26
2022-11-11 12:50:26.4280,0.56,0.01,-0.1,0.56
2022-11-11 12:50:26.4380,0.89,-0.39,0.21,0.99
2022-11-11 12:50:26.4920,1.42,-0.68,-0.07,1.57
2022-11-11 12:50:26.4940,1.77,-0.57,-0.51,1.92
2022-11-11 12:50:26.4950,1.44,-0.45,-0.48,1.58
2022-11-11 12:50:26.4970,1.05,-0.33,-0.58,1.24
2022-11-11 12:50:26.4990,0.8,-0.14,-0.62,1.02
2022-11-11 12:50:26.5000,0.75,-0.01,-0.51,0.9
2022-11-11 12:50:26.5070,0.44,0.0,-0.55,0.7
2022-11-11 12:50:26.5170,0.2,-0.16,-0.41,0.48
2022-11-11 12:50:26.5270,0.44,-0.37,-0.01,0.57
2022-11-11 12:50:26.5370,0.97,-0.29,-0.07,1.01
2022-11-11 12:50:26.5910,1.54,0.13,-0.72,1.7
2022-11-11 12:50:26.5920,1.62,0.64,-0.91,1.96
2022-11-11 12:50:26.5930,1.1,0.87,-0.83,1.62
2022-11-11 12:50:26.5950,0.23,1.05,-0.45,1.16
2022-11-11 12:50:26.5970,-0.1,0.91,-0.34,0.97
2022-11-11 12:50:26.5990,0.51,1.45,0.91,1.78
2022-11-11 12:50:26.6070,0.59,2.49,0.91,2.71
2022-11-11 12:50:26.6170,0.49,3.01,0.58,3.1
2022-11-11 12:50:26.6270,0.56,3.88,1.65,4.25
2022-11-11 12:50:26.6370,0.44,4.4,1.06,4.54
2022-11-11 12:50:26.6910,0.76,4.02,0.52,4.12
2022-11-11 12:50:26.6930,0.58,3.58,-0.12,3.62
2022-11-11 12:50:26.6940,0.57,3.29,0.2,3.34
2022-11-11 12:50:26.6960,0.69,3.35,0.63,3.47
2022-11-11 12:50:26.6980,1.36,3.5,0.65,3.81
2022-11-11 12:50:26.6990,2.47,3.66,0.26,4.42
2022-11-11 12:50:26.7060,3.27,3.81,-0.08,5.02
2022-11-11 12:50:26.7160,3.84,3.93,-0.17,5.49
2022-11-11 12:50:26.7260,4.1,3.83,-0.06,5.61
2022-11-11 12:50:26.7360,4.55,3.25,0.08,5.59
2022-11-11 12:50:26.7900,4.98,2.57,0.41,5.61
2022-11-11 12:50:26.7910,5.52,2.28,1.09,6.07
2022-11-11 12:50:26.7920,7.0,3.38,1.15,7.85
2022-11-11 12:50:26.7940,8.98,4.65,1.73,10.25
2022-11-11 12:50:26.7960,9.37,5.18,3.38,11.22
2022-11-11 12:50:26.7980,8.28,6.11,4.89,11.39
2022-11-11 12:50:26.8050,7.59,7.05,3.85,11.05
2022-11-11 12:50:26.8150,7.25,7.22,-1.28,10.31
2022-11-11 12:50:26.8250,8.27,8.44,-4.68,12.7
2022-11-11 12:50:26.8350,10.98,10.67,-5.2,16.16
2022-11-11 12:50:26.8910,12.04,11.58,-4.55,17.31
2022-11-11 12:50:26.8920,9.49,11.73,-3.77,15.55
2022-11-11 12:50:26.8940,5.14,12.28,-3.23,13.69
2022-11-11 12:50:26.8960,1.6,11.88,-2.56,12.25
2022-11-11 12:50:26.8980,0.02,10.65,-2.34,10.9
2022-11-11 12:50:26.8990,1.07,9.19,-1.52,9.37
2022-11-11 12:50:26.9050,3.75,7.78,0.31,8.64
2022-11-11 12:50:26.9150,4.12,6.08,-0.52,7.36
2022-11-11 12:50:26.9250,2.85,3.49,-0.98,4.61
2022-11-11 12:50:26.9350,1.61,0.87,0.94,2.05
2022-11-11 12:50:26.9900,1.6,-0.45,2.66,3.13
2022-11-11 12:50:26.9910,2.67,-1.0,2.14,3.56
2022-11-11 12:50:26.9930,4.02,-1.74,1.59,4.66
2022-11-11 12:50:26.9950,5.18,-2.91,1.86,6.22
2022-11-11 12:50:26.9960,6.09,-4.04,2.22,7.63
2022-11-11 12:50:26.9980,6.46,-4.5,1.58,8.02
2022-11-11 12:50:27.0040,4.83,-4.15,1.2,6.48
2022-11-11 12:50:27.0140,3.37,-3.82,1.51,5.31
2022-11-11 12:50:27.0240,3.04,-4.07,1.73,5.36
2022-11-11 12:50:27.0340,2.55,-4.63,2.22,5.73
2022-11-11 12:50:27.0900,1.28,-4.96,2.86,5.86
2022-11-11 12:50:27.0910,-0.21,-5.12,3.7,6.32
2022-11-11 12:50:27.0930,-1.03,-5.0,4.46,6.77
2022-11-11 12:50:27.0950,-0.92,-4.57,5.0,6.83
2022-11-11 12:50:27.0970,-0.57,-4.36,5.03,6.68
2022-11-11 12:50:27.0990,-0.47,-4.88,4.38,6.57
2022-11-11 12:50:27.1030,-0.34,-5.86,3.65,6.91
2022-11-11 12:50:27.1130,-0.01,-6.98,2.92,7.56
2022-11-11 12:50:27.1230,0.13,-7.76,1.94,7.99
2022-11-11 12:50:27.1330,-0.58,-8.11,1.0,8.19
2022-11-11 12:50:27.1900,-2.01,-7.9,0.62,8.17
2022-11-11 12:50:27.1910,-3.34,-7.01,0.7,7.79
2022-11-11 12:50:27.1930,-4.32,-5.92,0.69,7.36
2022-11-11 12:50:27.1950,-5.3,-5.02,0.45,7.31
2022-11-11 12:50:27.1970,-6.2,-3.74,0.26,7.24
2022-11-11 12:50:27.1980,-6.71,-1.78,0.55,6.96
2022-11-11 12:50:27.2030,-6.83,0.66,1.09,6.94
2022-11-11 12:50:27.2130,-7.11,3.18,0.88,7.83
2022-11-11 12:50:27.2230,-7.85,5.67,-0.56,9.69
2022-11-11 12:50:27.2330,-8.81,8.13,-2.2,12.18
2022-11-11 12:50:27.2890,-9.59,10.09,-3.72,14.4
2022-11-11 12:50:27.2910,-10.15,11.17,-5.34,16.0
2022-11-11 12:50:27.2920,-10.91,10.67,-7.22,16.88
2022-11-11 12:50:27.2940,-12.06,8.48,-8.95,17.24
2022-11-11 12:50:27.2960,-12.94,5.75,-9.46,17.02
2022-11-11 12:50:27.2980,-12.32,2.99,-6.78,14.37
2022-11-11 12:50:27.3020,-12.73,0.91,-5.27,13.8
2022-11-11 12:50:27.3120,-13.58,1.27,-4.71,14.42
2022-11-11 12:50:27.3220,-7.03,4.6,-0.2,8.4
2022-11-11 12:50:27.3320,4.92,7.33,9.95,13.3
2022-11-11 12:50:27.3900,13.09,11.43,9.61,19.85
2022-11-11 12:50:27.3920,8.78,14.9,0.85,17.31
2022-11-11 12:50:27.3930,-0.61,8.23,-4.33,9.31
2022-11-11 12:50:27.3950,-4.28,-0.76,-2.19,4.86
2022-11-11 12:50:27.3970,-5.19,-6.89,-1.52,8.75
2022-11-11 12:50:27.3980,-4.97,-7.35,-4.36,9.88
2022-11-11 12:50:27.4010,-2.85,-3.88,-7.15,8.61
2022-11-11 12:50:27.4120,-1.02,-0.09,-6.87,6.94
2022-11-11 12:50:27.4210,-0.94,1.78,-5.61,5.96
2022-11-11 12:50:27.4320,-2.45,1.03,-3.07,4.06
2022-11-11 12:50:27.4890,-3.73,0.57,0.32,3.78
2022-11-11 12:50:27.4910,-4.58,1.2,2.52,5.36
2022-11-11 12:50:27.4920,-5.16,2.47,3.05,6.48
2022-11-11 12:50:27.4940,-4.36,3.27,3.05,6.24
2022-11-11 12:50:27.4960,-2.17,2.51,1.67,3.71
2022-11-11 12:50:27.4980,0.51,0.95,-0.13,1.08
2022-11-11 12:50:27.5010,2.8,-0.43,-1.71,3.3
2022-11-11 12:50:27.5110,3.64,-1.49,-2.69,4.76
2022-11-11 12:50:27.5210,2.2,-1.71,-2.48,3.73
2022-11-11 12:50:27.5310,-0.8,-0.79,-1.58,1.93
2022-11-11 12:50:27.5900,-2.5,0.34,-0.35,2.54
2022-11-11 12:50:27.5910,-2.12,1.03,-0.04,2.35
2022-11-11 12:50:27.5930,-0.74,0.6,-0.21,0.97
2022-11-11 12:50:27.5940,0.73,-0.32,-0.04,0.79
2022-11-11 12:50:27.5960,2.1,-0.34,-0.26,2.14
2022-11-11 12:50:27.5980,2.5,0.14,-0.83,2.63
2022-11-11 12:50:27.6000,1.96,0.31,-0.99,2.21
2022-11-11 12:50:27.6100,1.19,0.31,-1.01,1.59
2022-11-11 12:50:27.6200,0.43,0.44,-1.1,1.26
2022-11-11 12:50:27.6300,0.2,0.72,-1.05,1.28
2022-11-11 12:50:27.6900,0.02,0.87,-0.89,1.24
2022-11-11 12:50:27.6910,-0.05,0.91,-0.04,0.91
2022-11-11 12:50:27.6920,0.34,0.83,0.23,0.92
2022-11-11 12:50:27.6940,1.51,1.07,-0.03,1.85
2022-11-11 12:50:27.6960,2.28,2.41,0.24,3.32
2022-11-11 12:50:27.6980,2.37,3.14,0.84,4.02
2022-11-11 12:50:27.7000,2.26,4.33,1.38,5.07
2022-11-11 12:50:27.7100,3.42,4.53,0.68,5.71
2022-11-11 12:50:27.7200,3.73,4.54,-0.04,5.87
2022-11-11 12:50:27.7300,2.75,4.69,-0.09,5.43
2022-11-11 12:50:27.7880,2.24,4.92,0.87,5.47
2022-11-11 12:50:27.7900,3.28,5.04,1.32,6.15
2022-11-11 12:50:27.7910,4.89,4.69,1.25,6.88
2022-11-11 12:50:27.7930,6.66,4.07,0.8,7.84
2022-11-11 12:50:27.7940,7.82,3.74,0.24,8.67
2022-11-11 12:50:27.7960,8.41,4.09,0.04,9.35
2022-11-11 12:50:27.7990,8.93,4.46,-0.19,9.98
2022-11-11 12:50:27.8090,9.47,4.57,-0.18,10.51
2022-11-11 12:50:27.8190,10.45,4.6,-0.18,11.41
2022-11-11 12:50:27.8290,11.3,4.76,-0.04,12.26
2022-11-11 12:50:27.8890,10.6,5.48,0.34,11.93
2022-11-11 12:50:27.8900,12.33,7.59,0.21,14.48
2022-11-11 12:50:27.8920,13.33,9.74,-2.96,16.77
2022-11-11 12:50:27.9040,11.23,11.15,-8.56,17.99
2022-11-11 12:50:27.9060,9.8,14.0,-11.93,20.84
2022-11-11 12:50:27.9070,9.35,15.72,-9.18,20.46
2022-11-11 12:50:27.9090,7.52,16.46,-7.44,19.56
2022-11-11 12:50:27.9110,3.95,15.7,-6.6,17.48
2022-11-11 12:50:27.9190,1.01,14.29,-4.32,14.96
2022-11-11 12:50:27.9280,0.18,12.53,-3.39,12.98
2022-11-11 12:50:27.9870,1.63,9.63,-1.58,9.89
2022-11-11 12:50:27.9890,2.93,7.49,-0.2,8.04
2022-11-11 12:50:27.9900,1.77,5.94,-0.85,6.25
2022-11-11 12:50:27.9920,-0.24,3.66,-1.0,3.8
2022-11-11 12:50:27.9930,-1.51,0.21,-0.87,1.75
2022-11-11 12:50:27.9950,-0.74,-3.47,0.53,3.58
2022-11-11 12:50:27.9980,1.4,-5.66,1.0,5.91
2022-11-11 12:50:28.0080,3.26,-6.64,0.61,7.42
2022-11-11 12:50:28.0180,3.26,-7.28,0.69,8.0
2022-11-11 12:50:28.0280,3.12,-7.28,1.67,8.09
2022-11-11 12:50:28.0880,4.55,-6.19,2.83,8.18
2022-11-11 12:50:28.0900,5.63,-7.2,2.72,9.53
2022-11-11 12:50:28.0910,6.41,-8.09,3.28,10.83
2022-11-11 12:50:28.0930,6.26,-7.97,2.72,10.49
2022-11-11 12:50:28.0950,5.32,-8.35,1.83,10.06
2022-11-11 12:50:28.0960,3.93,-8.6,1.67,9.6
2022-11-11 12:50:28.0990,2.46,-8.3,1.8,8.84
2022-11-11 12:50:28.1070,1.38,-8.56,2.14,8.93
2022-11-11 12:50:28.1170,0.13,-9.09,2.9,9.54
2022-11-11 12:50:28.1270,-1.7,-9.37,3.65,10.19
2022-11-11 12:50:28.1870,-3.08,-9.38,4.28,10.76
2022-11-11 12:50:28.1890,-3.56,-9.24,4.63,10.93
2022-11-11 12:50:28.1900,-3.68,-9.1,4.23,10.68
2022-11-11 12:50:28.1920,-3.67,-9.31,3.08,10.47
2022-11-11 12:50:28.1940,-3.55,-9.82,1.65,10.57
2022-11-11 12:50:28.1960,-4.08,-10.27,-0.09,11.05
2022-11-11 12:50:28.1980,-5.07,-9.82,-0.98,11.09
2022-11-11 12:50:28.2070,-6.14,-8.29,-1.02,10.36
2022-11-11 12:50:28.2160,-7.22,-6.24,-0.99,9.59
2022-11-11 12:50:28.2270,-7.72,-3.38,-0.72,8.45
2022-11-11 12:50:28.2870,-7.86,0.04,-0.72,7.89
2022-11-11 12:50:28.2890,-8.14,3.63,-1.64,9.06
2022-11-11 12:50:28.2900,-8.64,7.08,-3.31,11.65
2022-11-11 12:50:28.2920,-9.49,10.03,-4.84,14.63
2022-11-11 12:50:28.2930,-10.84,12.29,-6.14,17.49
2022-11-11 12:50:28.2950,-12.52,14.09,-6.97,20.09
2022-11-11 12:50:28.2970,-14.56,14.87,-8.26,22.39
2022-11-11 12:50:28.3060,-16.48,13.16,-9.89,23.29
2022-11-11 12:50:28.3160,-16.04,8.09,-9.22,20.19
2022-11-11 12:50:28.3260,-14.06,2.75,-6.58,15.76
2022-11-11 12:50:28.3870,-12.44,-0.59,-4.86,13.36
2022-11-11 12:50:28.3880,-8.29,-0.44,-2.47,8.66
2022-11-11 12:50:28.3900,6.27,3.11,4.89,8.53
2022-11-11 12:50:28.3910,31.06,8.22,21.82,38.83
2022-11-11 12:50:28.3930,32.56,18.54,12.73,39.57
2022-11-11 12:50:28.3950,3.31,18.7,-3.82,19.37
2022-11-11 12:50:28.3970,-7.43,6.96,-3.64,10.81
2022-11-11 12:50:28.4060,-9.33,-1.29,0.34,9.42
2022-11-11 12:50:28.4150,-12.06,-5.03,-4.05,13.68
2022-11-11 12:50:28.4260,-12.36,-6.61,-12.62,18.86
2022-11-11 12:50:28.4870,-7.8,-6.45,-7.88,12.82
2022-11-11 12:50:28.4880,-4.84,1.21,-3.86,6.3
2022-11-11 12:50:28.4890,-6.2,3.8,-4.2,8.39
2022-11-11 12:50:28.4910,-5.43,2.53,0.49,6.01
2022-11-11 12:50:28.4930,-4.39,1.74,3.06,5.62
2022-11-11 12:50:28.4950,-4.56,3.17,3.6,6.61
2022-11-11 12:50:28.4970,-3.65,3.75,2.46,5.78
2022-11-11 12:50:28.5050,-0.84,2.19,1.93,3.03
2022-11-11 12:50:28.5150,2.55,0.79,0.32,2.68
2022-11-11 12:50:28.5250,5.35,-0.82,-2.31,5.88
2022-11-11 12:50:28.5870,5.22,-1.91,-2.88,6.26
2022-11-11 12:50:28.5880,2.18,-1.9,-2.29,3.68
2022-11-11 12:50:28.5900,-0.34,-1.48,-1.32,2.01
2022-11-11 12:50:28.5910,-1.22,-1.22,-1.19,2.09
2022-11-11 12:50:28.5930,-0.43,-1.16,-1.55,1.98
2022-11-11 12:50:28.5950,0.64,-1.1,-1.34,1.84
2022-11-11 12:50:28.5980,1.14,-0.84,-0.45,1.48
2022-11-11 12:50:28.6040,1.65,-0.49,-0.34,1.75
2022-11-11 12:50:28.6140,2.26,-0.48,-0.98,2.5
2022-11-11 12:50:28.6240,2.61,-0.33,-1.17,2.87
2022-11-11 12:50:28.6870,1.88,0.34,-0.7,2.03
2022-11-11 12:50:28.6880,0.2,1.24,0.3,1.29
2022-11-11 12:50:28.6890,-0.75,1.64,1.06,2.09
2022-11-11 12:50:28.6910,-0.81,1.31,1.01,1.84
2022-11-11 12:50:28.6930,-0.4,0.33,0.6,0.79
2022-11-11 12:50:28.6950,0.48,0.09,0.13,0.5
2022-11-11 12:50:28.6960,1.48,1.11,-0.89,2.05
2022-11-11 12:50:28.7040,1.7,1.65,-1.4,2.75
2022-11-11 12:50:28.7130,1.64,1.69,-1.92,3.03
2022-11-11 12:50:28.7240,1.64,3.12,-1.34,3.77
2022-11-11 12:50:28.7860,1.51,4.23,-1.07,4.61
2022-11-11 12:50:28.7880,1.44,5.2,0.83,5.45
2022-11-11 12:50:28.7890,2.02,5.43,0.92,5.86
2022-11-11 12:50:28.7910,3.54,5.31,1.11,6.47
2022-11-11 12:50:28.7930,5.17,5.67,0.96,7.73
2022-11-11 12:50:28.7950,6.37,6.12,0.98,8.88
2022-11-11 12:50:28.7960,6.62,6.48,1.36,9.36
2022-11-11 12:50:28.8030,6.86,6.81,1.62,9.8
2022-11-11 12:50:28.8130,7.69,6.98,1.45,10.48
2022-11-11 12:50:28.8230,9.14,6.93,0.55,11.48
2022-11-11 12:50:28.8860,11.03,6.79,-0.27,12.95
2022-11-11 12:50:28.8870,12.95,6.64,-0.73,14.57
2022-11-11 12:50:28.8890,13.87,6.93,-0.79,15.52
2022-11-11 12:50:28.8900,13.8,9.19,-1.03,16.61
2022-11-11 12:50:28.8920,15.79,12.14,-0.11,19.91
2022-11-11 12:50:28.8940,15.27,12.52,-4.49,20.25
2022-11-11 12:50:28.8960,12.57,12.57,-14.19,22.74
2022-11-11 12:50:28.9020,12.4,14.42,-15.96,24.82
2022-11-11 12:50:28.9130,12.63,15.31,-7.4,21.18
2022-11-11 12:50:28.9230,8.24,16.56,-5.95,19.43
2022-11-11 12:50:28.9850,3.07,15.74,-5.19,16.85
2022-11-11 12:50:28.9870,0.77,13.55,-3.81,14.09
2022-11-11 12:50:28.9880,0.79,10.39,-2.67,10.75
2022-11-11 12:50:28.9900,2.44,7.84,-0.03,8.21
2022-11-11 12:50:28.9920,3.11,5.64,0.12,6.44
2022-11-11 12:50:28.9940,2.69,1.39,-0.64,3.09
2022-11-11 12:50:28.9950,2.32,-2.37,-0.01,3.31
2022-11-11 12:50:29.0020,1.26,-3.78,0.56,4.02
2022-11-11 12:50:29.0120,0.83,-4.75,0.94,4.91
2022-11-11 12:50:29.0220,3.01,-5.53,2.46,6.75
2022-11-11 12:50:29.0860,5.22,-5.37,3.04,8.08
2022-11-11 12:50:29.0880,5.38,-5.51,3.12,8.3
2022-11-11 12:50:29.0890,4.77,-5.37,4.22,8.33
2022-11-11 12:50:29.0900,3.93,-5.48,4.92,8.34
2022-11-11 12:50:29.0920,3.57,-5.95,5.59,8.91
2022-11-11 12:50:29.0940,3.5,-5.88,5.12,8.54
2022-11-11 12:50:29.0960,3.87,-5.6,4.21,8.0
2022-11-11 12:50:29.1010,3.75,-5.68,3.5,7.65
2022-11-11 12:50:29.1110,2.38,-6.2,3.23,7.38
2022-11-11 12:50:29.1210,0.12,-6.92,2.88,7.49
2022-11-11 12:50:29.1860,-2.22,-7.73,2.82,8.52
2022-11-11 12:50:29.1870,-3.69,-7.76,3.71,9.35
2022-11-11 12:50:29.1880,-4.27,-6.27,4.25,8.69
2022-11-11 12:50:29.1900,-5.03,-5.01,3.32,7.83
2022-11-11 12:50:29.1920,-6.27,-4.81,1.72,8.08
2022-11-11 12:50:29.1940,-7.56,-5.02,0.18,9.07
2022-11-11 12:50:29.1960,-8.64,-4.71,-0.57,9.85
2022-11-11 12:50:29.2000,-8.98,-3.29,-0.53,9.57
2022-11-11 12:50:29.2100,-9.41,-1.51,-0.52,9.54
2022-11-11 12:50:29.2210,-10.66,0.01,-1.66,10.78
2022-11-11 12:50:29.2860,-12.44,1.58,-3.31,12.96
2022-11-11 12:50:29.2870,-13.91,3.66,-4.4,15.04
2022-11-11 12:50:29.2880,-14.81,6.23,-4.87,16.78
2022-11-11 12:50:29.2910,-15.11,8.94,-4.98,18.24
2022-11-11 12:50:29.2920,-15.46,10.97,-5.28,19.67
2022-11-11 12:50:29.2940,-16.36,11.57,-6.24,20.98
2022-11-11 12:50:29.2960,-17.26,9.46,-7.57,21.08
2022-11-11 12:50:29.3000,-16.39,5.41,-7.81,18.94
2022-11-11 12:50:29.3100,-13.48,2.39,-7.19,15.46
2022-11-11 12:50:29.3200,-10.29,1.62,-7.62,12.9
2022-11-11 12:50:29.3850,-8.09,2.14,-8.54,11.95
2022-11-11 12:50:29.3860,-7.13,3.1,-7.17,10.57
2022-11-11 12:50:29.3880,-5.46,3.19,-2.81,6.91
2022-11-11 12:50:29.3900,0.4,3.46,4.05,5.34
2022-11-11 12:50:29.3910,17.99,6.2,18.52,26.55
2022-11-11 12:50:29.3930,32.43,10.48,15.63,37.49
2022-11-11 12:50:29.3950,15.87,18.92,-2.92,24.86
2022-11-11 12:50:29.3990,-4.24,13.62,-7.75,16.23
2022-11-11 12:50:29.4090,-10.26,4.69,-5.36,12.48
2022-11-11 12:50:29.4200,-11.45,-1.39,-0.96,11.57
2022-11-11 12:50:29.4850,-11.43,-4.27,-1.61,12.3
2022-11-11 12:50:29.4860,-9.08,-6.11,-4.08,11.68
2022-11-11 12:50:29.4880,-4.81,-5.26,-7.48,10.33
2022-11-11 12:50:29.4900,-2.61,-0.58,-9.46,9.83
2022-11-11 12:50:29.4920,-3.3,2.35,-7.05,8.13
2022-11-11 12:50:29.4930,-4.42,1.99,-2.73,5.56
2022-11-11 12:50:29.4950,-4.39,2.02,1.32,5.0
2022-11-11 12:50:29.4990,-4.44,2.61,2.83,5.87
2022-11-11 12:50:29.5090,-4.18,3.28,2.65,5.93
2022-11-11 12:50:29.5190,-2.95,3.12,1.77,4.64
2022-11-11 12:50:29.5850,-0.89,1.65,1.49,2.39
2022-11-11 12:50:29.5870,1.95,0.09,0.46,2.0
2022-11-11 12:50:29.5880,5.16,-1.49,-1.04,5.47
2022-11-11 12:50:29.5900,6.07,-2.42,-3.12,7.24
2022-11-11 12:50:29.5910,2.88,-2.27,-3.39,4.99
2022-11-11 12:50:29.5930,-1.27,-1.88,-1.8,2.89
2022-11-11 12:50:29.5950,-2.87,-1.23,-0.51,3.16
2022-11-11 12:50:29.5980,-1.95,-0.23,-0.03,1.96
2022-11-11 12:50:29.6080,-0.28,0.17,-0.03,0.32
2022-11-11 12:50:29.6180,0.91,0.16,0.18,0.94
2022-11-11 12:50:29.6850,1.28,0.34,0.47,1.4
2022-11-11 12:50:29.6860,1.13,0.6,0.46,1.35
2022-11-11 12:50:29.6880,0.67,0.64,0.27,0.96
2022-11-11 12:50:29.6890,0.43,0.46,0.0,0.62
2022-11-11 12:50:29.6910,0.55,0.31,-0.24,0.67
2022-11-11 12:50:29.6930,0.57,0.01,-0.23,0.61
2022-11-11 12:50:29.6950,0.12,0.2,-0.13,0.26
2022-11-11 12:50:29.6970,-0.24,0.62,0.75,1.0
2022-11-11 12:50:29.7080,0.92,0.47,1.09,1.5
2022-11-11 12:50:29.7170,2.08,0.22,0.08,2.09
2022-11-11 12:50:29.7840,2.19,0.2,-0.99,2.41
2022-11-11 12:50:29.7850,1.64,1.02,-1.49,2.43
2022-11-11 12:50:29.7870,1.04,2.2,-1.82,3.03
2022-11-11 12:50:29.7890,1.06,2.84,-1.59,3.42
2022-11-11 12:50:29.7900,1.23,3.35,-1.68,3.94
2022-11-11 12:50:29.7920,1.99,4.66,-0.26,5.07
2022-11-11 12:50:29.7940,2.89,4.8,-0.62,5.63
2022-11-11 12:50:29.7970,3.89,5.05,0.36,6.38
2022-11-11 12:50:29.8070,4.06,5.11,0.45,6.54
2022-11-11 12:50:29.8170,3.93,5.38,1.12,6.75
2022-11-11 12:50:29.8840,4.21,6.04,1.42,7.49
2022-11-11 12:50:29.8850,5.17,6.38,1.38,8.32
2022-11-11 12:50:29.8870,6.65,6.35,0.74,9.22
2022-11-11 12:50:29.8880,8.31,6.16,-0.09,10.34
2022-11-11 12:50:29.8900,9.8,6.12,-0.42,11.56
2022-11-11 12:50:29.8920,10.73,6.47,-0.49,12.53
2022-11-11 12:50:29.8940,11.31,7.86,-1.35,13.83
2022-11-11 12:50:29.8960,12.78,8.87,-0.9,15.58
2022-11-11 12:50:29.9060,13.43,9.05,-1.35,16.25
2022-11-11 12:50:29.9170,14.63,8.53,-2.88,17.17
2022-11-11 12:50:29.9840,14.07,8.43,-7.21,17.91
2022-11-11 12:50:29.9860,10.8,10.44,-11.11,18.68
2022-11-11 12:50:29.9870,6.56,12.7,-8.89,16.83
2022-11-11 12:50:29.9890,3.2,13.67,-6.1,15.3
2022-11-11 12:50:29.9910,2.1,12.69,-4.35,13.57
2022-11-11 12:50:29.9920,2.54,11.13,-2.91,11.78
2022-11-11 12:50:29.9940,2.15,9.04,-3.03,9.77
2022-11-11 12:50:29.9960,3.12,6.92,-1.24,7.69
2022-11-11 12:50:30.0060,3.66,4.76,0.54,6.02
2022-11-11 12:50:30.0160,3.16,2.73,0.88,4.26
2022-11-11 12:50:30.0840,2.51,0.65,0.76,2.7
2022-11-11 12:50:30.0860,2.52,-1.61,0.68,3.06
2022-11-11 12:50:30.0870,4.04,-3.45,0.82,5.37
2022-11-11 12:50:30.0890,6.2,-4.62,0.73,7.76
2022-11-11 12:50:30.0910,7.59,-5.63,0.18,9.45
2022-11-11 12:50:30.0930,8.06,-6.2,0.15,10.16
2022-11-11 12:50:30.0940,7.53,-5.76,0.9,9.52
2022-11-11 12:50:30.0960,6.23,-4.83,1.72,8.06
2022-11-11 12:50:30.1050,5.04,-4.58,2.77,7.35
2022-11-11 12:50:30.1150,4.7,-4.59,4.45,7.93
2022-11-11 12:50:30.1830,4.21,-4.8,4.86,8.02
2022-11-11 12:50:30.1850,3.85,-4.88,5.18,8.09
2022-11-11 12:50:30.1860,3.32,-4.87,5.3,7.92
2022-11-11 12:50:30.1880,1.93,-5.12,5.03,7.43
2022-11-11 12:50:30.1900,0.47,-5.04,4.66,6.88
2022-11-11 12:50:30.1910,-0.86,-4.62,4.02,6.18
2022-11-11 12:50:30.1930,-2.49,-4.05,2.69,5.46
2022-11-11 12:50:30.1950,-3.66,-3.43,2.03,5.41
2022-11-11 12:50:30.2050,-4.39,-3.13,1.71,5.65
2022-11-11 12:50:30.2160,-4.84,-2.55,0.69,5.51
2022-11-11 12:50:30.2840,-4.94,-1.79,-0.65,5.29
2022-11-11 12:50:30.2860,-5.13,-0.78,-2.41,5.72
2022-11-11 12:50:30.2870,-5.39,0.71,-3.81,6.63
2022-11-11 12:50:30.2890,-6.16,2.69,-4.79,8.25
2022-11-11 12:50:30.2900,-7.67,4.89,-5.4,10.57
2022-11-11 12:50:30.2920,-9.75,6.89,-5.88,13.3
2022-11-11 12:50:30.2940,-12.42,8.7,-6.42,16.46
2022-11-11 12:50:30.2950,-15.2,10.23,-6.79,19.53
2022-11-11 12:50:30.3040,-17.81,11.08,-6.22,21.87
2022-11-11 12:50:30.3140,-19.72,9.98,-4.83,22.62
2022-11-11 12:50:30.3830,-19.09,5.75,-4.79,20.5
2022-11-11 12:50:30.3840,-15.9,0.27,-5.7,16.89
2022-11-11 12:50:30.3850,-14.19,-2.51,-6.93,15.99
2022-11-11 12:50:30.3870,-12.76,-3.0,-7.81,15.25
2022-11-11 12:50:30.3890,-11.36,-2.34,-7.85,14.0
2022-11-11 12:50:30.3910,-10.18,-0.78,-6.32,12.0
2022-11-11 12:50:30.3930,-8.27,0.86,-3.39,8.97
2022-11-11 12:50:30.3950,-1.91,3.77,3.22,5.31
2022-11-11 12:50:30.4030,10.63,6.45,15.65,19.98
2022-11-11 12:50:30.4130,17.46,11.35,11.49,23.78
2022-11-11 12:50:30.4840,6.89,15.86,-4.72,17.92
2022-11-11 12:50:30.4850,-1.74,12.1,-6.5,13.84
2022-11-11 12:50:30.4870,-6.27,6.5,-3.33,9.62
2022-11-11 12:50:30.4890,-8.61,0.76,-0.31,8.64
2022-11-11 12:50:30.4900,-8.22,-2.74,-0.74,8.69
2022-11-11 12:50:30.4920,-8.07,-5.69,-5.55,11.32
2022-11-11 12:50:30.4940,-4.99,-6.72,-5.1,9.8
2022-11-11 12:50:30.4950,-0.89,-1.25,-3.97,4.25
2022-11-11 12:50:30.5030,-1.49,2.21,-5.38,6.0
2022-11-11 12:50:30.5130,-2.66,2.51,-2.78,4.59
2022-11-11 12:50:30.5840,-3.33,1.75,0.13,3.76
2022-11-11 12:50:30.5850,-3.87,1.21,1.21,4.23
2022-11-11 12:50:30.5860,-3.41,1.94,1.19,4.09
2022-11-11 12:50:30.5880,-2.23,2.47,0.63,3.38
2022-11-11 12:50:30.5900,-1.1,1.91,0.04,2.2
2022-11-11 12:50:30.5920,0.08,0.7,-0.62,0.93
2022-11-11 12:50:30.5930,1.5,-0.51,-0.78,1.76
2022-11-11 12:50:30.5950,2.31,-1.21,-0.5,2.65
2022-11-11 12:50:30.6020,1.82,-1.16,-0.74,2.28
2022-11-11 12:50:30.6120,0.32,-0.82,-1.08,1.39
2022-11-11 12:50:30.6830,-1.1,-0.43,-0.66,1.35
2022-11-11 12:50:30.6850,-1.74,0.01,-0.29,1.76
2022-11-11 12:50:30.6860,-1.57,0.18,-0.08,1.58
2022-11-11 12:50:30.6880,-0.79,0.09,0.1,0.8
2022-11-11 12:50:30.6890,0.38,-0.04,-0.17,0.41
2022-11-11 12:50:30.6910,1.52,-0.2,-0.69,1.68
2022-11-11 12:50:30.6930,2.26,-0.46,-1.0,2.51
2022-11-11 12:50:30.6940,2.51,-0.61,-1.07,2.79
2022-11-11 12:50:30.7010,2.49,-0.63,-1.02,2.76
2022-11-11 12:50:30.7110,2.15,-0.59,-1.02,2.45
2022-11-11 12:50:30.7830,1.21,-0.44,-0.71,1.47
2022-11-11 12:50:30.7850,0.21,-0.26,-0.34,0.47
2022-11-11 12:50:30.7860,0.11,-0.14,0.34,0.38
2022-11-11 12:50:30.7880,0.54,0.17,0.07,0.57
2022-11-11 12:50:30.7890,0.91,0.2,-0.35,0.99
2022-11-11 12:50:30.7910,0.79,0.05,-0.21,0.81
2022-11-11 12:50:30.7940,0.45,0.15,0.08,0.48
2022-11-11 12:50:30.7950,0.33,0.22,0.09,0.4
2022-11-11 12:50:30.8010,0.45,0.28,-0.5,0.72
2022-11-11 12:50:30.8110,0.18,0.16,-0.55,0.6
2022-11-11 12:50:30.8820,0.36,0.4,-0.39,0.66
2022-11-11 12:50:30.8830,0.32,0.5,-0.97,1.13
2022-11-11 12:50:30.8850,0.52,0.31,-1.22,1.36
2022-11-11 12:50:30.8870,1.29,0.17,-1.06,1.67
2022-11-11 12:50:30.8880,1.94,0.03,-0.95,2.16
2022-11-11 12:50:30.8900,3.14,0.3,-0.86,3.26
2022-11-11 12:50:30.8920,3.94,0.77,-0.97,4.13
2022-11-11 12:50:30.8940,3.38,1.39,-0.85,3.75
2022-11-11 12:50:30.9000,2.41,2.36,-0.02,3.37
2022-11-11 12:50:30.9150,1.94,3.52,0.65,4.07
2022-11-11 12:50:30.9850,2.44,4.59,1.35,5.37
2022-11-11 12:50:30.9860,3.73,5.54,0.48,6.69
2022-11-11 12:50:30.9870,5.4,6.39,-1.14,8.44
2022-11-11 12:50:30.9890,6.3,7.78,-1.91,10.19
2022-11-11 12:50:30.9910,6.41,9.55,-1.75,11.63
2022-11-11 12:50:30.9930,6.74,11.5,-0.9,13.35
2022-11-11 12:50:30.9940,8.09,13.19,-0.18,15.47
2022-11-11 12:50:30.9960,10.53,14.19,-0.08,17.67
2022-11-11 12:50:31.0000,12.71,13.91,-2.17,18.96
2022-11-11 12:50:31.0100,13.55,12.19,-4.82,18.85
2022-11-11 12:50:31.0820,12.72,8.45,-7.08,16.83
2022-11-11 12:50:31.0840,9.78,2.88,-8.16,13.05
2022-11-11 12:50:31.0850,4.96,-1.54,-9.77,11.06
2022-11-11 12:50:31.0870,-0.78,-2.91,-9.98,10.42
2022-11-11 12:50:31.0890,-4.06,-2.21,-7.85,9.1
2022-11-11 12:50:31.0910,-2.05,-0.16,-6.18,6.51
2022-11-11 12:50:31.0920,2.93,1.68,-5.21,6.2
2022-11-11 12:50:31.0940,4.8,0.11,-6.31,7.92
2022-11-11 12:50:31.0990,3.88,-2.76,-7.0,8.46
2022-11-11 12:50:31.1090,2.32,-4.34,-6.5,8.15
2022-11-11 12:50:31.1830,1.86,-4.16,-5.55,7.18
2022-11-11 12:50:31.1840,2.16,-3.91,-5.1,6.77
2022-11-11 12:50:31.1860,2.55,-4.78,-5.82,7.95
2022-11-11 12:50:31.1870,3.48,-5.93,-5.34,8.7
2022-11-11 12:50:31.1890,4.05,-6.3,-5.32,9.18
2022-11-11 12:50:31.1910,3.86,-6.44,-6.45,9.89
2022-11-11 12:50:31.1930,4.23,-6.99,-6.94,10.71
2022-11-11 12:50:31.1940,4.62,-7.63,-7.24,11.48
2022-11-11 12:50:31.2140,4.07,-8.08,-7.95,12.04
2022-11-11 12:50:31.2160,3.53,-8.05,-8.24,12.04
2022-11-11 12:50:31.2870,3.3,-7.56,-7.99,11.48
2022-11-11 12:50:31.2890,2.75,-6.98,-8.26,11.15
2022-11-11 12:50:31.2900,2.32,-6.74,-8.38,11.0
2022-11-11 12:50:31.2920,2.16,-6.4,-7.82,10.33
2022-11-11 12:50:31.2930,1.82,-5.49,-6.98,9.06
2022-11-11 12:50:31.2950,1.05,-4.28,-6.32,7.7
2022-11-11 12:50:31.2970,-0.05,-2.85,-5.96,6.6
2022-11-11 12:50:31.2990,-1.14,-1.18,-5.96,6.18
2022-11-11 12:50:31.3000,-2.08,0.43,-6.17,6.52
2022-11-11 12:50:31.3080,-2.69,1.64,-6.52,7.24
2022-11-11 12:50:31.3820,-2.83,2.28,-7.06,7.94
2022-11-11 12:50:31.3840,-3.06,2.29,-8.26,9.1
2022-11-11 12:50:31.3850,-3.53,1.7,-9.96,10.7
2022-11-11 12:50:31.3870,-3.77,0.63,-11.24,11.87
2022-11-11 12:50:31.3890,-4.16,-0.12,-11.67,12.38
2022-11-11 12:50:31.3910,-5.16,0.23,-11.72,12.8
2022-11-11 12:50:31.3930,-7.07,1.43,-11.48,13.55
2022-11-11 12:50:31.3940,-9.99,2.99,-10.14,14.54
2022-11-11 12:50:31.4140,-13.22,4.58,-7.35,15.8
2022-11-11 12:50:31.4160,-16.19,5.97,-4.36,17.79
2022-11-11 12:50:31.4890,-16.92,6.03,-2.62,18.15
2022-11-11 12:50:31.4900,-13.69,2.92,-3.32,14.38
2022-11-11 12:50:31.4910,-10.06,-0.3,-4.54,11.04
2022-11-11 12:50:31.4930,-6.96,-1.95,-3.83,8.18
2022-11-11 12:50:31.4950,-4.81,-2.66,-3.32,6.42
2022-11-11 12:50:31.4970,-3.12,-1.76,-1.94,4.07
2022-11-11 12:50:31.4980,0.13,0.74,2.55,2.65
2022-11-11 12:50:31.5000,3.76,3.13,6.2,7.89
2022-11-11 12:50:31.5020,5.65,4.82,5.09,9.0
2022-11-11 12:50:31.5060,4.83,6.44,2.09,8.31
2022-11-11 12:50:31.5820,1.2,5.93,-0.34,6.05
2022-11-11 12:50:31.5840,-3.28,3.37,-2.38,5.27
2022-11-11 12:50:31.5850,-6.59,0.69,-3.35,7.42
2022-11-11 12:50:31.5980,-6.35,-1.37,-2.2,6.85
2022-11-11 12:50:31.5990,-3.52,-1.52,-0.75,3.9
2022-11-11 12:50:31.6010,-1.4,-1.35,-0.69,2.06
2022-11-11 12:50:31.6030,-0.45,-1.66,-1.76,2.46
2022-11-11 12:50:31.6040,0.45,-1.94,-1.76,2.65
2022-11-11 12:50:31.6060,2.29,-0.97,-1.33,2.82
2022-11-11 12:50:31.6080,3.7,0.16,-1.72,4.08
2022-11-11 12:50:31.6820,3.56,0.91,-1.46,3.95
2022-11-11 12:50:31.6830,1.59,1.34,-0.91,2.26
2022-11-11 12:50:31.6850,-0.82,1.25,-0.46,1.56
2022-11-11 12:50:31.6870,-2.28,1.22,-0.17,2.59
2022-11-11 12:50:31.6890,-2.76,1.36,0.02,3.07
2022-11-11 12:50:31.6900,-2.19,1.15,0.02,2.47
2022-11-11 12:50:31.6920,-0.62,0.36,-0.96,1.19
2022-11-11 12:50:31.6940,0.99,-0.28,-1.39,1.72
2022-11-11 12:50:31.7140,1.98,-0.63,-1.07,2.33
2022-11-11 12:50:31.7150,2.0,-0.72,-0.82,2.27
2022-11-11 12:50:31.7900,1.24,-0.6,-0.66,1.52
2022-11-11 12:50:31.7920,0.44,-0.35,-0.25,0.61
2022-11-11 12:50:31.7930,0.03,-0.02,-0.16,0.16
2022-11-11 12:50:31.7950,-0.13,0.1,-0.24,0.29
2022-11-11 12:50:31.7970,-0.1,0.05,-0.38,0.39
2022-11-11 12:50:31.7980,0.02,-0.07,-0.43,0.43
2022-11-11 12:50:31.8000,-0.01,0.0,0.11,0.11
2022-11-11 12:50:31.8020,-0.41,0.38,0.49,0.74
2022-11-11 12:50:31.8030,-0.16,0.55,0.51,0.76
2022-11-11 12:50:31.8050,0.14,0.45,-0.23,0.52
2022-11-11 12:50:31.8810,0.54,0.12,-0.57,0.79
2022-11-11 12:50:31.8830,1.07,-0.14,-0.6,1.23
2022-11-11 12:50:31.8840,1.26,-0.2,-1.0,1.62
2022-11-11 12:50:31.8970,0.93,-0.26,-0.94,1.34
2022-11-11 12:50:31.8980,0.54,-0.18,-0.59,0.81
2022-11-11 12:50:31.9000,0.74,-0.02,-0.31,0.8
2022-11-11 12:50:31.9020,1.24,-0.03,0.0,1.24
2022-11-11 12:50:31.9040,1.66,-0.03,-0.38,1.7
2022-11-11 12:50:31.9050,1.89,-0.14,-0.67,2.01
2022-11-11 12:50:31.9070,2.03,-0.39,-0.64,2.16
2022-11-11 12:50:31.9810,2.13,-0.26,-0.87,2.31
2022-11-11 12:50:31.9830,1.96,-0.09,-1.13,2.26
2022-11-11 12:50:31.9840,1.45,-0.21,-1.0,1.77
2022-11-11 12:50:31.9860,0.19,0.14,-0.37,0.43
2022-11-11 12:50:31.9880,-0.77,0.82,-0.01,1.12
2022-11-11 12:50:31.9900,-0.32,1.15,0.41,1.26
2022-11-11 12:50:31.9920,0.4,1.41,0.03,1.46
2022-11-11 12:50:31.9930,1.27,1.37,-0.3,1.89
2022-11-11 12:50:32.0130,1.89,1.32,-0.84,2.45
2022-11-11 12:50:32.0150,1.53,1.5,-1.09,2.4
2022-11-11 12:50:32.0900,1.34,2.41,-0.59,2.81
2022-11-11 12:50:32.0910,0.05,3.78,-0.36,3.79
2022-11-11 12:50:32.0920,-0.54,4.92,0.33,4.96
2022-11-11 12:50:32.0940,-0.64,5.53,0.86,5.63
2022-11-11 12:50:32.0960,0.11,5.57,0.66,5.61
2022-11-11 12:50:32.0980,2.18,5.1,-0.22,5.55
2022-11-11 12:50:32.1000,4.02,4.34,-1.48,6.09
2022-11-11 12:50:32.1020,5.21,3.3,-2.23,6.55
2022-11-11 12:50:32.1040,5.69,3.11,-2.2,6.84
2022-11-11 12:50:32.1050,5.46,3.7,-2.12,6.92
2022-11-11 12:50:32.1800,5.28,4.42,-2.06,7.18
2022-11-11 12:50:32.1820,5.91,4.65,-2.31,7.86
2022-11-11 12:50:32.1830,7.12,4.76,-2.65,8.96
2022-11-11 12:50:32.1850,8.75,4.59,-3.29,10.41
2022-11-11 12:50:32.1870,10.12,3.97,-4.01,11.58
2022-11-11 12:50:32.1880,10.8,3.42,-5.3,12.5
2022-11-11 12:50:32.1900,11.16,2.94,-5.87,12.94
2022-11-11 12:50:32.1920,10.67,2.99,-5.61,12.42
2022-11-11 12:50:32.1930,8.72,4.59,-7.2,12.2
2022-11-11 12:50:32.2130,7.26,7.0,-6.97,12.25
2022-11-11 12:50:32.2890,7.83,9.62,-7.19,14.33
2022-11-11 12:50:32.2900,8.74,10.89,-7.83,16.0
2022-11-11 12:50:32.2920,8.58,10.72,-9.11,16.47
2022-11-11 12:50:32.2930,7.3,10.0,-9.52,15.61
2022-11-11 12:50:32.2950,5.11,9.8,-10.0,14.9
2022-11-11 12:50:32.2970,4.03,9.13,-9.13,13.52
2022-11-11 12:50:32.2990,4.61,7.65,-6.59,11.09
2022-11-11 12:50:32.3010,5.36,6.45,-5.1,9.81
2022-11-11 12:50:32.3030,4.08,4.96,-5.68,8.57
2022-11-11 12:50:32.3040,2.4,3.65,-3.28,5.46
2022-11-11 12:50:32.3810,1.02,3.15,-1.57,3.66
2022-11-11 12:50:32.3820,0.2,2.58,-0.61,2.65
2022-11-11 12:50:32.3840,0.25,1.33,-0.47,1.43
2022-11-11 12:50:32.3960,1.69,-0.48,-0.04,1.75
2022-11-11 12:50:32.3970,3.8,-2.14,0.14,4.36
2022-11-11 12:50:32.3990,5.09,-3.82,-0.51,6.38
2022-11-11 12:50:32.4010,5.8,-5.11,-1.08,7.8
2022-11-11 12:50:32.4020,5.79,-6.12,-1.04,8.48
2022-11-11 12:50:32.4040,5.45,-6.89,-1.24,8.87
2022-11-11 12:50:32.4060,6.05,-6.66,-0.82,9.03
2022-11-11 12:50:32.4830,6.83,-6.12,-0.28,9.17
2022-11-11 12:50:32.4850,6.09,-6.26,-0.43,8.74
2022-11-11 12:50:32.4860,4.41,-6.73,-0.08,8.04
2022-11-11 12:50:32.4880,3.19,-6.82,0.7,7.56
2022-11-11 12:50:32.4890,2.4,-6.41,0.75,6.88
2022-11-11 12:50:32.4920,1.7,-6.17,0.61,6.42
2022-11-11 12:50:32.4930,0.75,-5.74,0.45,5.8
2022-11-11 12:50:32.5120,-0.49,-5.04,0.43,5.08
2022-11-11 12:50:32.5130,-2.25,-4.5,-0.08,5.03
2022-11-11 12:50:32.5150,-4.43,-4.13,-0.87,6.11
2022-11-11 12:50:32.5930,-5.74,-3.55,-1.43,6.89
2022-11-11 12:50:32.5950,-5.5,-2.66,-1.5,6.29
2022-11-11 12:50:32.5960,-5.38,-1.82,-2.15,6.07
2022-11-11 12:50:32.5980,-6.15,-0.51,-3.33,7.01
2022-11-11 12:50:32.6000,-6.95,1.5,-4.12,8.21
2022-11-11 12:50:32.6020,-7.65,4.0,-4.71,9.83
2022-11-11 12:50:32.6030,-8.87,6.91,-5.74,12.62
2022-11-11 12:50:32.6050,-10.37,9.97,-6.13,15.63
2022-11-11 12:50:32.6070,-11.78,12.59,-5.32,18.04
2022-11-11 12:50:32.6080,-13.7,13.83,-5.14,20.13
2022-11-11 12:50:32.6870,-16.32,12.04,-5.66,21.05
2022-11-11 12:50:32.6890,-17.7,6.58,-5.19,19.58
2022-11-11 12:50:32.6900,-16.97,0.2,-4.42,17.53
2022-11-11 12:50:32.6910,-15.12,-3.46,-4.59,16.17
2022-11-11 12:50:32.7120,-12.84,-2.98,-5.15,14.15
2022-11-11 12:50:32.7130,-11.32,-0.55,-4.71,12.27
