time,ax,ay,az,atotal
2022-11-20 11:53:31.0590,0.05,0.02,-0.24,0.24
2022-11-20 11:53:31.0820,0.14,-0.03,-0.11,0.18
2022-11-20 11:53:31.0840,0.11,0.04,-0.15,0.19
2022-11-20 11:53:31.0880,0.0,0.09,-0.11,0.14
2022-11-20 11:53:31.0980,-0.05,0.04,-0.07,0.09
2022-11-20 11:53:31.1080,-0.04,0.02,-0.07,0.08
2022-11-20 11:53:31.1180,-0.01,0.01,-0.12,0.12
2022-11-20 11:53:31.1280,0.04,-0.02,-0.16,0.16
2022-11-20 11:53:31.1390,0.09,-0.04,-0.19,0.21
2022-11-20 11:53:31.1480,0.17,0.03,-0.18,0.24
2022-11-20 11:53:31.1590,0.16,0.04,-0.16,0.22
2022-11-20 11:53:31.1820,0.05,0.01,-0.16,0.16
2022-11-20 11:53:31.1840,0.05,-0.03,-0.15,0.16
2022-11-20 11:53:31.1890,0.04,-0.02,-0.15,0.15
2022-11-20 11:53:31.1990,-0.03,0.04,-0.1,0.11
2022-11-20 11:53:31.2090,-0.07,0.06,-0.09,0.12
2022-11-20 11:53:31.2190,-0.05,0.05,-0.11,0.13
2022-11-20 11:53:31.2290,0.06,-0.01,-0.14,0.15
2022-11-20 11:53:31.2390,0.15,-0.03,-0.16,0.22
2022-11-20 11:53:31.2490,0.15,0.0,-0.17,0.22
2022-11-20 11:53:31.2590,0.11,0.08,-0.12,0.18
2022-11-20 11:53:31.2820,0.01,0.09,-0.08,0.12
2022-11-20 11:53:31.2830,-0.07,0.03,-0.09,0.11
2022-11-20 11:53:31.2900,-0.04,-0.01,-0.15,0.15
2022-11-20 11:53:31.2990,0.04,0.0,-0.14,0.14
2022-11-20 11:53:31.3090,0.1,0.01,-0.17,0.19
2022-11-20 11:53:31.3200,0.13,-0.02,-0.23,0.26
2022-11-20 11:53:31.3290,0.15,-0.01,-0.2,0.25
2022-11-20 11:53:31.3390,0.14,0.03,-0.2,0.24
2022-11-20 11:53:31.3490,0.12,0.04,-0.2,0.23
2022-11-20 11:53:31.3600,0.1,0.02,-0.17,0.19
2022-11-20 11:53:31.3820,0.06,0.0,-0.1,0.11
2022-11-20 11:53:31.3840,0.03,0.02,-0.1,0.1
2022-11-20 11:53:31.3900,0.02,0.06,-0.1,0.11
2022-11-20 11:53:31.4000,0.02,0.04,-0.06,0.07
2022-11-20 11:53:31.4100,0.03,0.01,-0.09,0.09
2022-11-20 11:53:31.4200,0.03,-0.02,-0.09,0.09
2022-11-20 11:53:31.4300,0.02,-0.01,-0.05,0.05
2022-11-20 11:53:31.4400,0.01,0.03,-0.13,0.13
2022-11-20 11:53:31.4500,0.06,0.04,-0.16,0.17
2022-11-20 11:53:31.4600,0.06,0.01,-0.17,0.18
2022-11-20 11:53:31.4850,0.05,-0.01,-0.18,0.18
2022-11-20 11:53:31.4870,0.06,-0.01,-0.17,0.18
2022-11-20 11:53:31.4900,0.1,0.01,-0.16,0.18
2022-11-20 11:53:31.5000,0.12,0.03,-0.13,0.17
2022-11-20 11:53:31.5100,0.07,0.0,-0.2,0.21
2022-11-20 11:53:31.5200,0.04,-0.02,-0.26,0.26
2022-11-20 11:53:31.5300,0.07,-0.02,-0.27,0.27
2022-11-20 11:53:31.5400,0.1,-0.01,-0.25,0.26
2022-11-20 11:53:31.5500,0.13,0.01,-0.24,0.27
2022-11-20 11:53:31.5610,0.14,0.03,-0.26,0.29
2022-11-20 11:53:31.5840,0.1,0.02,-0.23,0.25
2022-11-20 11:53:31.5860,0.05,0.0,-0.14,0.14
2022-11-20 11:53:31.5910,0.03,-0.02,-0.07,0.07
2022-11-20 11:53:31.6000,0.04,0.01,-0.03,0.05
2022-11-20 11:53:31.6110,0.08,0.04,0.01,0.09
2022-11-20 11:53:31.6210,0.11,0.03,-0.02,0.11
2022-11-20 11:53:31.6310,0.13,0.03,-0.08,0.15
2022-11-20 11:53:31.6410,0.12,-0.03,0.0,0.12
2022-11-20 11:53:31.6510,0.12,-0.05,0.0,0.13
2022-11-20 11:53:31.6610,0.13,-0.02,0.0,0.13
2022-11-20 11:53:31.6850,0.07,0.01,0.05,0.08
2022-11-20 11:53:31.6870,0.0,0.05,0.04,0.06
2022-11-20 11:53:31.6910,-0.06,0.06,-0.04,0.09
2022-11-20 11:53:31.7010,-0.05,0.05,-0.1,0.12
2022-11-20 11:53:31.7110,-0.03,0.02,-0.12,0.12
2022-11-20 11:53:31.7210,0.01,0.0,-0.17,0.17
2022-11-20 11:53:31.7320,0.09,0.02,-0.2,0.22
2022-11-20 11:53:31.7410,0.15,0.01,-0.21,0.25
2022-11-20 11:53:31.7510,0.2,-0.01,-0.21,0.29
2022-11-20 11:53:31.7610,0.2,-0.03,-0.22,0.29
2022-11-20 11:53:31.7850,0.12,-0.03,-0.25,0.27
2022-11-20 11:53:31.7880,0.01,0.02,-0.23,0.23
2022-11-20 11:53:31.7920,-0.07,0.05,-0.16,0.18
2022-11-20 11:53:31.8020,-0.11,0.07,-0.13,0.18
2022-11-20 11:53:31.8120,-0.07,0.04,-0.11,0.13
2022-11-20 11:53:31.8220,0.02,0.0,-0.1,0.1
2022-11-20 11:53:31.8310,0.11,-0.02,-0.13,0.17
2022-11-20 11:53:31.8420,0.16,-0.03,-0.16,0.22
2022-11-20 11:53:31.8520,0.14,-0.02,-0.14,0.19
2022-11-20 11:53:31.8620,0.11,0.03,-0.09,0.14
2022-11-20 11:53:31.8860,0.06,0.05,-0.06,0.09
2022-11-20 11:53:31.8890,0.0,0.03,-0.08,0.08
2022-11-20 11:53:31.8920,-0.03,0.02,-0.11,0.11
2022-11-20 11:53:31.9020,0.0,0.03,-0.11,0.11
2022-11-20 11:53:31.9120,0.04,0.03,-0.13,0.13
2022-11-20 11:53:31.9220,0.05,0.0,-0.17,0.17
2022-11-20 11:53:31.9320,0.1,-0.02,-0.22,0.24
2022-11-20 11:53:31.9420,0.15,-0.02,-0.22,0.26
2022-11-20 11:53:31.9530,0.12,-0.01,-0.18,0.21
2022-11-20 11:53:31.9620,0.07,0.02,-0.17,0.18
2022-11-20 11:53:31.9860,0.03,0.04,-0.15,0.15
2022-11-20 11:53:31.9910,0.01,0.02,-0.14,0.14
2022-11-20 11:53:31.9930,0.03,0.01,-0.16,0.16
2022-11-20 11:53:32.0030,0.05,-0.01,-0.2,0.2
2022-11-20 11:53:32.0120,0.08,-0.01,-0.18,0.19
2022-11-20 11:53:32.0230,0.09,0.02,-0.12,0.15
2022-11-20 11:53:32.0330,0.04,0.02,-0.08,0.09
2022-11-20 11:53:32.0430,0.04,0.0,-0.05,0.06
2022-11-20 11:53:32.0530,0.08,0.0,-0.07,0.1
2022-11-20 11:53:32.0630,0.12,0.01,-0.09,0.15
2022-11-20 11:53:32.0870,0.11,0.03,-0.1,0.15
2022-11-20 11:53:32.0880,0.09,0.0,-0.11,0.14
2022-11-20 11:53:32.0930,0.07,0.0,-0.11,0.13
2022-11-20 11:53:32.1050,0.05,0.03,-0.11,0.12
2022-11-20 11:53:32.1130,0.0,0.02,-0.08,0.08
2022-11-20 11:53:32.1230,0.0,0.02,-0.13,0.13
2022-11-20 11:53:32.1330,0.05,0.04,-0.14,0.15
2022-11-20 11:53:32.1430,0.06,0.04,-0.14,0.15
2022-11-20 11:53:32.1530,0.06,0.03,-0.13,0.14
2022-11-20 11:53:32.1630,0.07,-0.01,-0.17,0.18
2022-11-20 11:53:32.1870,0.13,-0.01,-0.2,0.23
2022-11-20 11:53:32.1890,0.14,0.01,-0.18,0.22
2022-11-20 11:53:32.1930,0.11,-0.01,-0.15,0.18
2022-11-20 11:53:32.2050,0.06,0.0,-0.15,0.16
2022-11-20 11:53:32.2130,0.02,0.04,-0.16,0.16
2022-11-20 11:53:32.2230,0.01,0.04,-0.15,0.15
2022-11-20 11:53:32.2340,0.02,-0.04,-0.1,0.1
2022-11-20 11:53:32.2440,0.03,-0.01,-0.1,0.1
2022-11-20 11:53:32.2540,0.06,0.02,-0.06,0.08
2022-11-20 11:53:32.2640,0.1,-0.01,-0.04,0.1
2022-11-20 11:53:32.2900,0.11,-0.07,0.0,0.13
2022-11-20 11:53:32.2920,0.13,-0.03,0.1,0.16
2022-11-20 11:53:32.2940,0.02,0.03,0.22,0.22
2022-11-20 11:53:32.3060,-0.1,-0.02,0.31,0.32
2022-11-20 11:53:32.3140,-0.11,0.04,0.31,0.33
2022-11-20 11:53:32.3240,-0.02,0.13,0.11,0.17
2022-11-20 11:53:32.3340,0.37,0.03,-0.32,0.49
2022-11-20 11:53:32.3440,1.06,-0.19,-0.6,1.23
2022-11-20 11:53:32.3550,0.69,-0.15,0.17,0.72
2022-11-20 11:53:32.3640,0.07,-0.05,-0.03,0.09
2022-11-20 11:53:32.3890,-0.38,0.22,0.0,0.43
2022-11-20 11:53:32.3910,-0.44,0.2,-0.03,0.48
2022-11-20 11:53:32.3940,-0.29,0.06,-0.04,0.29
2022-11-20 11:53:32.4060,-0.17,0.02,-0.16,0.23
2022-11-20 11:53:32.4150,0.02,-0.05,-0.28,0.28
2022-11-20 11:53:32.4250,0.14,-0.04,-0.37,0.39
2022-11-20 11:53:32.4350,0.22,0.01,-0.38,0.43
2022-11-20 11:53:32.4450,0.22,0.03,-0.38,0.44
2022-11-20 11:53:32.4550,0.09,-0.01,-0.39,0.4
2022-11-20 11:53:32.4650,-0.04,-0.01,-0.35,0.35
2022-11-20 11:53:32.4940,-0.09,0.03,-0.19,0.21
2022-11-20 11:53:32.4960,-0.09,0.06,-0.07,0.12
2022-11-20 11:53:32.4980,-0.03,0.08,-0.03,0.09
2022-11-20 11:53:32.5060,0.02,0.05,-0.03,0.06
2022-11-20 11:53:32.5150,0.07,0.0,-0.05,0.08
2022-11-20 11:53:32.5250,0.13,-0.01,-0.08,0.15
2022-11-20 11:53:32.5350,0.16,-0.04,-0.16,0.22
2022-11-20 11:53:32.5450,0.21,-0.04,-0.17,0.27
2022-11-20 11:53:32.5550,0.18,-0.02,-0.11,0.21
2022-11-20 11:53:32.5650,0.08,0.01,-0.06,0.1
2022-11-20 11:53:32.5920,0.01,0.03,-0.02,0.03
2022-11-20 11:53:32.5940,-0.03,0.04,-0.07,0.08
2022-11-20 11:53:32.5960,0.02,0.03,-0.14,0.14
2022-11-20 11:53:32.6060,0.11,-0.01,-0.22,0.24
2022-11-20 11:53:32.6150,0.18,-0.06,-0.3,0.35
2022-11-20 11:53:32.6260,0.2,-0.08,-0.32,0.38
2022-11-20 11:53:32.6360,0.13,-0.01,-0.25,0.28
2022-11-20 11:53:32.6460,0.0,0.07,-0.17,0.18
2022-11-20 11:53:32.6560,-0.11,0.08,-0.11,0.17
2022-11-20 11:53:32.6660,-0.09,0.03,-0.11,0.14
2022-11-20 11:53:32.6890,0.07,0.0,-0.1,0.12
2022-11-20 11:53:32.6910,0.18,-0.02,-0.08,0.19
2022-11-20 11:53:32.6960,0.22,-0.03,-0.05,0.22
2022-11-20 11:53:32.7060,0.14,-0.01,-0.03,0.14
2022-11-20 11:53:32.7160,0.03,0.02,0.0,0.03
2022-11-20 11:53:32.7260,-0.03,0.07,0.02,0.07
2022-11-20 11:53:32.7360,-0.01,0.06,0.07,0.09
2022-11-20 11:53:32.7460,0.07,0.02,0.09,0.11
2022-11-20 11:53:32.7560,0.12,0.01,0.06,0.13
2022-11-20 11:53:32.7660,0.09,-0.03,-0.01,0.09
2022-11-20 11:53:32.7890,0.05,-0.03,-0.13,0.14
2022-11-20 11:53:32.7910,0.03,0.01,-0.21,0.21
2022-11-20 11:53:32.7960,0.04,0.05,-0.18,0.19
2022-11-20 11:53:32.8070,0.05,0.06,-0.14,0.16
2022-11-20 11:53:32.8160,0.02,0.03,-0.11,0.11
2022-11-20 11:53:32.8260,-0.01,0.01,-0.12,0.12
2022-11-20 11:53:32.8370,-0.01,0.0,-0.1,0.1
2022-11-20 11:53:32.8460,0.01,0.01,-0.1,0.1
2022-11-20 11:53:32.8570,0.04,0.08,-0.08,0.12
2022-11-20 11:53:32.8670,0.02,0.1,-0.11,0.15
2022-11-20 11:53:32.8920,0.02,0.03,-0.22,0.22
2022-11-20 11:53:32.8940,0.09,-0.04,-0.32,0.33
2022-11-20 11:53:32.8970,0.17,-0.08,-0.37,0.41
2022-11-20 11:53:32.9070,0.21,-0.06,-0.31,0.37
2022-11-20 11:53:32.9170,0.11,0.0,-0.19,0.21
2022-11-20 11:53:32.9270,-0.05,0.07,-0.1,0.13
2022-11-20 11:53:32.9380,-0.12,0.11,-0.11,0.19
2022-11-20 11:53:32.9470,-0.09,0.07,-0.14,0.18
2022-11-20 11:53:32.9570,0.0,-0.02,-0.16,0.16
2022-11-20 11:53:32.9670,0.08,-0.04,-0.17,0.19
2022-11-20 11:53:32.9930,0.15,-0.01,-0.15,0.21
2022-11-20 11:53:32.9950,0.16,0.02,-0.1,0.18
2022-11-20 11:53:32.9970,0.14,0.0,-0.08,0.16
2022-11-20 11:53:33.0080,0.14,-0.03,-0.13,0.19
2022-11-20 11:53:33.0170,0.13,-0.03,-0.22,0.25
2022-11-20 11:53:33.0280,0.14,-0.01,-0.29,0.32
2022-11-20 11:53:33.0380,0.09,0.02,-0.36,0.37
2022-11-20 11:53:33.0470,0.01,0.05,-0.35,0.35
2022-11-20 11:53:33.0580,-0.06,0.04,-0.27,0.27
2022-11-20 11:53:33.0680,-0.08,0.02,-0.21,0.22
2022-11-20 11:53:33.0900,-0.04,0.01,-0.14,0.14
2022-11-20 11:53:33.0920,0.04,0.02,-0.1,0.1
2022-11-20 11:53:33.0980,0.11,0.04,-0.15,0.19
2022-11-20 11:53:33.1080,0.15,0.04,-0.12,0.19
2022-11-20 11:53:33.1180,0.13,0.01,-0.1,0.16
2022-11-20 11:53:33.1280,0.11,-0.01,-0.06,0.12
2022-11-20 11:53:33.1380,0.06,-0.01,0.06,0.08
2022-11-20 11:53:33.1480,0.01,0.0,0.15,0.15
2022-11-20 11:53:33.1580,-0.01,0.02,0.19,0.19
2022-11-20 11:53:33.1680,0.02,0.01,0.18,0.18
2022-11-20 11:53:33.1930,0.03,0.0,0.09,0.09
2022-11-20 11:53:33.1950,0.02,0.02,-0.01,0.03
2022-11-20 11:53:33.1990,0.03,0.03,-0.04,0.05
2022-11-20 11:53:33.2080,0.03,0.02,-0.05,0.06
2022-11-20 11:53:33.2180,0.07,0.01,-0.1,0.12
2022-11-20 11:53:33.2290,0.11,0.03,-0.13,0.17
2022-11-20 11:53:33.2390,0.07,0.04,-0.18,0.19
2022-11-20 11:53:33.2490,0.02,0.03,-0.2,0.2
2022-11-20 11:53:33.2590,0.0,-0.01,-0.24,0.24
2022-11-20 11:53:33.2690,0.01,0.01,-0.28,0.28
2022-11-20 11:53:33.2940,0.05,0.04,-0.24,0.24
2022-11-20 11:53:33.2970,0.09,0.02,-0.18,0.2
2022-11-20 11:53:33.2990,0.09,0.0,-0.14,0.16
2022-11-20 11:53:33.3090,0.09,-0.01,-0.08,0.12
2022-11-20 11:53:33.3190,0.05,0.0,-0.04,0.06
2022-11-20 11:53:33.3290,0.01,0.05,-0.05,0.07
2022-11-20 11:53:33.3390,0.03,0.03,-0.06,0.07
2022-11-20 11:53:33.3490,0.04,0.0,-0.1,0.1
2022-11-20 11:53:33.3590,0.05,-0.01,-0.12,0.13
2022-11-20 11:53:33.3690,0.06,-0.01,-0.06,0.08
2022-11-20 11:53:33.3910,0.06,0.01,-0.03,0.06
2022-11-20 11:53:33.3930,0.03,0.04,-0.01,0.05
2022-11-20 11:53:33.3990,0.0,0.05,0.01,0.05
2022-11-20 11:53:33.4090,-0.01,0.0,-0.03,0.03
2022-11-20 11:53:33.4190,0.04,-0.03,-0.12,0.13
2022-11-20 11:53:33.4290,0.12,0.0,-0.17,0.2
2022-11-20 11:53:33.4390,0.16,0.03,-0.18,0.24
2022-11-20 11:53:33.4500,0.14,0.04,-0.19,0.23
2022-11-20 11:53:33.4600,0.1,0.0,-0.17,0.19
2022-11-20 11:53:33.4700,0.06,-0.03,-0.14,0.15
2022-11-20 11:53:33.4930,0.03,-0.02,-0.09,0.09
2022-11-20 11:53:33.4950,0.03,0.02,-0.05,0.06
2022-11-20 11:53:33.5000,0.04,0.06,-0.06,0.09
2022-11-20 11:53:33.5100,0.04,0.03,-0.11,0.12
2022-11-20 11:53:33.5200,0.05,-0.01,-0.15,0.15
2022-11-20 11:53:33.5300,0.1,-0.02,-0.2,0.22
2022-11-20 11:53:33.5400,0.13,-0.02,-0.16,0.2
2022-11-20 11:53:33.5500,0.14,-0.02,-0.09,0.16
2022-11-20 11:53:33.5600,0.1,0.0,-0.05,0.11
2022-11-20 11:53:33.5700,0.02,0.02,-0.04,0.04
2022-11-20 11:53:33.5920,-0.03,0.03,-0.05,0.06
2022-11-20 11:53:33.5940,-0.04,0.04,-0.07,0.09
2022-11-20 11:53:33.6000,0.02,0.05,-0.11,0.12
2022-11-20 11:53:33.6110,0.12,0.02,-0.12,0.17
2022-11-20 11:53:33.6200,0.17,0.0,-0.09,0.19
2022-11-20 11:53:33.6300,0.12,-0.02,-0.09,0.15
2022-11-20 11:53:33.6400,0.04,-0.03,-0.1,0.11
2022-11-20 11:53:33.6500,0.0,-0.01,-0.1,0.1
2022-11-20 11:53:33.6600,-0.01,0.04,-0.1,0.1
2022-11-20 11:53:33.6710,0.0,0.04,-0.1,0.1
2022-11-20 11:53:33.6940,0.02,0.02,-0.1,0.1
2022-11-20 11:53:33.6950,0.06,0.03,-0.12,0.13
2022-11-20 11:53:33.7010,0.1,0.02,-0.13,0.16
2022-11-20 11:53:33.7110,0.11,0.0,-0.1,0.14
2022-11-20 11:53:33.7210,0.11,-0.02,-0.08,0.13
2022-11-20 11:53:33.7310,0.08,-0.01,-0.07,0.1
2022-11-20 11:53:33.7410,0.03,0.01,-0.04,0.05
2022-11-20 11:53:33.7510,-0.01,0.02,-0.07,0.07
2022-11-20 11:53:33.7610,0.0,0.04,-0.11,0.11
2022-11-20 11:53:33.7720,0.05,0.03,-0.15,0.16
2022-11-20 11:53:33.7950,0.08,0.02,-0.18,0.19
2022-11-20 11:53:33.7970,0.1,0.0,-0.17,0.19
2022-11-20 11:53:33.8010,0.07,-0.01,-0.11,0.13
2022-11-20 11:53:33.8110,0.04,0.01,-0.04,0.05
2022-11-20 11:53:33.8210,0.01,0.04,-0.02,0.04
2022-11-20 11:53:33.8310,0.02,0.04,-0.02,0.04
2022-11-20 11:53:33.8420,0.04,0.0,-0.04,0.05
2022-11-20 11:53:33.8510,0.07,-0.01,-0.1,0.12
2022-11-20 11:53:33.8620,0.1,0.02,-0.1,0.14
2022-11-20 11:53:33.8720,0.1,0.02,-0.09,0.13
2022-11-20 11:53:33.8970,0.08,0.02,-0.11,0.13
2022-11-20 11:53:33.8990,0.05,0.01,-0.09,0.1
2022-11-20 11:53:33.9020,0.04,0.0,-0.06,0.07
2022-11-20 11:53:33.9120,0.05,0.01,-0.07,0.08
2022-11-20 11:53:33.9220,0.07,0.01,-0.1,0.12
2022-11-20 11:53:33.9320,0.07,0.01,-0.09,0.11
2022-11-20 11:53:33.9420,0.08,0.01,-0.09,0.12
2022-11-20 11:53:33.9520,0.05,0.03,-0.14,0.15
2022-11-20 11:53:33.9620,0.04,0.01,-0.14,0.14
2022-11-20 11:53:33.9720,0.03,0.01,-0.13,0.13
2022-11-20 11:53:33.9970,0.01,0.03,-0.12,0.12
2022-11-20 11:53:33.9990,0.03,0.02,-0.13,0.13
2022-11-20 11:53:34.0020,0.08,-0.01,-0.14,0.16
2022-11-20 11:53:34.0120,0.09,0.0,-0.13,0.15
2022-11-20 11:53:34.0230,0.07,0.03,-0.15,0.16
2022-11-20 11:53:34.0320,0.05,0.03,-0.16,0.17
2022-11-20 11:53:34.0420,0.04,0.02,-0.13,0.13
2022-11-20 11:53:34.0520,0.02,0.01,-0.14,0.14
2022-11-20 11:53:34.0630,0.01,0.02,-0.14,0.14
2022-11-20 11:53:34.0730,-0.01,0.02,-0.1,0.1
2022-11-20 11:53:34.0940,-0.03,0.02,-0.09,0.09
2022-11-20 11:53:34.0950,0.01,0.01,-0.08,0.08
2022-11-20 11:53:34.1030,0.14,0.0,-0.02,0.14
2022-11-20 11:53:34.1130,0.2,-0.02,0.01,0.2
2022-11-20 11:53:34.1230,0.19,-0.01,0.03,0.19
2022-11-20 11:53:34.1330,0.1,0.01,0.04,0.1
2022-11-20 11:53:34.1430,0.01,0.03,0.02,0.03
2022-11-20 11:53:34.1530,-0.03,0.05,-0.01,0.05
2022-11-20 11:53:34.1630,-0.04,0.02,-0.04,0.06
2022-11-20 11:53:34.1730,0.0,-0.01,-0.06,0.06
2022-11-20 11:53:34.1970,0.05,0.02,-0.06,0.08
2022-11-20 11:53:34.1990,0.06,0.04,-0.06,0.09
2022-11-20 11:53:34.2030,0.05,0.02,-0.07,0.08
2022-11-20 11:53:34.2140,0.03,0.01,-0.08,0.08
2022-11-20 11:53:34.2230,0.04,0.02,-0.06,0.07
2022-11-20 11:53:34.2330,0.03,0.02,-0.04,0.05
2022-11-20 11:53:34.2430,0.02,0.01,-0.07,0.07
2022-11-20 11:53:34.2530,0.02,0.02,-0.09,0.09
2022-11-20 11:53:34.2630,0.07,0.02,-0.07,0.1
2022-11-20 11:53:34.2740,0.11,0.03,-0.03,0.11
2022-11-20 11:53:34.2950,0.08,0.03,-0.01,0.08
2022-11-20 11:53:34.2970,0.05,0.0,-0.03,0.05
2022-11-20 11:53:34.3040,0.01,0.0,-0.07,0.07
2022-11-20 11:53:34.3140,0.02,0.0,-0.09,0.09
2022-11-20 11:53:34.3240,0.08,0.0,-0.08,0.11
2022-11-20 11:53:34.3340,0.1,0.0,-0.13,0.16
2022-11-20 11:53:34.3440,0.12,0.02,-0.14,0.18
2022-11-20 11:53:34.3540,0.11,0.02,-0.07,0.13
2022-11-20 11:53:34.3650,0.02,0.03,-0.1,0.1
2022-11-20 11:53:34.3740,0.02,0.04,-0.07,0.08
2022-11-20 11:53:34.3980,0.03,0.04,-0.08,0.09
2022-11-20 11:53:34.4000,0.13,0.02,-0.18,0.22
2022-11-20 11:53:34.4040,0.33,-0.03,-0.27,0.42
2022-11-20 11:53:34.4140,0.52,-0.12,-0.25,0.58
2022-11-20 11:53:34.4240,0.46,-0.1,-0.17,0.5
2022-11-20 11:53:34.4340,0.2,-0.01,-0.04,0.2
2022-11-20 11:53:34.4450,-0.02,0.01,0.12,0.12
2022-11-20 11:53:34.4550,-0.17,0.03,0.21,0.27
2022-11-20 11:53:34.4640,-0.25,0.1,0.31,0.41
2022-11-20 11:53:34.4750,-0.19,0.11,0.37,0.43
2022-11-20 11:53:34.5000,0.01,0.03,0.37,0.37
2022-11-20 11:53:34.5020,0.23,-0.08,0.33,0.41
2022-11-20 11:53:34.5050,0.39,-0.13,0.24,0.47
2022-11-20 11:53:34.5150,0.42,-0.11,0.15,0.45
2022-11-20 11:53:34.5250,0.25,-0.04,0.1,0.27
2022-11-20 11:53:34.5350,0.0,0.05,0.06,0.07
2022-11-20 11:53:34.5450,-0.19,0.07,-0.07,0.21
2022-11-20 11:53:34.5550,-0.22,0.05,-0.17,0.28
2022-11-20 11:53:34.5650,-0.1,0.03,-0.21,0.23
2022-11-20 11:53:34.5750,0.08,0.01,-0.2,0.21
2022-11-20 11:53:34.5960,0.17,-0.01,-0.18,0.24
2022-11-20 11:53:34.5970,0.17,-0.02,-0.2,0.26
2022-11-20 11:53:34.6050,0.21,-0.02,-0.2,0.29
2022-11-20 11:53:34.6150,0.23,-0.04,-0.12,0.26
2022-11-20 11:53:34.6260,0.16,-0.05,-0.06,0.17
2022-11-20 11:53:34.6350,0.13,-0.02,0.11,0.17
2022-11-20 11:53:34.6450,0.1,0.03,0.3,0.31
2022-11-20 11:53:34.6550,0.06,0.07,0.37,0.38
2022-11-20 11:53:34.6650,0.08,0.01,0.43,0.43
2022-11-20 11:53:34.6760,0.12,-0.06,0.49,0.5
2022-11-20 11:53:34.6960,0.16,-0.09,0.53,0.56
2022-11-20 11:53:34.6980,0.22,-0.11,0.57,0.62
2022-11-20 11:53:34.7060,0.32,-0.11,0.5,0.6
2022-11-20 11:53:34.7160,0.28,-0.08,0.43,0.51
2022-11-20 11:53:34.7260,0.21,-0.1,0.46,0.51
2022-11-20 11:53:34.7360,0.1,-0.08,0.53,0.54
2022-11-20 11:53:34.7460,-0.19,-0.01,0.54,0.57
2022-11-20 11:53:34.7560,-0.4,0.08,0.45,0.6
2022-11-20 11:53:34.7660,-0.3,0.15,0.31,0.45
2022-11-20 11:53:34.7760,0.14,0.08,0.13,0.2
2022-11-20 11:53:34.7960,0.55,-0.19,0.03,0.58
2022-11-20 11:53:34.7980,0.54,-0.33,-0.08,0.63
2022-11-20 11:53:34.8070,0.33,-0.21,-0.04,0.39
2022-11-20 11:53:34.8160,0.14,-0.06,-0.01,0.15
2022-11-20 11:53:34.8260,-0.01,0.03,-0.01,0.03
2022-11-20 11:53:34.8360,-0.15,0.04,-0.15,0.21
2022-11-20 11:53:34.8470,-0.19,0.1,-0.32,0.38
2022-11-20 11:53:34.8560,-0.12,0.11,-0.17,0.23
2022-11-20 11:53:34.8660,-0.25,0.04,-0.22,0.33
2022-11-20 11:53:34.8760,-0.42,0.04,-0.33,0.53
2022-11-20 11:53:34.8960,-0.33,0.1,-0.24,0.42
2022-11-20 11:53:34.8980,-0.11,0.08,-0.26,0.29
2022-11-20 11:53:34.9070,0.08,0.08,-0.32,0.33
2022-11-20 11:53:34.9170,0.22,0.05,-0.2,0.3
2022-11-20 11:53:34.9270,0.22,-0.07,-0.15,0.27
2022-11-20 11:53:34.9370,0.04,-0.12,-0.08,0.14
2022-11-20 11:53:34.9470,-0.08,0.02,0.02,0.08
2022-11-20 11:53:34.9570,-0.04,0.2,-0.01,0.2
2022-11-20 11:53:34.9670,-0.02,0.12,-0.1,0.15
2022-11-20 11:53:34.9770,-0.07,-0.1,-0.03,0.12
2022-11-20 11:53:35.0000,-0.03,-0.23,0.17,0.28
2022-11-20 11:53:35.0020,0.01,-0.15,0.23,0.27
2022-11-20 11:53:35.0070,0.04,0.05,0.14,0.15
2022-11-20 11:53:35.0170,0.0,0.04,0.13,0.13
2022-11-20 11:53:35.0270,-0.1,0.03,0.22,0.24
2022-11-20 11:53:35.0370,-0.14,0.26,0.16,0.33
2022-11-20 11:53:35.0470,-0.17,0.36,-0.25,0.47
2022-11-20 11:53:35.0570,-0.06,0.14,-0.53,0.55
2022-11-20 11:53:35.0670,0.17,-0.14,-0.57,0.61
2022-11-20 11:53:35.0780,0.21,-0.22,-0.5,0.58
2022-11-20 11:53:35.1000,0.02,-0.1,-0.36,0.37
2022-11-20 11:53:35.1020,-0.24,0.03,-0.17,0.29
2022-11-20 11:53:35.1080,-0.32,0.05,-0.02,0.32
2022-11-20 11:53:35.1170,-0.2,0.01,0.04,0.2
2022-11-20 11:53:35.1280,-0.03,0.03,0.05,0.06
2022-11-20 11:53:35.1380,0.12,0.12,-0.09,0.19
2022-11-20 11:53:35.1480,0.27,0.14,-0.38,0.48
2022-11-20 11:53:35.1580,0.38,0.11,-0.57,0.69
2022-11-20 11:53:35.1680,0.4,0.07,-0.74,0.84
2022-11-20 11:53:35.1780,0.29,0.02,-0.85,0.89
2022-11-20 11:53:35.2010,0.12,-0.03,-0.93,0.93
2022-11-20 11:53:35.2030,-0.03,-0.09,-0.82,0.82
2022-11-20 11:53:35.2080,-0.14,-0.09,-0.69,0.7
2022-11-20 11:53:35.2190,-0.13,0.11,-0.64,0.66
2022-11-20 11:53:35.2280,-0.04,0.27,-0.46,0.53
2022-11-20 11:53:35.2380,0.01,0.2,-0.26,0.32
2022-11-20 11:53:35.2480,-0.01,0.1,-0.04,0.1
2022-11-20 11:53:35.2580,-0.03,-0.01,0.19,0.19
2022-11-20 11:53:35.2680,0.02,-0.13,0.44,0.45
2022-11-20 11:53:35.2780,0.13,-0.22,0.65,0.69
2022-11-20 11:53:35.3010,0.15,-0.21,0.77,0.81
2022-11-20 11:53:35.3030,0.09,-0.05,0.81,0.81
2022-11-20 11:53:35.3090,0.11,0.06,0.74,0.75
2022-11-20 11:53:35.3180,0.25,0.02,0.51,0.56
2022-11-20 11:53:35.3290,0.44,-0.07,0.13,0.46
2022-11-20 11:53:35.3390,0.49,-0.09,-0.24,0.55
2022-11-20 11:53:35.3490,0.36,-0.01,-0.46,0.58
2022-11-20 11:53:35.3590,0.19,0.08,-0.64,0.67
2022-11-20 11:53:35.3690,0.02,0.14,-0.72,0.73
2022-11-20 11:53:35.3790,-0.06,0.04,-0.76,0.76
2022-11-20 11:53:35.4010,-0.08,-0.14,-0.71,0.72
2022-11-20 11:53:35.4030,-0.05,-0.19,-0.49,0.52
2022-11-20 11:53:35.4090,-0.06,0.04,-0.1,0.12
2022-11-20 11:53:35.4190,-0.04,0.44,0.02,0.44
2022-11-20 11:53:35.4290,-0.13,0.47,-0.31,0.57
2022-11-20 11:53:35.4390,0.3,-0.05,-0.53,0.61
2022-11-20 11:53:35.4490,0.85,-0.48,-0.65,1.17
2022-11-20 11:53:35.4590,0.8,-0.49,-0.71,1.17
2022-11-20 11:53:35.4700,0.37,-0.25,-0.58,0.73
2022-11-20 11:53:35.4800,-0.11,0.05,-0.43,0.44
2022-11-20 11:53:35.5020,-0.32,0.34,-0.07,0.47
2022-11-20 11:53:35.5040,-0.24,0.37,0.22,0.49
2022-11-20 11:53:35.5090,0.01,0.14,0.23,0.26
2022-11-20 11:53:35.5200,0.28,0.03,0.17,0.32
2022-11-20 11:53:35.5300,0.42,0.11,0.04,0.43
2022-11-20 11:53:35.5400,0.32,0.03,-0.14,0.35
2022-11-20 11:53:35.5500,0.13,-0.12,-0.16,0.23
2022-11-20 11:53:35.5600,-0.09,0.03,-0.19,0.21
2022-11-20 11:53:35.5700,-0.25,0.26,-0.24,0.43
2022-11-20 11:53:35.5800,-0.24,0.31,-0.21,0.44
2022-11-20 11:53:35.6090,-0.08,0.29,-0.13,0.32
2022-11-20 11:53:35.6120,0.15,0.33,-0.09,0.37
2022-11-20 11:53:35.6140,0.2,0.13,0.1,0.25
2022-11-20 11:53:35.6230,0.15,-0.11,0.32,0.37
2022-11-20 11:53:35.6310,-0.09,-0.08,0.38,0.39
2022-11-20 11:53:35.6400,-0.31,-0.03,0.13,0.33
2022-11-20 11:53:35.6500,-0.16,0.04,-0.03,0.16
2022-11-20 11:53:35.6600,0.24,0.02,-0.11,0.26
2022-11-20 11:53:35.6700,0.55,-0.05,-0.22,0.59
2022-11-20 11:53:35.6800,0.58,0.0,-0.13,0.59
2022-11-20 11:53:35.7080,0.3,0.1,0.04,0.31
2022-11-20 11:53:35.7100,-0.05,0.08,0.21,0.23
2022-11-20 11:53:35.7130,-0.35,-0.05,0.31,0.47
2022-11-20 11:53:35.7230,-0.6,-0.05,0.3,0.67
2022-11-20 11:53:35.7310,-0.74,-0.02,0.25,0.78
2022-11-20 11:53:35.7410,-0.68,-0.09,0.02,0.68
2022-11-20 11:53:35.7510,-0.47,-0.12,-0.11,0.49
2022-11-20 11:53:35.7610,-0.26,-0.02,-0.16,0.3
2022-11-20 11:53:35.7710,-0.22,0.07,-0.34,0.41
2022-11-20 11:53:35.7810,-0.17,0.19,-0.73,0.77
2022-11-20 11:53:35.8050,-0.09,0.29,-0.9,0.94
2022-11-20 11:53:35.8070,-0.08,0.05,-0.8,0.8
2022-11-20 11:53:35.8110,-0.19,-0.25,-0.59,0.66
2022-11-20 11:53:35.8230,-0.44,-0.3,-0.33,0.62
2022-11-20 11:53:35.8310,-0.64,-0.18,-0.2,0.69
2022-11-20 11:53:35.8410,-0.65,-0.16,-0.08,0.67
2022-11-20 11:53:35.8510,-0.13,-0.17,0.09,0.23
2022-11-20 11:53:35.8610,0.62,-0.16,-0.07,0.64
2022-11-20 11:53:35.8720,1.29,-0.23,-0.2,1.32
2022-11-20 11:53:35.8810,1.45,-0.23,-0.23,1.48
2022-11-20 11:53:35.9050,0.89,0.0,-0.08,0.89
2022-11-20 11:53:35.9070,0.44,0.09,0.14,0.47
2022-11-20 11:53:35.9110,0.27,-0.14,0.27,0.4
2022-11-20 11:53:35.9230,0.37,-0.15,0.32,0.51
2022-11-20 11:53:35.9320,0.51,0.02,0.07,0.51
2022-11-20 11:53:35.9420,0.45,0.16,-0.21,0.52
2022-11-20 11:53:35.9520,0.18,0.17,-0.2,0.31
2022-11-20 11:53:35.9610,-0.16,0.17,-0.17,0.28
2022-11-20 11:53:35.9720,-0.35,0.49,-0.57,0.82
2022-11-20 11:53:35.9820,-0.3,0.62,-1.04,1.24
2022-11-20 11:53:36.0060,0.06,0.23,-1.38,1.4
2022-11-20 11:53:36.0080,0.39,0.0,-1.38,1.43
2022-11-20 11:53:36.0120,0.15,0.04,-1.23,1.23
2022-11-20 11:53:36.0230,-0.33,0.08,-0.93,0.99
2022-11-20 11:53:36.0320,-0.64,0.13,-0.57,0.86
2022-11-20 11:53:36.0420,-0.62,0.19,-0.41,0.76
2022-11-20 11:53:36.0520,-0.35,0.24,-0.22,0.47
2022-11-20 11:53:36.0620,-0.17,0.1,0.03,0.19
2022-11-20 11:53:36.0720,-0.09,-0.05,0.3,0.31
2022-11-20 11:53:36.0820,0.02,0.0,0.48,0.48
2022-11-20 11:53:36.1060,0.25,-0.05,0.7,0.74
2022-11-20 11:53:36.1090,0.34,-0.11,0.84,0.91
2022-11-20 11:53:36.1120,0.01,0.04,0.88,0.88
2022-11-20 11:53:36.1230,-0.47,0.21,0.79,0.94
2022-11-20 11:53:36.1320,-0.71,0.26,0.66,1.0
2022-11-20 11:53:36.1430,-0.57,0.19,0.52,0.79
2022-11-20 11:53:36.1530,-0.23,0.04,0.31,0.38
2022-11-20 11:53:36.1630,0.02,-0.01,0.27,0.27
2022-11-20 11:53:36.1730,-0.01,-0.06,0.31,0.31
2022-11-20 11:53:36.1830,-0.11,-0.09,0.5,0.51
2022-11-20 11:53:36.2080,-0.03,0.04,0.84,0.84
2022-11-20 11:53:36.2100,0.09,0.1,0.86,0.87
2022-11-20 11:53:36.2130,0.2,-0.03,0.78,0.8
2022-11-20 11:53:36.2240,0.28,-0.16,0.62,0.69
2022-11-20 11:53:36.2330,0.24,-0.15,0.53,0.6
2022-11-20 11:53:36.2430,0.08,-0.1,0.55,0.56
2022-11-20 11:53:36.2530,-0.15,0.03,0.46,0.48
2022-11-20 11:53:36.2630,-0.37,0.25,0.42,0.61
2022-11-20 11:53:36.2740,-0.59,0.31,0.4,0.77
2022-11-20 11:53:36.2840,-0.63,0.24,0.28,0.73
2022-11-20 11:53:36.3110,-0.47,0.05,0.28,0.54
2022-11-20 11:53:36.3140,-0.16,-0.24,0.36,0.46
2022-11-20 11:53:36.3160,0.19,-0.34,0.35,0.52
2022-11-20 11:53:36.3240,0.55,-0.29,0.27,0.67
2022-11-20 11:53:36.3330,0.73,-0.17,0.45,0.87
2022-11-20 11:53:36.3440,0.43,0.06,0.69,0.81
2022-11-20 11:53:36.3540,0.14,0.29,0.36,0.48
2022-11-20 11:53:36.3640,0.26,0.33,0.14,0.44
2022-11-20 11:53:36.3740,0.87,0.17,0.39,0.96
2022-11-20 11:53:36.3840,1.1,-0.11,0.92,1.43
2022-11-20 11:53:36.4090,1.14,-0.4,1.28,1.76
2022-11-20 11:53:36.4120,0.78,-0.1,1.16,1.4
2022-11-20 11:53:36.4140,0.36,0.52,0.91,1.1
2022-11-20 11:53:36.4240,0.09,0.48,0.5,0.69
2022-11-20 11:53:36.4340,-0.2,0.2,0.35,0.45
2022-11-20 11:53:36.4440,-0.43,0.12,0.62,0.76
2022-11-20 11:53:36.4540,-0.64,0.05,0.9,1.1
2022-11-20 11:53:36.4640,-0.45,0.25,1.21,1.31
2022-11-20 11:53:36.4740,-0.15,0.54,1.07,1.2
2022-11-20 11:53:36.4840,0.1,0.73,0.49,0.88
2022-11-20 11:53:36.5150,0.28,0.86,-0.28,0.94
2022-11-20 11:53:36.5170,0.44,0.74,-0.72,1.12
2022-11-20 11:53:36.5200,0.52,0.61,-0.62,1.01
2022-11-20 11:53:36.5240,-0.01,0.68,-0.28,0.73
2022-11-20 11:53:36.5350,-0.49,1.09,0.0,1.19
2022-11-20 11:53:36.5450,-0.51,1.52,0.08,1.6
2022-11-20 11:53:36.5550,-0.5,1.81,-0.31,1.9
2022-11-20 11:53:36.5650,-0.44,2.26,-0.83,2.44
2022-11-20 11:53:36.5750,0.07,3.1,-1.06,3.27
2022-11-20 11:53:36.5850,1.15,3.68,-0.7,3.91
2022-11-20 11:53:36.6110,1.8,4.14,-0.37,4.52
2022-11-20 11:53:36.6140,2.21,5.14,-0.45,5.61
2022-11-20 11:53:36.6160,2.08,5.14,-0.12,5.54
2022-11-20 11:53:36.6250,2.17,5.17,0.05,5.6
2022-11-20 11:53:36.6350,2.35,5.26,1.03,5.85
2022-11-20 11:53:36.6450,2.2,5.11,2.37,6.04
2022-11-20 11:53:36.6550,1.9,4.8,3.63,6.31
2022-11-20 11:53:36.6650,1.43,4.33,4.9,6.69
2022-11-20 11:53:36.6750,0.81,3.83,5.8,6.99
2022-11-20 11:53:36.6860,0.07,3.33,5.89,6.76
2022-11-20 11:53:36.7090,-0.5,2.95,5.09,5.9
2022-11-20 11:53:36.7110,-0.47,3.19,5.0,5.94
2022-11-20 11:53:36.7150,-0.38,3.58,4.94,6.11
2022-11-20 11:53:36.7250,-0.24,3.45,5.41,6.42
2022-11-20 11:53:36.7350,-0.65,2.51,5.92,6.46
2022-11-20 11:53:36.7460,-1.34,2.08,5.39,5.93
2022-11-20 11:53:36.7560,-1.46,2.65,4.6,5.5
2022-11-20 11:53:36.7660,-1.01,3.56,3.15,4.85
2022-11-20 11:53:36.7760,-0.25,3.99,0.86,4.08
2022-11-20 11:53:36.7860,1.17,3.67,-1.2,4.03
2022-11-20 11:53:36.8120,2.47,3.11,-2.99,4.97
2022-11-20 11:53:36.8140,3.09,3.55,-2.58,5.36
2022-11-20 11:53:36.8170,4.67,3.74,-0.9,6.05
2022-11-20 11:53:36.8260,4.9,3.03,-0.18,5.76
2022-11-20 11:53:36.8360,2.99,2.41,-0.51,3.87
2022-11-20 11:53:36.8460,1.0,2.09,-1.13,2.57
2022-11-20 11:53:36.8560,-0.11,2.16,-1.55,2.66
2022-11-20 11:53:36.8660,-0.86,2.24,-2.11,3.19
2022-11-20 11:53:36.8760,-1.2,2.19,-2.01,3.2
2022-11-20 11:53:36.8860,-1.19,1.95,-1.77,2.88
2022-11-20 11:53:36.9090,-0.96,1.75,-1.4,2.43
2022-11-20 11:53:36.9110,-0.64,1.54,-1.44,2.2
2022-11-20 11:53:36.9160,-0.43,1.39,-1.19,1.87
2022-11-20 11:53:36.9270,-0.66,1.82,-0.93,2.14
2022-11-20 11:53:36.9360,-1.31,2.18,-0.55,2.6
2022-11-20 11:53:36.9470,-1.94,2.3,0.29,3.02
2022-11-20 11:53:36.9570,-2.41,2.15,0.56,3.27
2022-11-20 11:53:36.9670,-2.6,1.63,0.5,3.1
2022-11-20 11:53:36.9770,-2.38,1.16,0.86,2.78
2022-11-20 11:53:36.9870,-1.48,0.87,0.96,1.96
2022-11-20 11:53:37.0090,-0.61,0.4,1.14,1.35
2022-11-20 11:53:37.0110,-0.32,-0.06,1.0,1.05
2022-11-20 11:53:37.0170,-0.27,-0.85,0.76,1.17
2022-11-20 11:53:37.0270,-0.07,-1.45,1.39,2.0
2022-11-20 11:53:37.0370,-0.07,-1.81,1.5,2.35
2022-11-20 11:53:37.0470,-0.38,-2.26,1.73,2.87
2022-11-20 11:53:37.0570,-0.49,-2.85,1.99,3.51
2022-11-20 11:53:37.0670,-0.63,-3.58,1.99,4.14
2022-11-20 11:53:37.0770,-0.92,-4.34,1.92,4.83
2022-11-20 11:53:37.0880,-1.26,-5.05,1.94,5.55
2022-11-20 11:53:37.1100,-1.48,-5.56,1.77,6.01
2022-11-20 11:53:37.1120,-1.37,-5.95,1.74,6.34
2022-11-20 11:53:37.1170,-0.9,-6.23,1.69,6.51
2022-11-20 11:53:37.1270,-0.39,-6.53,1.27,6.66
2022-11-20 11:53:37.1380,-0.08,-6.92,0.7,6.95
2022-11-20 11:53:37.1480,0.13,-7.35,0.15,7.35
2022-11-20 11:53:37.1570,0.31,-7.62,-0.47,7.64
2022-11-20 11:53:37.1680,0.43,-7.6,-0.69,7.64
2022-11-20 11:53:37.1780,0.5,-7.02,-0.72,7.07
2022-11-20 11:53:37.1880,0.4,-6.32,-0.85,6.38
2022-11-20 11:53:37.2140,0.05,-5.92,-1.26,6.05
2022-11-20 11:53:37.2160,-0.51,-5.65,-1.69,5.91
2022-11-20 11:53:37.2180,-1.06,-5.18,-1.74,5.56
2022-11-20 11:53:37.2280,-1.61,-4.6,-2.54,5.49
2022-11-20 11:53:37.2380,-2.22,-4.38,-3.59,6.08
2022-11-20 11:53:37.2480,-2.45,-4.32,-3.56,6.11
2022-11-20 11:53:37.2580,-1.88,-4.69,-3.56,6.18
2022-11-20 11:53:37.2680,-1.13,-5.5,-3.58,6.65
2022-11-20 11:53:37.2780,-0.79,-5.79,-3.27,6.69
2022-11-20 11:53:37.2890,-0.65,-5.31,-3.16,6.21
2022-11-20 11:53:37.3110,-0.58,-4.5,-3.0,5.43
2022-11-20 11:53:37.3130,-0.52,-3.8,-2.85,4.77
2022-11-20 11:53:37.3190,-0.42,-3.59,-2.53,4.41
2022-11-20 11:53:37.3280,-0.4,-3.94,-2.2,4.53
2022-11-20 11:53:37.3380,-0.98,-4.78,-3.3,5.89
2022-11-20 11:53:37.3480,-1.61,-4.2,-5.4,7.02
2022-11-20 11:53:37.3590,-0.85,2.53,-4.58,5.3
2022-11-20 11:53:37.3690,3.39,15.33,0.48,15.7
2022-11-20 11:53:37.3790,7.24,18.99,3.91,20.69
2022-11-20 11:53:37.3890,3.4,7.16,-1.06,7.99
2022-11-20 11:53:37.4110,-0.01,0.44,-1.74,1.79
2022-11-20 11:53:37.4130,-0.72,-2.92,-2.86,4.15
2022-11-20 11:53:37.4190,-1.58,-5.57,-5.58,8.04
2022-11-20 11:53:37.4290,-2.89,-7.55,-5.8,9.94
2022-11-20 11:53:37.4390,-3.01,-5.94,-4.34,7.94
2022-11-20 11:53:37.4490,-1.39,-0.61,-1.99,2.5
2022-11-20 11:53:37.4590,-0.1,3.73,-1.44,3.99
2022-11-20 11:53:37.4690,1.05,5.73,-2.13,6.2
2022-11-20 11:53:37.4790,1.86,3.65,-2.48,4.78
2022-11-20 11:53:37.4890,2.43,-0.02,-2.25,3.31
2022-11-20 11:53:37.5140,2.7,-1.24,-2.31,3.76
2022-11-20 11:53:37.5160,1.82,-1.28,-2.49,3.33
2022-11-20 11:53:37.5190,0.59,-0.77,-2.99,3.14
2022-11-20 11:53:37.5290,-0.35,-0.05,-3.55,3.56
2022-11-20 11:53:37.5400,-1.21,0.48,-3.77,3.98
2022-11-20 11:53:37.5490,-1.73,0.48,-3.09,3.57
2022-11-20 11:53:37.5600,-1.37,0.15,-1.46,2.0
2022-11-20 11:53:37.5700,-0.49,-0.06,-0.25,0.55
2022-11-20 11:53:37.5800,0.17,-0.04,-0.1,0.2
2022-11-20 11:53:37.5900,0.53,0.02,-0.38,0.65
2022-11-20 11:53:37.6190,0.7,-0.24,-0.44,0.86
2022-11-20 11:53:37.6220,0.52,-0.54,-0.18,0.77
2022-11-20 11:53:37.6250,0.27,-0.69,-0.47,0.87
2022-11-20 11:53:37.6300,0.17,-0.52,-0.12,0.56
2022-11-20 11:53:37.6400,0.19,-0.12,0.39,0.45
2022-11-20 11:53:37.6500,0.02,0.06,0.21,0.21
2022-11-20 11:53:37.6600,-0.32,0.04,0.42,0.52
2022-11-20 11:53:37.6700,-0.57,0.04,0.79,0.97
2022-11-20 11:53:37.6800,-0.81,-0.06,1.08,1.35
2022-11-20 11:53:37.6900,-1.01,-0.2,1.59,1.89
2022-11-20 11:53:37.7200,-0.84,-0.31,1.63,1.85
2022-11-20 11:53:37.7230,-0.79,-0.24,1.32,1.55
2022-11-20 11:53:37.7250,-0.74,-0.28,1.09,1.34
2022-11-20 11:53:37.7310,-0.28,-0.4,0.89,1.01
2022-11-20 11:53:37.7400,0.29,-0.53,1.21,1.35
2022-11-20 11:53:37.7500,0.76,-0.54,1.43,1.7
2022-11-20 11:53:37.7610,1.03,-0.48,1.57,1.93
2022-11-20 11:53:37.7710,1.04,-0.36,1.86,2.16
2022-11-20 11:53:37.7810,0.87,0.05,1.2,1.48
2022-11-20 11:53:37.7910,0.52,0.14,1.04,1.17
2022-11-20 11:53:37.8200,0.41,0.01,1.54,1.59
2022-11-20 11:53:37.8230,0.56,-0.08,2.48,2.54
2022-11-20 11:53:37.8260,0.45,0.06,3.03,3.06
2022-11-20 11:53:37.8310,0.14,0.26,2.56,2.57
2022-11-20 11:53:37.8410,0.13,0.15,2.33,2.33
2022-11-20 11:53:37.8510,0.41,0.01,1.94,1.98
2022-11-20 11:53:37.8610,0.54,-0.02,1.79,1.86
2022-11-20 11:53:37.8710,0.57,0.27,1.79,1.89
2022-11-20 11:53:37.8810,0.31,0.41,1.68,1.75
2022-11-20 11:53:37.8910,0.0,0.44,1.48,1.54
2022-11-20 11:53:37.9150,-0.03,0.37,1.49,1.53
2022-11-20 11:53:37.9170,-0.1,0.51,1.37,1.46
2022-11-20 11:53:37.9210,-0.2,1.0,0.48,1.12
2022-11-20 11:53:37.9310,-0.23,1.18,-0.18,1.21
2022-11-20 11:53:37.9420,-0.02,1.21,-0.4,1.27
2022-11-20 11:53:37.9520,0.16,1.55,-0.41,1.61
2022-11-20 11:53:37.9610,0.47,2.27,-0.95,2.5
2022-11-20 11:53:37.9720,1.09,2.89,-1.27,3.33
2022-11-20 11:53:37.9820,1.5,3.59,-1.41,4.13
2022-11-20 11:53:37.9920,2.27,4.68,-2.28,5.67
2022-11-20 11:53:38.0160,2.62,4.29,-2.27,5.51
2022-11-20 11:53:38.0180,2.41,3.24,-1.71,4.38
2022-11-20 11:53:38.0220,1.54,3.71,-0.9,4.11
2022-11-20 11:53:38.0320,0.68,4.83,0.47,4.9
2022-11-20 11:53:38.0420,0.3,5.22,1.42,5.41
2022-11-20 11:53:38.0520,0.3,5.4,2.07,5.79
2022-11-20 11:53:38.0620,0.81,5.08,3.34,6.13
2022-11-20 11:53:38.0720,1.34,4.08,4.57,6.27
2022-11-20 11:53:38.0820,1.37,3.31,5.47,6.53
2022-11-20 11:53:38.0920,1.27,2.38,5.99,6.56
2022-11-20 11:53:38.1150,0.18,2.19,6.19,6.56
2022-11-20 11:53:38.1170,-1.36,2.51,6.33,6.94
2022-11-20 11:53:38.1220,-2.35,2.6,6.49,7.37
2022-11-20 11:53:38.1320,-2.4,2.09,6.77,7.48
2022-11-20 11:53:38.1420,-2.02,1.32,6.83,7.24
2022-11-20 11:53:38.1520,-0.78,1.69,6.21,6.48
2022-11-20 11:53:38.1620,0.6,2.61,4.81,5.5
2022-11-20 11:53:38.1720,1.41,1.92,3.12,3.92
2022-11-20 11:53:38.1820,2.27,1.14,0.38,2.56
2022-11-20 11:53:38.1930,2.47,1.29,-3.03,4.11
2022-11-20 11:53:38.2170,3.63,2.56,-4.64,6.42
2022-11-20 11:53:38.2190,5.52,4.33,-3.81,7.98
2022-11-20 11:53:38.2230,5.25,4.51,-2.38,7.31
2022-11-20 11:53:38.2330,2.84,3.54,-1.83,4.89
2022-11-20 11:53:38.2430,0.87,2.63,-1.71,3.25
2022-11-20 11:53:38.2530,-0.18,2.58,-1.54,3.01
2022-11-20 11:53:38.2630,-0.67,2.96,-1.41,3.34
2022-11-20 11:53:38.2730,-1.05,2.82,-1.61,3.41
2022-11-20 11:53:38.2830,-1.26,2.31,-1.68,3.12
2022-11-20 11:53:38.2930,-1.12,1.88,-1.41,2.6
2022-11-20 11:53:38.3140,-0.79,1.46,-1.22,2.06
2022-11-20 11:53:38.3160,-0.62,0.94,-1.13,1.59
2022-11-20 11:53:38.3240,-0.83,0.45,-0.7,1.17
2022-11-20 11:53:38.3330,-1.38,0.29,0.24,1.43
2022-11-20 11:53:38.3430,-1.89,0.63,1.23,2.34
2022-11-20 11:53:38.3530,-2.02,1.25,2.0,3.1
2022-11-20 11:53:38.3630,-1.73,1.61,2.48,3.42
2022-11-20 11:53:38.3730,-1.26,1.48,2.77,3.38
2022-11-20 11:53:38.3840,-0.44,0.98,2.82,3.01
2022-11-20 11:53:38.3940,0.7,0.43,2.83,2.94
2022-11-20 11:53:38.4190,1.5,0.12,3.1,3.44
2022-11-20 11:53:38.4210,1.91,-0.16,2.72,3.32
2022-11-20 11:53:38.4240,1.9,-0.82,2.14,2.97
2022-11-20 11:53:38.4340,1.68,-1.57,2.18,3.16
2022-11-20 11:53:38.4440,1.56,-2.22,2.92,3.98
2022-11-20 11:53:38.4540,1.15,-2.65,3.67,4.67
2022-11-20 11:53:38.4640,0.4,-3.18,3.54,4.77
2022-11-20 11:53:38.4740,-0.09,-4.18,2.84,5.05
2022-11-20 11:53:38.4840,0.02,-5.31,2.66,5.93
2022-11-20 11:53:38.4940,0.29,-5.98,2.61,6.53
2022-11-20 11:53:38.5200,0.26,-6.12,2.36,6.56
2022-11-20 11:53:38.5230,0.19,-5.87,2.16,6.25
2022-11-20 11:53:38.5250,0.29,-5.69,1.17,5.81
2022-11-20 11:53:38.5340,0.55,-5.8,0.64,5.86
2022-11-20 11:53:38.5440,0.91,-6.12,0.86,6.24
2022-11-20 11:53:38.5540,0.75,-6.36,0.64,6.43
2022-11-20 11:53:38.5640,-0.02,-6.48,0.29,6.48
2022-11-20 11:53:38.5740,-1.02,-6.38,0.19,6.46
2022-11-20 11:53:38.5840,-2.02,-5.76,0.04,6.1
2022-11-20 11:53:38.5950,-2.73,-4.98,-0.59,5.7
2022-11-20 11:53:38.6210,-2.94,-4.46,-1.61,5.57
2022-11-20 11:53:38.6220,-2.84,-4.19,-2.57,5.67
2022-11-20 11:53:38.6250,-2.36,-4.01,-2.3,5.19
2022-11-20 11:53:38.6400,-1.39,-4.28,-2.27,5.04
2022-11-20 11:53:38.6450,-0.39,-4.98,-2.45,5.56
2022-11-20 11:53:38.6560,0.43,-5.53,-2.59,6.12
2022-11-20 11:53:38.6650,0.72,-5.47,-2.51,6.06
2022-11-20 11:53:38.6750,0.17,-4.76,-2.37,5.32
2022-11-20 11:53:38.6850,-1.29,-3.82,-3.9,5.6
2022-11-20 11:53:38.6950,-3.76,-1.77,-10.96,11.72
2022-11-20 11:53:38.7170,-4.22,3.98,-11.9,13.23
2022-11-20 11:53:38.7190,-0.69,9.77,3.28,10.32
2022-11-20 11:53:38.7250,1.35,5.07,5.06,7.28
2022-11-20 11:53:38.7350,0.13,0.86,0.08,0.87
2022-11-20 11:53:38.7450,-2.66,0.25,-0.08,2.67
2022-11-20 11:53:38.7550,-3.9,-1.11,-1.71,4.4
2022-11-20 11:53:38.7650,-2.14,-2.73,-4.85,5.96
2022-11-20 11:53:38.7750,-0.5,-4.23,-5.89,7.26
2022-11-20 11:53:38.7850,1.7,-2.59,-4.91,5.8
2022-11-20 11:53:38.7950,4.25,0.83,-2.87,5.19
2022-11-20 11:53:38.8180,4.22,2.44,-2.08,5.29
2022-11-20 11:53:38.8200,2.1,2.64,-2.33,4.09
2022-11-20 11:53:38.8250,0.7,1.96,-1.54,2.58
2022-11-20 11:53:38.8350,0.15,1.14,-0.77,1.38
2022-11-20 11:53:38.8460,-0.46,0.02,-1.54,1.6
2022-11-20 11:53:38.8560,-0.6,-0.62,-2.39,2.54
2022-11-20 11:53:38.8660,-0.1,-0.45,-2.26,2.3
2022-11-20 11:53:38.8760,0.21,0.13,-2.02,2.03
2022-11-20 11:53:38.8860,-0.39,0.93,-1.92,2.16
2022-11-20 11:53:38.8960,-1.38,1.17,-1.97,2.67
2022-11-20 11:53:38.9150,-1.98,0.55,-2.11,2.94
2022-11-20 11:53:38.9170,-2.18,-0.02,-1.76,2.8
2022-11-20 11:53:38.9260,-2.11,0.07,-1.24,2.44
2022-11-20 11:53:38.9360,-1.79,0.58,-1.25,2.25
2022-11-20 11:53:38.9460,-1.45,0.93,-1.31,2.16
2022-11-20 11:53:38.9560,-1.04,0.66,-0.99,1.58
2022-11-20 11:53:38.9660,-0.51,-0.09,-0.45,0.68
2022-11-20 11:53:38.9760,-0.07,-0.65,0.08,0.65
2022-11-20 11:53:38.9860,0.22,-0.64,-0.02,0.67
2022-11-20 11:53:38.9970,0.52,-0.19,-0.34,0.64
2022-11-20 11:53:39.0180,0.97,0.14,-0.49,1.09
2022-11-20 11:53:39.0200,1.38,0.09,-0.56,1.49
2022-11-20 11:53:39.0270,1.53,-0.32,-0.59,1.67
2022-11-20 11:53:39.0370,1.46,-0.89,-0.06,1.71
2022-11-20 11:53:39.0470,0.98,-1.09,0.02,1.46
2022-11-20 11:53:39.0570,0.1,-1.01,-0.12,1.02
2022-11-20 11:53:39.0670,-0.57,-0.76,0.41,1.03
2022-11-20 11:53:39.0770,-0.73,-0.48,0.57,1.04
2022-11-20 11:53:39.0870,-0.48,-0.24,0.68,0.86
2022-11-20 11:53:39.0970,0.16,-0.19,0.45,0.51
2022-11-20 11:53:39.1180,0.61,-0.32,0.43,0.81
2022-11-20 11:53:39.1190,1.11,-0.75,0.59,1.46
2022-11-20 11:53:39.1270,1.52,-0.87,0.8,1.92
2022-11-20 11:53:39.1370,1.66,-0.64,1.53,2.34
2022-11-20 11:53:39.1470,1.35,-0.04,2.06,2.46
2022-11-20 11:53:39.1570,0.67,0.43,1.42,1.62
2022-11-20 11:53:39.1670,0.3,0.17,1.39,1.43
2022-11-20 11:53:39.1770,0.48,-0.17,1.44,1.52
2022-11-20 11:53:39.1870,0.75,-0.39,1.73,1.92
2022-11-20 11:53:39.1970,0.98,-0.4,1.82,2.1
2022-11-20 11:53:39.2210,1.05,-0.34,1.54,1.89
2022-11-20 11:53:39.2230,0.93,-0.36,2.06,2.28
2022-11-20 11:53:39.2270,0.5,0.0,2.77,2.81
2022-11-20 11:53:39.2400,-0.05,0.62,2.77,2.83
2022-11-20 11:53:39.2480,0.04,0.83,2.79,2.91
2022-11-20 11:53:39.2580,0.66,0.38,2.74,2.84
2022-11-20 11:53:39.2680,0.71,0.02,2.4,2.5
2022-11-20 11:53:39.2780,0.16,0.3,2.02,2.04
2022-11-20 11:53:39.2880,-0.31,1.14,0.84,1.44
2022-11-20 11:53:39.2980,-0.41,1.68,-0.14,1.73
2022-11-20 11:53:39.3210,-0.24,1.83,-0.68,1.96
2022-11-20 11:53:39.3230,-0.14,2.22,-1.52,2.69
2022-11-20 11:53:39.3280,0.21,2.62,-1.48,3.01
2022-11-20 11:53:39.3400,0.87,3.01,-0.77,3.22
2022-11-20 11:53:39.3480,1.25,3.41,-0.51,3.66
2022-11-20 11:53:39.3580,1.53,4.32,-1.08,4.7
2022-11-20 11:53:39.3680,2.4,4.85,-1.3,5.56
2022-11-20 11:53:39.3780,2.36,3.93,-1.21,4.74
2022-11-20 11:53:39.3890,1.41,4.15,-0.99,4.49
2022-11-20 11:53:39.3980,0.57,5.64,0.43,5.68
2022-11-20 11:53:39.4220,0.6,6.25,1.88,6.55
2022-11-20 11:53:39.4240,1.09,5.81,3.01,6.63
2022-11-20 11:53:39.4280,1.6,4.7,4.25,6.53
2022-11-20 11:53:39.4400,1.51,3.14,5.28,6.32
2022-11-20 11:53:39.4490,0.7,1.83,5.75,6.07
2022-11-20 11:53:39.4590,-0.31,1.67,5.84,6.08
2022-11-20 11:53:39.4690,-0.65,2.07,5.88,6.26
2022-11-20 11:53:39.4790,-0.82,2.25,5.46,5.96
2022-11-20 11:53:39.4890,-0.44,2.15,5.33,5.76
2022-11-20 11:53:39.4990,0.04,1.42,5.26,5.44
2022-11-20 11:53:39.5220,0.31,0.68,4.36,4.42
2022-11-20 11:53:39.5240,0.92,0.99,3.47,3.72
2022-11-20 11:53:39.5290,1.39,2.07,2.95,3.86
2022-11-20 11:53:39.5400,1.16,1.94,2.27,3.2
2022-11-20 11:53:39.5490,0.96,1.07,1.25,1.9
2022-11-20 11:53:39.5590,-0.08,0.36,-0.37,0.52
2022-11-20 11:53:39.5690,0.35,1.68,-1.77,2.46
2022-11-20 11:53:39.5790,1.81,3.19,-1.13,3.83
2022-11-20 11:53:39.5890,2.02,3.59,-0.34,4.13
2022-11-20 11:53:39.6000,1.21,3.37,-0.5,3.61
2022-11-20 11:53:39.6230,0.35,2.87,-0.67,2.96
2022-11-20 11:53:39.6250,-0.1,2.61,-0.94,2.77
2022-11-20 11:53:39.6290,0.01,2.66,-0.81,2.78
2022-11-20 11:53:39.6400,0.22,2.65,-0.55,2.71
2022-11-20 11:53:39.6500,-0.26,1.98,-0.94,2.2
2022-11-20 11:53:39.6600,-0.78,1.1,-1.47,1.99
2022-11-20 11:53:39.6700,-0.83,0.51,-1.43,1.73
2022-11-20 11:53:39.6800,-0.75,0.38,-1.19,1.45
2022-11-20 11:53:39.6900,-0.74,0.51,-1.27,1.55
2022-11-20 11:53:39.7000,-0.91,0.52,-1.31,1.67
2022-11-20 11:53:39.7230,-1.29,0.46,-0.57,1.48
2022-11-20 11:53:39.7250,-1.99,0.66,0.74,2.22
2022-11-20 11:53:39.7300,-2.67,0.94,1.54,3.22
2022-11-20 11:53:39.7400,-3.06,1.01,1.63,3.61
2022-11-20 11:53:39.7500,-2.74,0.59,1.62,3.23
2022-11-20 11:53:39.7600,-1.91,0.35,2.0,2.78
2022-11-20 11:53:39.7700,-0.67,0.35,2.17,2.29
2022-11-20 11:53:39.7800,0.44,0.33,2.36,2.42
2022-11-20 11:53:39.7900,1.07,-0.02,2.15,2.4
2022-11-20 11:53:39.8000,1.03,-0.81,1.92,2.32
2022-11-20 11:53:39.8270,0.67,-1.48,2.0,2.57
2022-11-20 11:53:39.8290,0.2,-1.73,2.06,2.69
2022-11-20 11:53:39.8320,-0.17,-1.66,1.92,2.54
2022-11-20 11:53:39.8410,-0.29,-1.89,2.01,2.77
2022-11-20 11:53:39.8500,-0.07,-2.53,2.14,3.31
2022-11-20 11:53:39.8610,0.16,-3.31,2.08,3.91
2022-11-20 11:53:39.8710,0.26,-4.07,1.83,4.47
2022-11-20 11:53:39.8810,0.4,-4.6,1.69,4.91
2022-11-20 11:53:39.8910,0.52,-4.71,1.72,5.04
2022-11-20 11:53:39.9010,0.57,-4.47,1.35,4.7
2022-11-20 11:53:39.9230,0.57,-4.33,0.94,4.46
2022-11-20 11:53:39.9250,0.59,-4.48,0.76,4.58
2022-11-20 11:53:39.9310,0.66,-4.89,0.71,4.98
2022-11-20 11:53:39.9410,0.6,-5.3,0.49,5.35
2022-11-20 11:53:39.9510,0.19,-5.61,0.07,5.61
2022-11-20 11:53:39.9610,-0.41,-5.62,-0.47,5.65
2022-11-20 11:53:39.9710,-1.01,-5.4,-0.93,5.57
2022-11-20 11:53:39.9810,-1.74,-5.11,-1.23,5.53
2022-11-20 11:53:39.9910,-2.37,-4.85,-1.48,5.59
2022-11-20 11:53:40.0010,-2.59,-4.88,-1.89,5.83
2022-11-20 11:53:40.0240,-2.3,-5.29,-2.08,6.13
2022-11-20 11:53:40.0260,-1.7,-5.78,-1.99,6.34
2022-11-20 11:53:40.0310,-1.17,-6.11,-2.05,6.55
2022-11-20 11:53:40.0410,-0.89,-6.46,-2.31,6.91
2022-11-20 11:53:40.0520,-0.75,-6.91,-2.25,7.3
2022-11-20 11:53:40.0620,-0.72,-7.3,-2.22,7.66
2022-11-20 11:53:40.0720,-1.48,-7.2,-5.06,8.92
2022-11-20 11:53:40.0820,-2.77,-2.63,-13.75,14.27
2022-11-20 11:53:40.0920,-0.03,10.46,-9.12,13.87
2022-11-20 11:53:40.1020,4.26,14.94,5.85,16.6
2022-11-20 11:53:40.1260,2.51,3.64,1.36,4.62
2022-11-20 11:53:40.1280,-0.61,-0.35,-1.39,1.55
2022-11-20 11:53:40.1320,-3.38,-0.66,0.38,3.46
2022-11-20 11:53:40.1420,-2.91,-2.04,-3.09,4.7
2022-11-20 11:53:40.1520,-1.13,-3.53,-5.5,6.63
2022-11-20 11:53:40.1620,-0.42,-4.1,-4.98,6.46
2022-11-20 11:53:40.1720,1.15,-2.38,-4.01,4.8
2022-11-20 11:53:40.1820,2.64,0.95,-2.01,3.45
2022-11-20 11:53:40.1920,2.46,3.06,-1.93,4.37
2022-11-20 11:53:40.2030,1.2,3.39,-2.21,4.22
2022-11-20 11:53:40.2270,0.43,2.26,-1.86,2.95
2022-11-20 11:53:40.2290,0.0,0.69,-1.16,1.34
2022-11-20 11:53:40.2320,-0.64,-0.63,-1.12,1.43
2022-11-20 11:53:40.2420,-1.17,-1.21,-1.46,2.22
2022-11-20 11:53:40.2520,-1.42,-0.92,-1.71,2.4
2022-11-20 11:53:40.2620,-1.46,-0.04,-1.8,2.31
2022-11-20 11:53:40.2720,-1.49,0.95,-1.77,2.5
2022-11-20 11:53:40.2830,-1.57,1.24,-1.64,2.58
2022-11-20 11:53:40.2930,-1.53,0.84,-1.58,2.35
2022-11-20 11:53:40.3030,-1.27,0.22,-1.93,2.32
2022-11-20 11:53:40.3270,-0.95,-0.12,-1.66,1.91
2022-11-20 11:53:40.3290,-0.53,-0.03,-1.09,1.21
2022-11-20 11:53:40.3330,-0.24,0.25,-1.05,1.1
2022-11-20 11:53:40.3430,-0.08,0.65,-0.88,1.09
2022-11-20 11:53:40.3530,0.36,0.81,-0.89,1.25
2022-11-20 11:53:40.3630,0.86,0.42,-1.0,1.38
2022-11-20 11:53:40.3730,1.18,-0.31,-0.57,1.34
2022-11-20 11:53:40.3830,1.65,-0.98,-0.36,1.95
2022-11-20 11:53:40.3930,1.99,-1.11,-0.68,2.37
2022-11-20 11:53:40.4030,1.83,-0.75,-0.58,2.06
2022-11-20 11:53:40.4280,1.31,-0.28,-0.45,1.41
2022-11-20 11:53:40.4300,0.57,-0.24,0.1,0.62
2022-11-20 11:53:40.4330,-0.24,-0.22,0.74,0.8
2022-11-20 11:53:40.4440,-0.84,-0.1,0.81,1.17
2022-11-20 11:53:40.4530,-1.25,-0.13,0.41,1.32
2022-11-20 11:53:40.4640,-1.37,-0.22,0.47,1.46
2022-11-20 11:53:40.4730,-1.11,-0.22,0.68,1.32
2022-11-20 11:53:40.4830,-0.85,-0.43,0.61,1.13
2022-11-20 11:53:40.4940,-0.78,-0.74,0.7,1.28
2022-11-20 11:53:40.5040,-0.59,-0.62,0.73,1.12
2022-11-20 11:53:40.5280,-0.33,-0.34,0.65,0.8
2022-11-20 11:53:40.5300,0.16,-0.19,1.04,1.06
2022-11-20 11:53:40.5340,0.98,-0.17,1.38,1.7
2022-11-20 11:53:40.5440,1.34,-0.3,1.64,2.13
2022-11-20 11:53:40.5540,1.12,-0.51,1.49,1.93
2022-11-20 11:53:40.5640,0.66,-0.42,0.68,1.03
2022-11-20 11:53:40.5740,0.17,-0.2,0.47,0.53
2022-11-20 11:53:40.5840,0.02,0.01,0.57,0.57
2022-11-20 11:53:40.5940,-0.11,0.22,0.93,0.96
2022-11-20 11:53:40.6040,-0.03,0.35,1.59,1.62
2022-11-20 11:53:40.6290,0.34,0.23,2.21,2.24
2022-11-20 11:53:40.6310,0.57,-0.07,2.56,2.62
2022-11-20 11:53:40.6340,0.6,-0.14,2.56,2.63
2022-11-20 11:53:40.6440,0.58,-0.13,2.5,2.56
2022-11-20 11:53:40.6550,0.38,-0.09,2.54,2.56
2022-11-20 11:53:40.6640,0.04,0.36,2.18,2.2
2022-11-20 11:53:40.6740,-0.06,0.89,1.14,1.44
2022-11-20 11:53:40.6840,0.21,0.82,0.86,1.2
2022-11-20 11:53:40.6950,0.41,0.14,1.2,1.27
2022-11-20 11:53:40.7050,0.24,-0.6,1.66,1.78
2022-11-20 11:53:40.7290,-0.23,-0.55,2.21,2.28
2022-11-20 11:53:40.7310,-0.7,0.33,1.97,2.11
2022-11-20 11:53:40.7350,-0.63,1.27,0.85,1.65
2022-11-20 11:53:40.7450,-0.22,1.69,0.01,1.7
2022-11-20 11:53:40.7550,0.21,1.47,-0.67,1.62
2022-11-20 11:53:40.7650,0.43,1.03,-0.55,1.24
2022-11-20 11:53:40.7750,0.39,1.14,0.26,1.23
2022-11-20 11:53:40.7850,0.13,1.82,0.8,1.99
2022-11-20 11:53:40.7950,0.18,2.74,0.53,2.79
2022-11-20 11:53:40.8050,0.7,3.72,-0.68,3.84
2022-11-20 11:53:40.8300,1.24,4.36,-1.4,4.74
2022-11-20 11:53:40.8320,1.89,4.49,-1.73,5.16
2022-11-20 11:53:40.8350,2.34,3.87,-1.43,4.74
2022-11-20 11:53:40.8450,1.67,3.01,-0.83,3.54
2022-11-20 11:53:40.8550,0.49,4.05,-0.41,4.1
2022-11-20 11:53:40.8650,0.19,5.17,0.87,5.24
2022-11-20 11:53:40.8760,0.45,4.79,1.83,5.14
2022-11-20 11:53:40.8860,0.51,4.36,2.35,4.97
2022-11-20 11:53:40.8960,0.6,3.88,2.93,4.89
2022-11-20 11:53:40.9060,0.82,3.09,3.23,4.54
2022-11-20 11:53:40.9300,1.16,2.28,3.23,4.12
2022-11-20 11:53:40.9320,0.93,2.02,3.04,3.76
2022-11-20 11:53:40.9360,0.04,2.28,2.78,3.59
2022-11-20 11:53:40.9460,-0.77,2.67,2.65,3.83
2022-11-20 11:53:40.9560,-1.09,2.57,2.84,3.98
2022-11-20 11:53:40.9660,-0.92,1.64,3.2,3.71
2022-11-20 11:53:40.9760,-0.54,0.79,3.42,3.55
2022-11-20 11:53:40.9860,-0.2,0.14,3.16,3.16
2022-11-20 11:53:40.9960,0.08,0.41,2.49,2.52
2022-11-20 11:53:41.0060,0.03,0.32,1.68,1.71
2022-11-20 11:53:41.0310,0.18,-0.6,0.82,1.03
2022-11-20 11:53:41.0330,-0.4,-1.71,-0.73,1.9
2022-11-20 11:53:41.0360,-0.84,-1.41,-2.92,3.34
2022-11-20 11:53:41.0460,0.24,-0.17,-3.76,3.77
2022-11-20 11:53:41.0570,1.51,0.22,-2.75,3.14
2022-11-20 11:53:41.0660,2.02,0.05,-1.69,2.63
2022-11-20 11:53:41.0760,1.71,-0.3,-1.59,2.35
2022-11-20 11:53:41.0860,1.49,-0.69,-1.76,2.4
2022-11-20 11:53:41.0960,1.63,-0.78,-1.46,2.32
2022-11-20 11:53:41.1070,2.03,-0.66,-0.66,2.23
2022-11-20 11:53:41.1320,2.13,-0.82,0.03,2.28
2022-11-20 11:53:41.1340,1.43,-1.4,0.04,2.0
2022-11-20 11:53:41.1370,0.64,-2.17,-0.23,2.27
2022-11-20 11:53:41.1470,0.46,-2.67,0.22,2.71
2022-11-20 11:53:41.1570,0.48,-2.46,0.85,2.64
2022-11-20 11:53:41.1670,0.06,-2.01,0.86,2.18
2022-11-20 11:53:41.1770,-0.64,-1.57,1.34,2.16
2022-11-20 11:53:41.1870,-1.35,-1.11,2.47,3.02
2022-11-20 11:53:41.1970,-1.97,-0.98,3.07,3.77
2022-11-20 11:53:41.2070,-2.16,-1.26,2.97,3.88
2022-11-20 11:53:41.2330,-1.65,-1.65,2.75,3.6
2022-11-20 11:53:41.2350,-0.71,-1.94,2.47,3.22
2022-11-20 11:53:41.2380,0.35,-2.06,2.17,3.01
2022-11-20 11:53:41.2480,1.34,-2.12,1.8,3.08
2022-11-20 11:53:41.2570,2.14,-2.23,1.6,3.48
2022-11-20 11:53:41.2670,2.65,-2.38,1.59,3.9
2022-11-20 11:53:41.2770,2.74,-2.62,1.5,4.07
2022-11-20 11:53:41.2880,2.22,-2.79,1.23,3.77
2022-11-20 11:53:41.2970,1.29,-2.78,0.76,3.15
2022-11-20 11:53:41.3070,0.42,-2.67,0.33,2.72
2022-11-20 11:53:41.3330,-0.27,-2.35,-0.06,2.36
2022-11-20 11:53:41.3350,-0.72,-1.99,-0.73,2.23
2022-11-20 11:53:41.3380,-0.84,-1.71,-1.26,2.28
2022-11-20 11:53:41.3480,-0.65,-1.62,-1.64,2.39
2022-11-20 11:53:41.3580,-0.25,-1.75,-1.95,2.63
2022-11-20 11:53:41.3680,0.19,-1.96,-2.34,3.05
2022-11-20 11:53:41.3780,0.57,-2.01,-2.37,3.15
2022-11-20 11:53:41.3880,0.81,-2.0,-2.31,3.16
2022-11-20 11:53:41.3980,0.8,-1.92,-2.66,3.37
2022-11-20 11:53:41.4080,0.57,-1.88,-2.76,3.38
2022-11-20 11:53:41.4350,0.44,-1.9,-2.3,3.01
2022-11-20 11:53:41.4360,0.2,-2.33,-1.88,3.0
2022-11-20 11:53:41.4390,-0.28,-2.51,-1.93,3.17
2022-11-20 11:53:41.4480,-0.38,-0.78,-4.38,4.46
2022-11-20 11:53:41.4580,0.6,0.91,-4.57,4.69
2022-11-20 11:53:41.4680,1.66,0.25,-2.61,3.1
2022-11-20 11:53:41.4780,1.41,-1.04,-2.37,2.94
2022-11-20 11:53:41.4890,0.87,-1.51,-2.23,2.83
2022-11-20 11:53:41.4980,1.26,-0.99,-3.12,3.5
2022-11-20 11:53:41.5090,1.92,-1.0,-2.99,3.69
2022-11-20 11:53:41.5350,1.93,-1.35,-1.99,3.08
2022-11-20 11:53:41.5370,1.51,-1.12,-1.86,2.64
2022-11-20 11:53:41.5400,0.15,-1.47,-1.33,1.98
2022-11-20 11:53:41.5490,-1.41,-1.88,-1.56,2.82
2022-11-20 11:53:41.5590,-1.97,-1.5,-1.74,3.02
2022-11-20 11:53:41.5690,-2.18,-0.57,-1.05,2.48
2022-11-20 11:53:41.5790,-1.86,-0.26,-0.07,1.87
2022-11-20 11:53:41.5890,-1.31,-0.78,0.27,1.54
2022-11-20 11:53:41.5990,-1.14,-0.99,0.23,1.52
2022-11-20 11:53:41.6090,-1.51,0.75,2.06,2.66
2022-11-20 11:53:41.6360,-2.12,3.79,4.08,5.95
2022-11-20 11:53:41.6380,-3.65,5.76,2.77,7.36
2022-11-20 11:53:41.6410,-3.67,5.85,1.93,7.17
2022-11-20 11:53:41.6490,-0.99,3.98,2.5,4.8
2022-11-20 11:53:41.6600,0.69,0.82,1.93,2.2
2022-11-20 11:53:41.6690,0.15,-2.36,0.59,2.43
2022-11-20 11:53:41.6790,-0.11,-3.9,-0.37,3.91
2022-11-20 11:53:41.6890,0.94,-2.9,-0.94,3.19
2022-11-20 11:53:41.6990,2.34,-0.51,-1.28,2.71
2022-11-20 11:53:41.7090,2.73,1.18,-1.34,3.26
2022-11-20 11:53:41.7370,1.84,1.2,-1.34,2.57
2022-11-20 11:53:41.7390,0.53,0.26,-1.59,1.69
2022-11-20 11:53:41.7410,0.04,-0.44,-1.87,1.92
2022-11-20 11:53:41.7490,0.49,-0.67,-1.92,2.09
2022-11-20 11:53:41.7600,0.62,-0.44,-1.76,1.91
2022-11-20 11:53:41.7700,0.11,0.01,-1.22,1.22
2022-11-20 11:53:41.7800,-0.38,0.44,-0.64,0.86
2022-11-20 11:53:41.7900,-0.58,0.73,-0.02,0.93
2022-11-20 11:53:41.8000,-0.59,0.68,0.43,0.99
2022-11-20 11:53:41.8100,-0.71,0.38,0.54,0.96
2022-11-20 11:53:41.8380,-0.98,0.07,0.43,1.07
2022-11-20 11:53:41.8400,-0.93,0.14,0.3,0.98
2022-11-20 11:53:41.8420,-0.68,0.48,0.2,0.85
2022-11-20 11:53:41.8560,-0.51,0.62,0.07,0.8
2022-11-20 11:53:41.8600,-0.43,0.38,-0.09,0.58
2022-11-20 11:53:41.8720,-0.52,0.02,-0.2,0.55
2022-11-20 11:53:41.8800,-0.51,-0.06,-0.19,0.54
2022-11-20 11:53:41.8900,-0.41,0.08,0.18,0.45
2022-11-20 11:53:41.9000,-0.23,0.19,0.57,0.64
2022-11-20 11:53:41.9100,-0.15,0.2,0.52,0.57
2022-11-20 11:53:41.9380,-0.01,0.11,0.32,0.33
2022-11-20 11:53:41.9410,0.36,-0.03,-0.13,0.38
2022-11-20 11:53:41.9430,0.62,-0.1,-0.51,0.8
2022-11-20 11:53:41.9560,0.47,-0.09,-0.69,0.83
2022-11-20 11:53:41.9610,0.19,-0.07,-0.61,0.64
2022-11-20 11:53:41.9720,-0.23,-0.09,-0.44,0.5
2022-11-20 11:53:41.9810,-0.64,0.0,-0.36,0.73
2022-11-20 11:53:41.9910,-0.75,0.09,-0.32,0.82
2022-11-20 11:53:42.0010,-0.74,0.02,-0.28,0.79
2022-11-20 11:53:42.0110,-0.63,0.03,-0.19,0.65
2022-11-20 11:53:42.0390,-0.31,0.09,0.07,0.33
2022-11-20 11:53:42.0410,0.02,0.06,0.47,0.47
2022-11-20 11:53:42.0440,0.19,-0.02,0.87,0.89
2022-11-20 11:53:42.0560,0.16,-0.09,1.27,1.28
2022-11-20 11:53:42.0610,0.01,-0.04,1.77,1.77
2022-11-20 11:53:42.0720,-0.15,0.14,2.31,2.31
2022-11-20 11:53:42.0810,-0.24,0.32,2.54,2.57
2022-11-20 11:53:42.0910,-0.3,0.3,2.13,2.17
2022-11-20 11:53:42.1010,-0.35,0.04,2.02,2.05
2022-11-20 11:53:42.1110,-0.3,-0.02,1.99,2.01
2022-11-20 11:53:42.1400,-0.32,0.42,2.05,2.11
2022-11-20 11:53:42.1420,-0.13,1.12,2.3,2.56
2022-11-20 11:53:42.1440,0.27,1.17,2.52,2.79
2022-11-20 11:53:42.1570,0.76,0.41,2.6,2.73
2022-11-20 11:53:42.1620,1.8,-0.23,2.23,2.87
2022-11-20 11:53:42.1730,2.83,-0.52,1.11,3.08
2022-11-20 11:53:42.1820,3.9,-0.46,-0.32,3.94
2022-11-20 11:53:42.1920,4.66,-0.35,-1.95,5.06
2022-11-20 11:53:42.2020,4.83,-0.47,-3.28,5.85
2022-11-20 11:53:42.2120,4.58,-0.72,-4.71,6.6
2022-11-20 11:53:42.2410,4.35,-0.61,-5.8,7.27
2022-11-20 11:53:42.2430,5.09,0.24,-6.05,7.91
2022-11-20 11:53:42.2440,6.61,1.36,-5.28,8.56
2022-11-20 11:53:42.2570,7.66,1.41,-5.03,9.27
2022-11-20 11:53:42.2620,7.94,-0.42,-5.13,9.46
2022-11-20 11:53:42.2730,6.93,-2.92,-5.82,9.5
2022-11-20 11:53:42.2820,4.76,-3.91,-6.5,8.95
2022-11-20 11:53:42.2920,2.49,-3.79,-6.68,8.07
2022-11-20 11:53:42.3020,0.19,-3.56,-6.41,7.33
2022-11-20 11:53:42.3120,-2.11,-3.38,-5.6,6.87
2022-11-20 11:53:42.3410,-4.01,-3.26,-4.92,7.13
2022-11-20 11:53:42.3430,-5.38,-3.18,-4.35,7.61
2022-11-20 11:53:42.3450,-6.11,-2.51,-3.36,7.41
2022-11-20 11:53:42.3570,-5.83,-1.32,-2.16,6.35
2022-11-20 11:53:42.3630,-4.13,-0.72,-1.62,4.49
2022-11-20 11:53:42.3730,-2.18,-0.81,-1.75,2.91
2022-11-20 11:53:42.3830,-0.95,-1.45,-1.71,2.43
2022-11-20 11:53:42.3930,-0.39,-2.26,-1.59,2.79
2022-11-20 11:53:42.4030,-0.39,-2.78,-1.81,3.34
2022-11-20 11:53:42.4130,-0.95,-2.84,-2.11,3.66
2022-11-20 11:53:42.4420,-1.65,-2.45,-1.94,3.53
2022-11-20 11:53:42.4440,-2.14,-1.81,-1.87,3.36
2022-11-20 11:53:42.4460,-2.62,-1.38,-1.79,3.46
2022-11-20 11:53:42.4570,-3.05,-1.32,-1.42,3.61
2022-11-20 11:53:42.4630,-3.06,-1.57,-1.46,3.73
2022-11-20 11:53:42.4730,-2.8,-1.97,-1.48,3.72
2022-11-20 11:53:42.4830,-2.18,-2.21,-1.93,3.65
2022-11-20 11:53:42.4930,-1.51,-2.31,-2.01,3.41
2022-11-20 11:53:42.5030,-1.35,-2.04,-0.17,2.45
2022-11-20 11:53:42.5130,-4.58,-2.54,4.36,6.81
2022-11-20 11:53:42.5430,-9.79,4.27,1.72,10.81
2022-11-20 11:53:42.5450,-5.98,13.99,2.34,15.39
2022-11-20 11:53:42.5470,3.77,13.11,3.28,14.03
2022-11-20 11:53:42.5570,4.55,5.44,-1.11,7.17
2022-11-20 11:53:42.5640,3.31,-3.28,-3.21,5.65
2022-11-20 11:53:42.5740,5.84,-8.65,-3.18,10.91
2022-11-20 11:53:42.5840,7.89,-10.01,-1.92,12.88
2022-11-20 11:53:42.5940,7.72,-5.27,-1.14,9.41
2022-11-20 11:53:42.6040,4.71,0.91,-1.24,4.95
2022-11-20 11:53:42.6140,1.97,4.45,-1.12,4.99
2022-11-20 11:53:42.6430,-0.31,5.52,-0.04,5.52
2022-11-20 11:53:42.6460,-2.05,3.61,0.62,4.19
2022-11-20 11:53:42.6470,-2.86,0.67,-0.03,2.93
2022-11-20 11:53:42.6570,-2.71,-1.05,-0.58,2.96
2022-11-20 11:53:42.6640,-2.13,-1.46,-0.75,2.68
2022-11-20 11:53:42.6740,-1.4,-1.06,-0.46,1.81
2022-11-20 11:53:42.6840,-1.0,0.0,0.38,1.06
2022-11-20 11:53:42.6940,-1.51,1.05,0.55,1.91
2022-11-20 11:53:42.7050,-1.92,1.51,0.59,2.51
2022-11-20 11:53:42.7140,-1.38,0.97,1.12,2.02
2022-11-20 11:53:42.7440,-0.21,-0.01,1.71,1.72
2022-11-20 11:53:42.7460,0.58,-0.45,1.83,1.97
2022-11-20 11:53:42.7480,0.21,-0.49,1.64,1.72
2022-11-20 11:53:42.7560,-0.86,-0.24,1.15,1.45
2022-11-20 11:53:42.7650,-1.58,-0.04,0.14,1.58
2022-11-20 11:53:42.7750,-1.43,-0.22,-0.99,1.75
2022-11-20 11:53:42.7850,-0.51,-0.72,-1.01,1.34
2022-11-20 11:53:42.7950,0.33,-1.12,-0.16,1.17
2022-11-20 11:53:42.8050,0.35,-0.79,1.23,1.5
2022-11-20 11:53:42.8150,-0.12,-0.17,1.76,1.77
2022-11-20 11:53:42.8450,-0.28,0.09,2.1,2.12
2022-11-20 11:53:42.8470,0.03,0.12,2.59,2.59
2022-11-20 11:53:42.8490,0.44,0.12,2.87,2.9
2022-11-20 11:53:42.8570,0.66,0.25,3.48,3.55
2022-11-20 11:53:42.8650,0.85,0.53,3.99,4.11
2022-11-20 11:53:42.8750,0.78,0.82,3.69,3.85
2022-11-20 11:53:42.8850,0.44,0.39,2.09,2.17
2022-11-20 11:53:42.8950,-0.02,-0.91,0.86,1.25
2022-11-20 11:53:42.9050,-0.64,-2.19,0.24,2.29
2022-11-20 11:53:42.9150,-1.36,-3.16,0.03,3.44
2022-11-20 11:53:42.9460,-2.05,-3.36,1.61,4.25
2022-11-20 11:53:42.9500,-2.39,-2.45,3.2,4.68
2022-11-20 11:53:42.9520,-1.93,-0.75,3.07,3.7
2022-11-20 11:53:42.9570,-0.22,0.92,1.52,1.79
2022-11-20 11:53:42.9660,2.11,1.58,0.77,2.74
2022-11-20 11:53:42.9760,4.17,0.43,0.86,4.27
2022-11-20 11:53:42.9860,5.29,-1.35,0.3,5.46
2022-11-20 11:53:42.9960,4.41,-2.6,0.16,5.12
2022-11-20 11:53:43.0060,2.57,-2.57,2.56,4.44
2022-11-20 11:53:43.0160,0.82,-0.93,4.08,4.26
2022-11-20 11:53:43.0460,-0.33,-0.18,0.76,0.84
2022-11-20 11:53:43.0480,-0.56,-1.09,-1.4,1.86
2022-11-20 11:53:43.0500,0.06,-2.87,-1.74,3.35
2022-11-20 11:53:43.0570,1.57,-4.48,-1.05,4.86
2022-11-20 11:53:43.0660,2.26,-4.19,0.84,4.83
2022-11-20 11:53:43.0760,1.57,-1.91,1.99,3.17
2022-11-20 11:53:43.0860,0.83,1.21,2.42,2.83
2022-11-20 11:53:43.0960,0.32,4.92,1.55,5.16
2022-11-20 11:53:43.1060,0.13,8.82,1.23,8.9
2022-11-20 11:53:43.1170,1.55,11.68,1.09,11.83
2022-11-20 11:53:43.1480,3.44,12.01,0.66,12.51
2022-11-20 11:53:43.1500,4.12,10.77,0.16,11.53
2022-11-20 11:53:43.1520,4.15,8.46,-0.97,9.47
2022-11-20 11:53:43.1570,3.17,7.94,-1.41,8.66
2022-11-20 11:53:43.1660,1.62,8.86,-2.56,9.36
2022-11-20 11:53:43.1760,-0.75,8.86,-3.71,9.63
2022-11-20 11:53:43.1860,-4.43,7.55,-4.38,9.78
2022-11-20 11:53:43.1970,-8.65,5.77,-6.47,12.24
2022-11-20 11:53:43.2070,-12.39,2.93,-9.27,15.74
2022-11-20 11:53:43.2170,-15.36,-0.73,-8.87,17.75
2022-11-20 11:53:43.2480,-12.29,-0.13,-4.28,13.01
2022-11-20 11:53:43.2500,-6.28,1.18,0.98,6.46
2022-11-20 11:53:43.2520,-4.25,-0.81,-0.18,4.33
2022-11-20 11:53:43.2570,-3.55,-2.11,-2.87,5.02
2022-11-20 11:53:43.2670,-0.01,0.16,-0.73,0.74
2022-11-20 11:53:43.2770,3.89,1.8,3.07,5.27
2022-11-20 11:53:43.2870,6.13,1.5,2.7,6.86
2022-11-20 11:53:43.2970,6.31,0.97,1.57,6.57
2022-11-20 11:53:43.3070,3.88,-0.24,2.26,4.49
2022-11-20 11:53:43.3170,0.45,-1.8,2.31,2.96
2022-11-20 11:53:43.3500,-1.04,-3.0,2.46,4.01
2022-11-20 11:53:43.3520,-1.72,-3.11,3.41,4.92
2022-11-20 11:53:43.3530,-2.22,-2.73,4.51,5.72
2022-11-20 11:53:43.3570,-2.76,-2.45,4.43,5.76
2022-11-20 11:53:43.3670,-3.77,-2.66,3.97,6.08
2022-11-20 11:53:43.3770,-4.74,-3.24,3.92,6.95
2022-11-20 11:53:43.3880,-5.23,-3.74,3.82,7.47
2022-11-20 11:53:43.3980,-5.06,-4.09,3.67,7.46
2022-11-20 11:53:43.4080,-4.37,-4.43,2.02,6.54
2022-11-20 11:53:43.4180,-3.63,-5.4,-0.23,6.51
2022-11-20 11:53:43.4520,-3.06,-6.34,-0.67,7.07
2022-11-20 11:53:43.4540,-2.82,-6.62,-0.87,7.24
2022-11-20 11:53:43.4560,-3.19,-6.78,-1.58,7.65
2022-11-20 11:53:43.4580,-3.65,-6.89,-2.28,8.12
2022-11-20 11:53:43.4680,-3.47,-6.61,-2.99,8.04
2022-11-20 11:53:43.4780,-2.91,-6.48,-3.27,7.81
2022-11-20 11:53:43.4880,-2.19,-6.86,-2.79,7.72
2022-11-20 11:53:43.4980,-2.32,-7.46,-3.09,8.4
2022-11-20 11:53:43.5080,-3.04,-7.26,-4.43,9.03
2022-11-20 11:53:43.5180,-3.7,-6.8,-5.99,9.78
2022-11-20 11:53:43.5520,-3.87,-6.26,-6.88,10.07
2022-11-20 11:53:43.5550,-2.81,-4.23,-6.75,8.44
2022-11-20 11:53:43.5580,-1.35,-1.27,-5.61,5.9
2022-11-20 11:53:43.5600,-0.32,0.68,-4.13,4.19
2022-11-20 11:53:43.5680,-0.09,0.58,-4.05,4.09
2022-11-20 11:53:43.5790,-0.44,-0.2,-4.34,4.36
2022-11-20 11:53:43.5890,-0.67,-0.94,-3.86,4.02
2022-11-20 11:53:43.5990,-0.66,-0.87,-3.96,4.1
2022-11-20 11:53:43.6090,-0.58,-0.93,-3.28,3.45
2022-11-20 11:53:43.6190,-1.03,-0.45,-3.02,3.22
2022-11-20 11:53:43.6550,-1.5,0.27,-3.29,3.62
2022-11-20 11:53:43.6570,-1.32,0.58,-2.94,3.27
2022-11-20 11:53:43.6590,-0.48,0.64,-2.13,2.27
2022-11-20 11:53:43.6740,0.68,0.47,-1.5,1.71
2022-11-20 11:53:43.6760,1.57,0.18,-1.22,1.99
2022-11-20 11:53:43.6910,0.49,1.19,0.8,1.51
2022-11-20 11:53:43.6930,-0.35,2.3,1.5,2.76
2022-11-20 11:53:43.7060,-2.4,4.71,-0.66,5.32
2022-11-20 11:53:43.7100,-0.61,11.45,8.4,14.21
2022-11-20 11:53:43.7220,5.76,17.67,13.91,23.21
2022-11-20 11:53:43.7580,2.71,11.72,10.8,16.16
2022-11-20 11:53:43.7600,-0.86,4.51,6.46,7.92
2022-11-20 11:53:43.7740,-0.6,1.79,1.93,2.69
2022-11-20 11:53:43.7760,0.48,0.33,-2.0,2.08
2022-11-20 11:53:43.7900,0.98,-0.4,-4.47,4.59
2022-11-20 11:53:43.7920,1.45,-0.52,-3.88,4.17
2022-11-20 11:53:43.8060,3.18,3.08,-0.72,4.48
2022-11-20 11:53:43.8080,3.85,10.91,0.69,11.58
2022-11-20 11:53:43.8230,2.53,13.47,-2.59,13.94
2022-11-20 11:53:43.8260,0.49,5.25,-4.43,6.88
2022-11-20 11:53:43.8620,-0.93,-0.35,-4.33,4.44
2022-11-20 11:53:43.8640,-2.11,-2.24,-4.58,5.51
2022-11-20 11:53:43.8730,-2.46,-2.79,-3.86,5.36
2022-11-20 11:53:43.8750,-1.85,-2.12,-2.44,3.72
2022-11-20 11:53:43.8900,-1.23,-1.16,-0.23,1.7
2022-11-20 11:53:43.8920,-0.73,-0.52,2.0,2.19
2022-11-20 11:53:43.9060,0.13,0.87,3.43,3.54
2022-11-20 11:53:43.9080,1.11,3.07,3.93,5.1
2022-11-20 11:53:43.9220,1.55,3.89,2.87,5.07
2022-11-20 11:53:43.9240,1.35,2.0,0.95,2.59
2022-11-20 11:53:43.9590,1.06,-0.26,0.08,1.09
2022-11-20 11:53:43.9610,1.09,-1.75,0.26,2.07
2022-11-20 11:53:43.9730,0.92,-2.58,1.29,3.02
2022-11-20 11:53:43.9750,0.52,-2.64,2.09,3.4
2022-11-20 11:53:43.9900,0.11,-2.45,2.44,3.45
2022-11-20 11:53:43.9920,-0.32,-2.06,3.6,4.16
2022-11-20 11:53:44.0060,-0.55,-0.99,5.17,5.29
2022-11-20 11:53:44.0080,-0.64,0.38,4.34,4.4
2022-11-20 11:53:44.0230,-0.33,0.79,1.5,1.72
2022-11-20 11:53:44.0260,0.27,-0.43,0.73,0.88
2022-11-20 11:53:44.0630,0.86,-1.97,1.98,2.92
2022-11-20 11:53:44.0650,0.94,-2.55,2.7,3.83
2022-11-20 11:53:44.0730,0.09,-2.38,2.04,3.13
2022-11-20 11:53:44.0750,-0.61,-2.05,1.26,2.48
2022-11-20 11:53:44.0890,-0.37,-2.03,0.53,2.13
2022-11-20 11:53:44.0910,0.35,-2.26,0.02,2.28
2022-11-20 11:53:44.1050,0.95,-2.12,0.05,2.32
2022-11-20 11:53:44.1070,1.32,-1.07,0.3,1.72
2022-11-20 11:53:44.1220,1.28,0.21,0.59,1.42
2022-11-20 11:53:44.1240,0.94,1.29,1.14,1.96
2022-11-20 11:53:44.1590,0.55,1.38,1.09,1.84
2022-11-20 11:53:44.1610,0.12,0.72,0.7,1.01
2022-11-20 11:53:44.1730,0.02,0.75,0.83,1.11
2022-11-20 11:53:44.1750,0.41,2.28,1.16,2.59
2022-11-20 11:53:44.1900,1.06,4.5,0.82,4.69
2022-11-20 11:53:44.1920,1.31,7.1,0.57,7.24
2022-11-20 11:53:44.2050,1.49,9.42,-0.94,9.58
2022-11-20 11:53:44.2070,1.7,11.04,-1.92,11.33
2022-11-20 11:53:44.2220,1.48,12.26,-1.58,12.44
2022-11-20 11:53:44.2240,0.6,12.99,-1.63,13.1
2022-11-20 11:53:44.2600,-0.49,12.72,-2.69,13.01
2022-11-20 11:53:44.2620,-1.3,10.71,-3.22,11.25
2022-11-20 11:53:44.2730,-1.57,7.56,-2.52,8.12
2022-11-20 11:53:44.2750,-1.96,4.54,-1.27,5.1
2022-11-20 11:53:44.2890,-2.89,0.8,-0.89,3.12
2022-11-20 11:53:44.2910,-3.93,-3.1,-1.78,5.31
2022-11-20 11:53:44.3050,-5.26,-7.43,-0.85,9.14
2022-11-20 11:53:44.3070,-6.52,-9.46,0.99,11.53
2022-11-20 11:53:44.3220,-3.54,-5.61,1.61,6.82
2022-11-20 11:53:44.3240,1.57,-1.52,2.19,3.09
2022-11-20 11:53:44.3730,5.42,0.27,2.13,5.82
2022-11-20 11:53:44.3750,7.46,0.7,1.52,7.64
2022-11-20 11:53:44.3770,6.49,-0.5,1.04,6.59
2022-11-20 11:53:44.3900,3.58,-2.57,0.56,4.44
2022-11-20 11:53:44.3920,0.97,-3.89,0.43,4.03
2022-11-20 11:53:44.4060,-1.14,-4.76,-0.59,4.93
2022-11-20 11:53:44.4080,-2.97,-5.96,-2.23,7.02
2022-11-20 11:53:44.4220,-4.25,-6.8,-2.0,8.26
2022-11-20 11:53:44.4250,-4.97,-6.26,-0.63,8.01
2022-11-20 11:53:44.4390,-4.94,-4.96,-0.59,7.02
2022-11-20 11:53:44.4770,-3.97,-4.27,-1.91,6.13
2022-11-20 11:53:44.4800,-2.23,-4.15,-2.85,5.5
2022-11-20 11:53:44.4900,-0.54,-4.34,-3.05,5.33
2022-11-20 11:53:44.4910,0.27,-4.68,-3.28,5.72
2022-11-20 11:53:44.4930,0.17,-6.22,-4.69,7.79
2022-11-20 11:53:44.5060,-0.37,-8.44,-5.51,10.08
2022-11-20 11:53:44.5090,-0.98,-8.63,-4.7,9.87
2022-11-20 11:53:44.5230,-2.01,-5.62,-3.6,6.97
2022-11-20 11:53:44.5250,-3.44,-2.89,-3.24,5.53
2022-11-20 11:53:44.5390,-4.6,-1.8,-2.95,5.75
2022-11-20 11:53:44.5770,-5.22,-1.84,-3.21,6.39
2022-11-20 11:53:44.5790,-4.79,-2.25,-4.28,6.8
2022-11-20 11:53:44.5900,-3.08,-2.79,-4.27,5.95
2022-11-20 11:53:44.5920,-0.64,-2.4,-5.57,6.09
2022-11-20 11:53:44.6060,1.23,-2.47,-5.94,6.54
2022-11-20 11:53:44.6080,1.79,-2.75,-4.93,5.92
2022-11-20 11:53:44.6230,1.5,-2.23,-4.71,5.42
2022-11-20 11:53:44.6250,0.8,-1.54,-3.91,4.27
2022-11-20 11:53:44.6390,-0.09,-0.57,-2.72,2.78
2022-11-20 11:53:44.6410,-0.84,0.44,-1.82,2.05
2022-11-20 11:53:44.6820,-1.15,1.09,-1.08,1.91
2022-11-20 11:53:44.6840,-1.05,1.32,-0.58,1.78
2022-11-20 11:53:44.6900,-0.54,1.25,-0.39,1.41
2022-11-20 11:53:44.6920,-0.25,0.97,-0.18,1.01
2022-11-20 11:53:44.7060,0.0,0.73,0.16,0.74
2022-11-20 11:53:44.7090,0.15,0.8,0.02,0.81
2022-11-20 11:53:44.7230,-1.2,1.79,1.28,2.5
2022-11-20 11:53:44.7260,-1.89,2.13,2.77,3.97
2022-11-20 11:53:44.7390,-4.79,1.26,-0.49,4.97
2022-11-20 11:53:44.7420,-5.5,4.03,1.06,6.9
2022-11-20 11:53:44.7810,2.85,11.17,10.26,15.43
2022-11-20 11:53:44.7830,5.67,14.73,10.27,18.83
2022-11-20 11:53:44.7900,-0.91,7.13,5.23,8.88
2022-11-20 11:53:44.7920,-1.56,1.48,0.42,2.19
2022-11-20 11:53:44.8060,-0.02,-1.37,-2.69,3.01
2022-11-20 11:53:44.8080,0.24,-0.83,-3.89,3.98
2022-11-20 11:53:44.8220,1.68,3.67,1.64,4.35
2022-11-20 11:53:44.8250,5.98,12.54,4.05,14.47
2022-11-20 11:53:44.8390,5.24,14.05,-0.83,15.01
2022-11-20 11:53:44.8410,2.55,4.4,-2.65,5.73
2022-11-20 11:53:44.8810,1.38,-0.95,-3.56,3.93
2022-11-20 11:53:44.8830,-0.42,-2.11,-4.4,4.89
2022-11-20 11:53:44.8900,-1.98,-2.72,-5.57,6.5
2022-11-20 11:53:44.8920,-3.18,-2.62,-7.37,8.44
2022-11-20 11:53:44.9060,-4.09,-2.35,-7.25,8.64
2022-11-20 11:53:44.9080,-4.21,-1.37,-4.9,6.6
2022-11-20 11:53:44.9220,-3.53,0.51,-2.41,4.3
2022-11-20 11:53:44.9240,-2.15,1.66,-1.01,2.89
2022-11-20 11:53:44.9390,-0.54,1.73,0.57,1.89
2022-11-20 11:53:44.9410,0.32,1.49,2.56,2.97
2022-11-20 11:53:44.9800,0.42,1.47,2.42,2.86
2022-11-20 11:53:44.9820,0.76,1.19,1.8,2.28
2022-11-20 11:53:44.9900,1.74,0.14,1.69,2.42
2022-11-20 11:53:44.9920,2.32,-1.04,1.86,3.15
2022-11-20 11:53:45.0060,1.77,-1.53,2.13,3.16
2022-11-20 11:53:45.0080,0.7,-1.13,2.94,3.22
2022-11-20 11:53:45.0220,0.01,-0.49,3.88,3.91
2022-11-20 11:53:45.0240,-0.26,-0.23,4.17,4.18
2022-11-20 11:53:45.0390,-0.34,-0.58,4.26,4.31
2022-11-20 11:53:45.0410,-0.21,-1.01,4.34,4.46
2022-11-20 11:53:45.0800,-0.14,-0.87,4.36,4.44
2022-11-20 11:53:45.0820,-0.4,-0.42,4.1,4.14
2022-11-20 11:53:45.0900,-0.38,-0.03,4.46,4.47
2022-11-20 11:53:45.0920,-0.06,0.09,5.41,5.41
2022-11-20 11:53:45.1070,0.2,-0.05,6.06,6.06
2022-11-20 11:53:45.1090,0.69,-0.22,5.73,5.77
2022-11-20 11:53:45.1220,1.14,-0.48,3.87,4.06
2022-11-20 11:53:45.1240,1.58,-1.49,1.49,2.63
2022-11-20 11:53:45.1390,1.64,-2.93,0.59,3.4
2022-11-20 11:53:45.1410,1.22,-3.78,-0.24,3.97
2022-11-20 11:53:45.1820,0.36,-3.62,-1.26,3.84
2022-11-20 11:53:45.1840,-0.46,-2.29,-0.51,2.39
2022-11-20 11:53:45.1900,-1.05,0.19,1.33,1.7
2022-11-20 11:53:45.1920,-0.71,1.55,0.52,1.78
2022-11-20 11:53:45.2060,-0.04,0.02,-0.46,0.46
2022-11-20 11:53:45.2080,0.5,-2.45,-0.23,2.51
2022-11-20 11:53:45.2220,1.21,-3.48,-0.19,3.68
2022-11-20 11:53:45.2240,0.64,-3.61,-0.62,3.71
2022-11-20 11:53:45.2390,-0.5,-3.65,-1.63,4.02
2022-11-20 11:53:45.2410,-1.41,-2.96,-1.14,3.47
2022-11-20 11:53:45.2800,-1.33,-0.53,-1.01,1.75
2022-11-20 11:53:45.2820,-0.47,2.28,-0.73,2.43
2022-11-20 11:53:45.2900,0.57,4.88,-0.28,4.92
2022-11-20 11:53:45.2920,1.89,6.9,-0.39,7.16
2022-11-20 11:53:45.3060,3.22,8.34,0.86,8.98
2022-11-20 11:53:45.3090,3.96,8.08,0.97,9.05
2022-11-20 11:53:45.3220,3.26,5.51,-0.32,6.41
2022-11-20 11:53:45.3240,2.23,3.74,-1.72,4.68
2022-11-20 11:53:45.3390,1.4,3.92,-2.71,4.96
2022-11-20 11:53:45.3410,0.45,6.16,-3.08,6.9
2022-11-20 11:53:45.3810,-0.56,8.78,-3.75,9.56
2022-11-20 11:53:45.3820,-2.13,11.32,-4.02,12.19
2022-11-20 11:53:45.3900,-3.64,12.46,-3.32,13.39
2022-11-20 11:53:45.3920,-4.22,10.53,-2.44,11.6
2022-11-20 11:53:45.4060,-3.89,6.74,-1.99,8.03
2022-11-20 11:53:45.4080,-3.44,2.85,-1.81,4.81
2022-11-20 11:53:45.4220,-2.59,-0.88,-0.93,2.88
2022-11-20 11:53:45.4240,-1.54,-3.76,-0.94,4.17
2022-11-20 11:53:45.4390,-1.19,-6.65,-0.1,6.75
2022-11-20 11:53:45.4410,-0.58,-8.18,3.05,8.74
2022-11-20 11:53:45.4810,1.28,-6.21,3.96,7.47
2022-11-20 11:53:45.4830,2.58,-3.67,2.13,4.96
2022-11-20 11:53:45.4900,3.71,-2.31,1.01,4.48
2022-11-20 11:53:45.4920,5.2,-1.33,1.35,5.53
2022-11-20 11:53:45.5060,5.27,-0.78,1.77,5.61
2022-11-20 11:53:45.5080,4.33,-0.87,1.63,4.7
2022-11-20 11:53:45.5220,3.26,-1.53,1.32,3.83
2022-11-20 11:53:45.5240,1.69,-2.22,1.03,2.97
2022-11-20 11:53:45.5390,-0.23,-3.06,0.06,3.06
2022-11-20 11:53:45.5410,-1.8,-4.25,-0.57,4.65
2022-11-20 11:53:45.5810,-2.42,-5.23,-0.07,5.76
2022-11-20 11:53:45.5830,-2.62,-6.05,-1.26,6.71
2022-11-20 11:53:45.5900,-3.04,-7.14,-2.97,8.3
2022-11-20 11:53:45.5920,-3.22,-7.33,-2.32,8.33
2022-11-20 11:53:45.6060,-2.9,-6.22,-1.73,7.07
2022-11-20 11:53:45.6080,-2.23,-5.04,-2.18,5.92
2022-11-20 11:53:45.6220,-1.37,-4.28,-2.91,5.35
2022-11-20 11:53:45.6240,-0.79,-4.19,-3.71,5.65
2022-11-20 11:53:45.6390,-0.9,-4.74,-4.01,6.27
2022-11-20 11:53:45.6410,-1.22,-5.74,-3.79,6.98
2022-11-20 11:53:45.6810,-1.9,-6.28,-4.6,8.01
2022-11-20 11:53:45.6830,-2.51,-5.9,-6.0,8.78
2022-11-20 11:53:45.6900,-2.72,-5.52,-6.31,8.81
2022-11-20 11:53:45.6920,-2.33,-4.3,-5.02,7.0
2022-11-20 11:53:45.7060,-1.07,-2.0,-3.48,4.15
2022-11-20 11:53:45.7080,-0.22,-0.35,-3.28,3.3
2022-11-20 11:53:45.7220,0.11,0.0,-4.5,4.5
2022-11-20 11:53:45.7240,0.53,-0.88,-4.59,4.7
2022-11-20 11:53:45.7390,0.28,-1.7,-2.81,3.29
2022-11-20 11:53:45.7410,-1.3,-0.69,-1.49,2.09
2022-11-20 11:53:45.7820,-2.1,0.58,-2.25,3.13
2022-11-20 11:53:45.7840,-2.02,0.3,-1.44,2.49
2022-11-20 11:53:45.7900,-2.52,-0.17,-0.52,2.57
2022-11-20 11:53:45.7920,-2.53,0.35,-0.56,2.61
2022-11-20 11:53:45.8060,-1.76,0.97,-0.3,2.03
2022-11-20 11:53:45.8080,-0.85,1.12,-0.2,1.42
2022-11-20 11:53:45.8220,0.28,1.05,-0.32,1.13
2022-11-20 11:53:45.8240,1.43,0.87,-0.7,1.81
2022-11-20 11:53:45.8390,1.86,0.08,-0.9,2.06
2022-11-20 11:53:45.8410,-0.24,-0.02,1.67,1.68
2022-11-20 11:53:45.8820,-2.55,1.24,-0.33,2.85
2022-11-20 11:53:45.8840,-5.42,3.4,-4.19,7.64
2022-11-20 11:53:45.8900,-2.64,8.07,4.29,9.51
2022-11-20 11:53:45.8920,2.81,12.91,10.85,17.09
2022-11-20 11:53:45.9060,-2.64,12.51,9.5,15.92
2022-11-20 11:53:45.9080,-6.04,7.09,5.66,10.89
2022-11-20 11:53:45.9220,-3.39,2.1,1.56,4.28
2022-11-20 11:53:45.9240,1.15,-1.02,-1.46,2.12
2022-11-20 11:53:45.9390,2.98,-1.16,-4.77,5.74
2022-11-20 11:53:45.9410,3.38,1.01,-0.74,3.6
2022-11-20 11:53:45.9820,2.89,5.5,3.02,6.9
2022-11-20 11:53:45.9840,2.19,10.12,2.74,10.71
2022-11-20 11:53:45.9890,3.23,7.76,-0.32,8.41
2022-11-20 11:53:45.9920,4.07,1.93,-2.45,5.12
2022-11-20 11:53:46.0060,3.14,-1.05,-4.65,5.7
2022-11-20 11:53:46.0080,2.0,-2.44,-5.09,5.98
2022-11-20 11:53:46.0220,0.7,-3.17,-3.75,4.95
2022-11-20 11:53:46.0240,-1.16,-2.32,-2.08,3.32
2022-11-20 11:53:46.0390,-2.89,-0.79,-1.14,3.2
2022-11-20 11:53:46.0410,-3.52,0.66,0.11,3.58
2022-11-20 11:53:46.0840,-2.97,1.73,1.38,3.7
2022-11-20 11:53:46.0870,-1.66,1.55,1.53,2.73
2022-11-20 11:53:46.0900,-0.66,0.64,1.83,2.04
2022-11-20 11:53:46.0920,0.02,-0.03,2.8,2.8
2022-11-20 11:53:46.1060,0.54,-0.18,1.99,2.06
2022-11-20 11:53:46.1090,0.84,-0.61,-0.32,1.08
2022-11-20 11:53:46.1220,1.47,-1.54,-1.38,2.53
2022-11-20 11:53:46.1240,2.61,-2.33,-0.89,3.61
2022-11-20 11:53:46.1390,3.25,-2.1,1.26,4.06
2022-11-20 11:53:46.1410,2.7,-0.47,3.38,4.35
2022-11-20 11:53:46.1830,1.36,1.58,4.51,4.96
2022-11-20 11:53:46.1850,0.68,3.19,4.81,5.81
2022-11-20 11:53:46.1900,1.06,3.07,2.82,4.3
2022-11-20 11:53:46.1920,1.34,0.82,-0.24,1.58
2022-11-20 11:53:46.2060,1.45,-1.99,-1.54,2.9
2022-11-20 11:53:46.2080,1.48,-4.29,-1.15,4.68
2022-11-20 11:53:46.2220,0.96,-5.66,-1.01,5.82
2022-11-20 11:53:46.2240,-0.21,-5.9,-1.06,5.99
2022-11-20 11:53:46.2390,-1.19,-4.97,-0.39,5.12
2022-11-20 11:53:46.2410,-1.27,-2.11,1.62,2.94
2022-11-20 11:53:46.2830,-0.44,2.36,2.09,3.18
2022-11-20 11:53:46.2850,0.98,5.22,0.06,5.31
2022-11-20 11:53:46.2900,2.17,4.43,-0.65,4.97
2022-11-20 11:53:46.2920,3.38,1.93,0.29,3.9
2022-11-20 11:53:46.3060,3.59,-1.25,0.01,3.8
2022-11-20 11:53:46.3080,2.54,-3.58,-0.41,4.4
2022-11-20 11:53:46.3220,1.25,-4.35,0.26,4.53
2022-11-20 11:53:46.3240,0.28,-3.44,0.23,3.45
2022-11-20 11:53:46.3390,-0.45,-1.39,-0.1,1.46
2022-11-20 11:53:46.3410,-0.88,0.92,0.71,1.45
2022-11-20 11:53:46.3840,-0.71,3.03,1.53,3.46
2022-11-20 11:53:46.3860,-0.66,3.29,1.28,3.59
2022-11-20 11:53:46.3900,-1.28,2.16,1.57,2.96
2022-11-20 11:53:46.3920,-1.35,1.96,1.55,2.84
2022-11-20 11:53:46.4060,-1.05,2.29,-0.02,2.51
2022-11-20 11:53:46.4080,-0.88,3.1,-1.01,3.37
2022-11-20 11:53:46.4220,-0.61,4.94,-2.0,5.36
2022-11-20 11:53:46.4240,-0.82,6.94,-3.61,7.86
2022-11-20 11:53:46.4390,-1.51,8.86,-5.43,10.5
2022-11-20 11:53:46.4410,-2.36,10.5,-6.59,12.61
2022-11-20 11:53:46.4840,-3.34,11.14,-7.01,13.57
2022-11-20 11:53:46.4860,-3.61,8.77,-7.12,11.85
2022-11-20 11:53:46.4900,-3.57,5.13,-4.71,7.82
2022-11-20 11:53:46.4920,-3.26,1.52,-2.95,4.65
2022-11-20 11:53:46.5060,-2.74,-2.56,-2.94,4.76
2022-11-20 11:53:46.5080,-1.76,-6.45,-1.61,6.87
2022-11-20 11:53:46.5220,0.27,-9.11,2.23,9.38
2022-11-20 11:53:46.5240,2.75,-10.56,4.57,11.83
2022-11-20 11:53:46.5390,5.26,-9.39,3.81,11.41
2022-11-20 11:53:46.5410,6.08,-5.3,2.8,8.53
2022-11-20 11:53:46.5840,5.57,-3.15,0.25,6.4
2022-11-20 11:53:46.5860,5.14,-3.97,-1.48,6.66
2022-11-20 11:53:46.5900,4.4,-5.87,-0.92,7.39
2022-11-20 11:53:46.5920,3.2,-7.89,-1.16,8.59
2022-11-20 11:53:46.6060,2.52,-9.28,-1.69,9.76
2022-11-20 11:53:46.6080,3.18,-10.03,-3.09,10.96
2022-11-20 11:53:46.6220,4.73,-10.21,-3.87,11.89
2022-11-20 11:53:46.6240,6.5,-9.71,-3.76,12.27
2022-11-20 11:53:46.6390,6.89,-8.29,-4.07,11.52
2022-11-20 11:53:46.6410,4.23,-6.44,-4.87,9.11
2022-11-20 11:53:46.6830,1.13,-4.66,-5.67,7.42
2022-11-20 11:53:46.6850,-0.93,-2.89,-5.39,6.18
2022-11-20 11:53:46.6900,-1.93,-0.85,-5.33,5.73
2022-11-20 11:53:46.6920,-1.72,0.5,-5.55,5.83
2022-11-20 11:53:46.7060,-0.61,0.37,-4.86,4.91
2022-11-20 11:53:46.7090,0.58,-0.64,-4.07,4.16
2022-11-20 11:53:46.7220,1.6,-0.73,-3.44,3.86
2022-11-20 11:53:46.7240,2.31,0.45,-3.05,3.85
2022-11-20 11:53:46.7390,2.62,1.43,-2.3,3.76
2022-11-20 11:53:46.7410,2.26,0.9,-2.12,3.22
2022-11-20 11:53:46.7840,1.83,-0.1,-2.13,2.8
2022-11-20 11:53:46.7860,1.25,-0.6,-1.48,2.02
2022-11-20 11:53:46.7900,0.15,-0.85,-0.69,1.1
2022-11-20 11:53:46.7920,-1.14,-0.85,-0.73,1.59
2022-11-20 11:53:46.8060,-2.35,-0.49,-1.04,2.61
2022-11-20 11:53:46.8080,-3.18,0.19,-1.16,3.39
2022-11-20 11:53:46.8220,-3.24,0.84,-1.94,3.86
2022-11-20 11:53:46.8240,-2.68,1.11,-1.7,3.36
2022-11-20 11:53:46.8390,-1.74,0.96,-1.04,2.24
2022-11-20 11:53:46.8410,-0.76,0.25,-1.02,1.29
2022-11-20 11:53:46.8840,0.06,-0.69,-1.41,1.57
2022-11-20 11:53:46.8860,1.15,-1.7,-2.56,3.28
2022-11-20 11:53:46.8900,1.96,-2.68,-3.19,4.6
2022-11-20 11:53:46.8920,1.94,-2.94,-3.07,4.67
2022-11-20 11:53:46.9060,0.48,-1.42,-2.64,3.03
2022-11-20 11:53:46.9090,-1.81,0.56,-2.4,3.05
2022-11-20 11:53:46.9220,-3.65,1.23,-2.44,4.55
2022-11-20 11:53:46.9240,-4.97,1.15,-2.03,5.49
2022-11-20 11:53:46.9390,-5.78,0.66,-1.26,5.95
2022-11-20 11:53:46.9410,-5.99,-0.15,-0.61,6.02
2022-11-20 11:53:46.9840,-5.64,-0.96,-0.29,5.72
2022-11-20 11:53:46.9860,-4.51,-1.43,0.5,4.75
2022-11-20 11:53:46.9900,-2.91,-1.25,1.4,3.46
2022-11-20 11:53:46.9920,-3.6,1.14,1.63,4.11
2022-11-20 11:53:47.0060,-4.35,6.22,3.6,8.4
2022-11-20 11:53:47.0090,-0.46,9.05,4.14,9.96
2022-11-20 11:53:47.0220,-0.11,6.16,1.26,6.28
2022-11-20 11:53:47.0240,-2.73,0.61,-1.04,2.98
2022-11-20 11:53:47.0390,-3.05,-3.34,-2.31,5.07
2022-11-20 11:53:47.0410,-2.15,-5.14,-2.34,6.04
2022-11-20 11:53:47.0840,-1.64,-4.45,-1.29,4.91
2022-11-20 11:53:47.0860,-0.9,-1.21,-0.98,1.79
2022-11-20 11:53:47.0900,0.37,1.65,-1.47,2.24
2022-11-20 11:53:47.0920,1.72,2.4,-1.05,3.13
2022-11-20 11:53:47.1060,3.19,1.73,-0.35,3.64
2022-11-20 11:53:47.1090,3.91,0.57,-0.13,3.95
2022-11-20 11:53:47.1220,2.99,-0.05,-0.43,3.02
2022-11-20 11:53:47.1240,0.49,0.35,-1.16,1.3
2022-11-20 11:53:47.1390,-1.8,0.59,-1.55,2.44
2022-11-20 11:53:47.1410,-3.03,0.74,-1.57,3.49
2022-11-20 11:53:47.1840,-3.34,0.9,-1.26,3.68
2022-11-20 11:53:47.1850,-2.88,0.88,-0.75,3.1
2022-11-20 11:53:47.1900,-1.74,0.66,-0.33,1.89
2022-11-20 11:53:47.1920,-0.53,0.3,-0.16,0.62
2022-11-20 11:53:47.2060,0.05,-0.07,0.27,0.28
2022-11-20 11:53:47.2090,-0.1,-0.38,0.88,0.96
2022-11-20 11:53:47.2220,-0.54,-0.48,1.41,1.58
2022-11-20 11:53:47.2240,-0.95,-0.27,1.64,1.91
2022-11-20 11:53:47.2390,-1.14,0.04,1.39,1.79
2022-11-20 11:53:47.2410,-0.84,0.23,1.2,1.48
2022-11-20 11:53:47.2840,-0.44,0.06,1.16,1.24
2022-11-20 11:53:47.2860,-0.38,-0.4,1.11,1.23
2022-11-20 11:53:47.2900,-0.33,-0.67,1.29,1.49
2022-11-20 11:53:47.2920,-0.11,-0.52,1.63,1.71
2022-11-20 11:53:47.3060,-0.12,-0.26,1.97,1.99
2022-11-20 11:53:47.3090,-0.42,-0.13,2.16,2.2
2022-11-20 11:53:47.3220,-0.57,0.02,2.03,2.1
2022-11-20 11:53:47.3240,-0.29,0.28,1.98,2.02
2022-11-20 11:53:47.3390,0.06,0.32,2.1,2.12
2022-11-20 11:53:47.3410,0.31,0.06,2.26,2.28
2022-11-20 11:53:47.3830,0.37,-0.15,2.41,2.44
2022-11-20 11:53:47.3850,0.31,-0.19,2.44,2.46
2022-11-20 11:53:47.3900,0.42,-0.25,2.23,2.28
2022-11-20 11:53:47.3920,0.5,-0.39,1.55,1.67
2022-11-20 11:53:47.4060,0.38,-0.46,0.95,1.12
2022-11-20 11:53:47.4090,0.37,-0.25,0.57,0.72
2022-11-20 11:53:47.4220,0.59,0.08,0.04,0.59
2022-11-20 11:53:47.4240,0.82,0.16,-0.25,0.87
2022-11-20 11:53:47.4390,1.07,-0.01,-0.12,1.07
2022-11-20 11:53:47.4410,1.03,-0.26,0.52,1.18
2022-11-20 11:53:47.4830,0.45,-0.31,1.34,1.44
2022-11-20 11:53:47.4850,-0.33,-0.32,1.43,1.5
2022-11-20 11:53:47.4900,-0.6,-0.18,1.7,1.81
2022-11-20 11:53:47.4920,-0.2,0.11,2.01,2.02
2022-11-20 11:53:47.5060,0.17,0.36,2.01,2.04
2022-11-20 11:53:47.5080,0.61,0.69,1.01,1.36
2022-11-20 11:53:47.5220,1.1,1.16,-0.36,1.63
2022-11-20 11:53:47.5240,1.39,1.44,-1.59,2.55
2022-11-20 11:53:47.5390,1.5,1.34,-2.19,2.97
2022-11-20 11:53:47.5410,1.31,1.54,-2.6,3.29
2022-11-20 11:53:47.5830,0.61,2.99,-3.58,4.7
2022-11-20 11:53:47.5850,0.03,4.16,-4.19,5.9
2022-11-20 11:53:47.5900,0.18,4.75,-3.93,6.16
2022-11-20 11:53:47.5920,1.85,6.2,-4.03,7.62
2022-11-20 11:53:47.6060,3.5,7.28,-2.75,8.53
2022-11-20 11:53:47.6090,4.45,7.09,-1.24,8.46
2022-11-20 11:53:47.6220,4.9,6.42,0.24,8.07
2022-11-20 11:53:47.6240,4.52,5.34,1.63,7.18
2022-11-20 11:53:47.6390,4.02,4.43,2.49,6.47
2022-11-20 11:53:47.6410,3.75,3.74,3.41,6.29
2022-11-20 11:53:47.6840,2.59,2.65,4.01,5.45
2022-11-20 11:53:47.6860,0.94,2.32,4.36,5.02
2022-11-20 11:53:47.6900,-0.26,3.06,4.41,5.37
2022-11-20 11:53:47.6920,-0.13,3.88,4.21,5.72
2022-11-20 11:53:47.7060,1.4,3.55,4.22,5.68
2022-11-20 11:53:47.7090,2.49,1.51,3.37,4.45
2022-11-20 11:53:47.7220,3.19,-0.94,1.25,3.55
2022-11-20 11:53:47.7240,3.9,-2.76,-0.67,4.82
2022-11-20 11:53:47.7390,4.67,-1.75,-1.6,5.23
2022-11-20 11:53:47.7410,5.78,1.55,-1.75,6.23
2022-11-20 11:53:47.7840,5.64,3.76,-1.83,7.02
2022-11-20 11:53:47.7860,1.76,4.64,-2.39,5.5
2022-11-20 11:53:47.7900,0.17,4.98,-1.53,5.21
2022-11-20 11:53:47.7920,0.2,5.85,-0.16,5.85
2022-11-20 11:53:47.8060,0.14,6.09,-0.03,6.09
2022-11-20 11:53:47.8090,-0.5,5.29,-0.73,5.36
2022-11-20 11:53:47.8220,-1.16,4.62,-0.92,4.85
2022-11-20 11:53:47.8240,-1.34,4.08,-1.39,4.51
2022-11-20 11:53:47.8390,-1.33,3.27,-1.76,3.94
2022-11-20 11:53:47.8410,-1.25,3.1,-1.38,3.61
2022-11-20 11:53:47.8970,-1.36,3.65,-1.03,4.02
2022-11-20 11:53:47.8990,-1.69,4.14,-0.34,4.48
2022-11-20 11:53:47.9010,-2.33,4.22,0.63,4.86
2022-11-20 11:53:47.9060,-3.06,4.21,1.52,5.42
2022-11-20 11:53:47.9090,-3.47,4.63,2.14,6.16
2022-11-20 11:53:47.9220,-3.06,5.08,2.14,6.3
2022-11-20 11:53:47.9250,-1.82,5.06,2.25,5.82
2022-11-20 11:53:47.9390,-0.17,4.5,2.09,4.96
2022-11-20 11:53:47.9410,1.37,3.64,2.86,4.82
2022-11-20 11:53:47.9560,2.49,2.7,3.66,5.18
2022-11-20 11:53:47.9990,2.9,1.53,4.41,5.49
2022-11-20 11:53:48.0010,2.29,0.19,4.36,4.92
2022-11-20 11:53:48.0060,1.17,-1.21,4.36,4.67
2022-11-20 11:53:48.0090,0.4,-2.31,4.58,5.14
2022-11-20 11:53:48.0230,-0.21,-3.26,4.14,5.27
2022-11-20 11:53:48.0250,-0.53,-4.54,3.55,5.78
2022-11-20 11:53:48.0390,-0.38,-6.01,3.22,6.82
2022-11-20 11:53:48.0410,-0.1,-7.22,3.17,7.88
2022-11-20 11:53:48.0560,0.08,-8.27,3.21,8.87
2022-11-20 11:53:48.0580,0.29,-9.13,2.75,9.53
2022-11-20 11:53:48.1010,0.34,-9.51,2.24,9.77
2022-11-20 11:53:48.1030,-0.17,-9.45,1.12,9.51
2022-11-20 11:53:48.1060,-1.15,-9.56,0.14,9.62
2022-11-20 11:53:48.1090,-2.63,-9.89,-0.69,10.25
2022-11-20 11:53:48.1230,-4.45,-9.9,-1.55,10.96
2022-11-20 11:53:48.1250,-5.78,-9.2,-1.95,11.03
2022-11-20 11:53:48.1390,-5.88,-8.35,-2.52,10.51
2022-11-20 11:53:48.1410,-5.01,-8.26,-3.52,10.28
2022-11-20 11:53:48.1560,-4.04,-9.05,-4.2,10.76
2022-11-20 11:53:48.1580,-3.34,-9.9,-4.42,11.34
2022-11-20 11:53:48.2010,-2.87,-10.37,-3.93,11.45
2022-11-20 11:53:48.2030,-2.69,-10.48,-3.56,11.39
2022-11-20 11:53:48.2060,-5.19,-9.87,-9.03,14.34
2022-11-20 11:53:48.2090,-9.66,-3.09,-18.71,21.28
2022-11-20 11:53:48.2240,-1.29,21.33,-0.84,21.38
2022-11-20 11:53:48.2260,13.37,26.81,4.88,30.35
2022-11-20 11:53:48.2390,5.27,7.84,0.7,9.47
2022-11-20 11:53:48.2420,-4.67,-0.84,-2.2,5.23
2022-11-20 11:53:48.2560,-4.53,-4.7,-3.88,7.59
2022-11-20 11:53:48.2580,-2.97,-8.86,-4.67,10.44
2022-11-20 11:53:48.3030,-1.41,-11.94,-3.62,12.55
2022-11-20 11:53:48.3050,1.11,-5.8,-2.32,6.34
2022-11-20 11:53:48.3080,1.59,2.01,-1.69,3.06
2022-11-20 11:53:48.3230,0.49,6.95,-3.54,7.81
2022-11-20 11:53:48.3250,0.29,7.56,-4.53,8.81
2022-11-20 11:53:48.3390,0.62,2.26,-3.98,4.61
2022-11-20 11:53:48.3410,0.97,-1.13,-2.64,3.03
2022-11-20 11:53:48.3560,0.61,-1.53,-1.96,2.56
2022-11-20 11:53:48.3580,-0.32,-1.49,-2.24,2.7
2022-11-20 11:53:48.3720,-0.85,-0.76,-2.42,2.67
2022-11-20 11:53:48.4150,-0.71,0.16,-2.35,2.46
2022-11-20 11:53:48.4170,-0.24,0.46,-1.92,1.98
2022-11-20 11:53:48.4230,0.13,0.22,-0.82,0.85
2022-11-20 11:53:48.4260,0.36,0.04,0.05,0.36
2022-11-20 11:53:48.4400,0.0,0.06,-0.12,0.13
2022-11-20 11:53:48.4420,-0.72,0.13,-0.44,0.85
2022-11-20 11:53:48.4560,-1.3,0.16,-0.61,1.44
2022-11-20 11:53:48.4580,-1.78,0.11,-0.43,1.83
2022-11-20 11:53:48.4720,-1.94,-0.04,-0.02,1.94
2022-11-20 11:53:48.4740,-1.84,-0.19,0.06,1.85
2022-11-20 11:53:48.5170,-1.6,-0.24,0.3,1.64
2022-11-20 11:53:48.5190,-1.05,-0.13,0.53,1.18
2022-11-20 11:53:48.5230,-0.32,-0.08,0.13,0.35
2022-11-20 11:53:48.5250,0.47,-0.37,0.09,0.6
2022-11-20 11:53:48.5400,1.15,-0.71,0.59,1.47
2022-11-20 11:53:48.5420,1.6,-0.8,0.78,1.95
2022-11-20 11:53:48.5560,1.78,-0.88,0.82,2.14
2022-11-20 11:53:48.5580,1.96,-0.73,1.18,2.4
2022-11-20 11:53:48.5730,2.25,-0.56,1.02,2.53
2022-11-20 11:53:48.5750,2.06,-0.54,0.74,2.25
2022-11-20 11:53:48.6210,1.56,-0.49,1.48,2.2
2022-11-20 11:53:48.6230,0.74,-0.16,2.5,2.61
2022-11-20 11:53:48.6400,-0.02,0.23,3.25,3.25
2022-11-20 11:53:48.6430,0.02,0.49,2.97,3.01
2022-11-20 11:53:48.6560,0.61,0.25,2.5,2.58
2022-11-20 11:53:48.6590,0.57,0.08,2.91,2.96
2022-11-20 11:53:48.6730,-0.06,0.84,2.49,2.62
2022-11-20 11:53:48.6760,-0.74,1.74,2.13,2.84
2022-11-20 11:53:48.6900,-0.62,1.98,2.22,3.03
2022-11-20 11:53:48.6940,0.11,1.82,2.01,2.71
2022-11-20 11:53:48.7470,0.51,1.79,1.67,2.5
2022-11-20 11:53:48.7490,1.01,2.15,0.76,2.49
2022-11-20 11:53:48.7570,1.72,2.57,-0.1,3.09
2022-11-20 11:53:48.7590,2.14,3.0,0.09,3.68
2022-11-20 11:53:48.7730,2.41,3.68,-0.2,4.4
2022-11-20 11:53:48.7750,2.32,4.4,-1.71,5.25
2022-11-20 11:53:48.7890,2.38,4.21,-2.48,5.43
2022-11-20 11:53:48.7910,2.66,3.72,-2.14,5.04
2022-11-20 11:53:48.8060,2.45,3.55,-1.61,4.6
2022-11-20 11:53:48.8080,0.98,4.18,-0.71,4.35
2022-11-20 11:53:48.8510,-0.41,5.67,0.87,5.75
2022-11-20 11:53:48.8530,-0.98,6.19,2.25,6.65
2022-11-20 11:53:48.8570,-0.65,5.71,3.13,6.54
2022-11-20 11:53:48.8590,0.63,4.96,3.71,6.22
2022-11-20 11:53:48.8740,1.93,3.62,4.07,5.77
2022-11-20 11:53:48.8770,2.34,1.87,4.6,5.48
2022-11-20 11:53:48.8900,0.87,1.7,5.51,5.83
2022-11-20 11:53:48.8920,-0.99,2.01,6.69,7.05
2022-11-20 11:53:48.9060,-2.09,1.86,7.75,8.23
2022-11-20 11:53:48.9090,-1.91,1.3,8.25,8.56
2022-11-20 11:53:48.9520,-0.16,0.71,7.92,7.95
2022-11-20 11:53:48.9550,1.84,1.64,7.17,7.58
2022-11-20 11:53:48.9580,2.09,1.47,6.15,6.65
2022-11-20 11:53:48.9730,1.57,0.57,3.97,4.3
2022-11-20 11:53:48.9750,1.67,2.1,0.24,2.69
2022-11-20 11:53:48.9890,1.16,4.72,-2.94,5.68
2022-11-20 11:53:48.9910,1.74,7.71,-4.02,8.86
2022-11-20 11:53:49.0060,2.18,8.66,-3.14,9.46
2022-11-20 11:53:49.0080,1.29,6.93,-2.81,7.58
2022-11-20 11:53:49.0220,0.16,4.31,-2.79,5.13
2022-11-20 11:53:49.0650,-0.15,2.72,-2.44,3.65
2022-11-20 11:53:49.0670,-0.13,1.94,-2.63,3.27
2022-11-20 11:53:49.0730,-0.12,1.49,-3.29,3.61
2022-11-20 11:53:49.0750,0.22,1.45,-3.52,3.81
2022-11-20 11:53:49.0900,0.65,1.93,-3.03,3.65
2022-11-20 11:53:49.0920,0.72,2.63,-2.16,3.47
2022-11-20 11:53:49.1060,0.09,2.93,-0.19,2.93
2022-11-20 11:53:49.1080,-1.24,3.04,1.56,3.63
2022-11-20 11:53:49.1220,-2.77,2.96,2.2,4.61
2022-11-20 11:53:49.1240,-3.64,2.83,3.01,5.5
2022-11-20 11:53:49.1680,-3.74,2.59,4.0,6.05
2022-11-20 11:53:49.1700,-3.13,2.15,4.3,5.73
2022-11-20 11:53:49.1730,-1.74,1.43,4.33,4.88
2022-11-20 11:53:49.1760,-0.14,0.41,4.31,4.33
2022-11-20 11:53:49.1900,1.2,-0.96,4.21,4.48
2022-11-20 11:53:49.1920,1.86,-2.39,4.04,5.04
2022-11-20 11:53:49.2060,1.99,-3.43,4.34,5.87
2022-11-20 11:53:49.2080,1.58,-3.87,4.54,6.17
2022-11-20 11:53:49.2220,0.85,-4.2,4.26,6.04
2022-11-20 11:53:49.2240,0.44,-4.89,3.47,6.01
2022-11-20 11:53:49.2670,0.5,-6.13,2.33,6.57
2022-11-20 11:53:49.2690,0.86,-7.41,1.18,7.55
2022-11-20 11:53:49.2730,1.59,-8.34,0.92,8.53
2022-11-20 11:53:49.2750,2.13,-9.05,1.18,9.37
2022-11-20 11:53:49.2890,1.61,-9.77,0.84,9.93
2022-11-20 11:53:49.2920,0.11,-10.08,0.39,10.08
2022-11-20 11:53:49.3060,-1.69,-9.7,-0.28,9.85
2022-11-20 11:53:49.3080,-3.58,-9.05,-1.07,9.79
2022-11-20 11:53:49.3220,-5.46,-8.27,-1.71,10.05
2022-11-20 11:53:49.3240,-6.62,-7.34,-2.23,10.13
2022-11-20 11:53:49.3680,-6.38,-6.54,-2.93,9.59
2022-11-20 11:53:49.3700,-5.03,-6.51,-3.56,8.96
2022-11-20 11:53:49.3730,-3.89,-7.32,-4.19,9.28
2022-11-20 11:53:49.3760,-3.16,-8.35,-4.31,9.91
2022-11-20 11:53:49.3900,-2.66,-9.16,-3.73,10.24
2022-11-20 11:53:49.3920,-3.13,-10.01,-5.59,11.88
2022-11-20 11:53:49.4060,-5.57,-9.86,-17.65,20.97
2022-11-20 11:53:49.4080,-5.91,1.35,-10.67,12.27
2022-11-20 11:53:49.4230,2.43,22.75,7.77,24.16
2022-11-20 11:53:49.4250,9.17,17.58,1.93,19.92
2022-11-20 11:53:49.4700,0.08,3.87,-3.38,5.13
2022-11-20 11:53:49.4730,-3.26,0.1,-2.65,4.2
2022-11-20 11:53:49.4760,-1.63,-3.28,-4.81,6.04
2022-11-20 11:53:49.4900,-1.76,-7.11,-5.67,9.26
2022-11-20 11:53:49.4920,-1.57,-9.72,-4.94,11.01
2022-11-20 11:53:49.5060,0.46,-4.69,-2.22,5.2
2022-11-20 11:53:49.5080,1.01,1.09,-1.14,1.87
2022-11-20 11:53:49.5220,0.83,5.08,-2.34,5.65
2022-11-20 11:53:49.5240,1.28,5.48,-2.74,6.25
2022-11-20 11:53:49.5390,1.74,1.5,-2.07,3.09
2022-11-20 11:53:49.5840,2.11,-0.93,-1.0,2.51
2022-11-20 11:53:49.5860,1.65,-0.75,-1.07,2.1
2022-11-20 11:53:49.5900,0.05,-0.34,-2.2,2.22
2022-11-20 11:53:49.5920,-1.2,0.0,-3.01,3.24
2022-11-20 11:53:49.6060,-1.57,0.3,-2.98,3.38
2022-11-20 11:53:49.6090,-1.46,0.33,-2.2,2.66
2022-11-20 11:53:49.6220,-1.37,0.13,-0.81,1.59
2022-11-20 11:53:49.6240,-1.28,-0.08,0.34,1.32
2022-11-20 11:53:49.6390,-0.99,-0.07,0.77,1.25
2022-11-20 11:53:49.6410,-0.62,0.13,0.7,0.94
2022-11-20 11:53:49.6860,-0.19,0.4,0.76,0.87
2022-11-20 11:53:49.6890,0.3,0.49,0.25,0.62
2022-11-20 11:53:49.6920,0.58,0.33,0.11,0.67
2022-11-20 11:53:49.7060,0.89,0.12,0.3,0.94
2022-11-20 11:53:49.7080,1.17,-0.09,0.4,1.23
2022-11-20 11:53:49.7230,1.24,-0.49,0.5,1.42
2022-11-20 11:53:49.7240,1.21,-0.86,0.54,1.57
2022-11-20 11:53:49.7390,1.16,-0.97,0.44,1.57
2022-11-20 11:53:49.7410,0.99,-0.92,0.65,1.49
2022-11-20 11:53:49.7560,0.55,-0.6,0.92,1.22
2022-11-20 11:53:49.8000,0.03,-0.21,1.08,1.1
2022-11-20 11:53:49.8020,-0.16,-0.16,1.42,1.43
2022-11-20 11:53:49.8070,-0.11,-0.3,1.77,1.79
2022-11-20 11:53:49.8090,-0.16,-0.13,1.86,1.87
2022-11-20 11:53:49.8230,-0.33,0.41,1.52,1.6
2022-11-20 11:53:49.8250,-0.38,0.64,0.86,1.13
2022-11-20 11:53:49.8390,-0.18,0.42,0.29,0.54
2022-11-20 11:53:49.8410,0.16,0.17,-0.45,0.5
2022-11-20 11:53:49.8560,0.5,-0.34,-0.54,0.81
2022-11-20 11:53:49.8580,0.95,-0.71,0.02,1.18
2022-11-20 11:53:49.9030,1.23,-0.65,0.86,1.63
2022-11-20 11:53:49.9050,1.0,-0.29,1.57,1.88
2022-11-20 11:53:49.9080,0.56,0.2,1.66,1.76
2022-11-20 11:53:49.9240,0.28,0.67,0.7,1.0
2022-11-20 11:53:49.9270,0.21,0.87,0.63,1.09
2022-11-20 11:53:49.9400,0.78,0.79,1.92,2.21
2022-11-20 11:53:49.9440,1.08,0.6,2.84,3.09
2022-11-20 11:53:49.9570,0.7,0.87,3.59,3.75
2022-11-20 11:53:49.9610,0.36,1.38,3.64,3.9
2022-11-20 11:53:49.9740,0.06,1.62,2.79,3.22
2022-11-20 11:53:50.0290,-0.11,1.6,2.29,2.79
2022-11-20 11:53:50.0310,-0.48,1.66,1.87,2.54
2022-11-20 11:53:50.0400,-0.61,2.01,1.61,2.64
2022-11-20 11:53:50.0420,-0.55,2.43,0.47,2.53
2022-11-20 11:53:50.0560,0.03,2.81,-1.48,3.17
2022-11-20 11:53:50.0590,0.87,3.04,-2.19,3.84
2022-11-20 11:53:50.0720,2.33,3.75,-2.15,4.91
2022-11-20 11:53:50.0750,3.92,4.64,-1.24,6.19
2022-11-20 11:53:50.0890,3.15,4.7,-0.27,5.66
2022-11-20 11:53:50.0910,1.64,5.97,0.46,6.2
2022-11-20 11:53:50.1350,1.41,6.98,2.25,7.46
2022-11-20 11:53:50.1370,1.64,6.25,3.93,7.56
2022-11-20 11:53:50.1400,1.96,5.02,5.03,7.37
2022-11-20 11:53:50.1420,1.88,4.12,5.94,7.46
2022-11-20 11:53:50.1560,1.52,3.39,6.57,7.54
2022-11-20 11:53:50.1590,0.94,2.91,7.03,7.66
2022-11-20 11:53:50.1720,-0.43,2.82,7.11,7.66
2022-11-20 11:53:50.1740,-1.73,3.18,6.33,7.29
2022-11-20 11:53:50.1890,-1.76,4.21,5.89,7.45
2022-11-20 11:53:50.1910,-1.35,4.18,5.96,7.4
2022-11-20 11:53:50.2340,-1.25,3.02,5.42,6.32
2022-11-20 11:53:50.2360,-0.61,2.38,4.67,5.27
2022-11-20 11:53:50.2410,1.38,2.28,3.67,4.53
2022-11-20 11:53:50.2420,2.93,2.25,1.94,4.17
2022-11-20 11:53:50.2570,3.68,1.96,-0.74,4.23
2022-11-20 11:53:50.2590,3.67,2.57,-2.86,5.31
2022-11-20 11:53:50.2730,3.02,4.39,-3.94,6.62
2022-11-20 11:53:50.2740,3.02,5.54,-2.69,6.85
2022-11-20 11:53:50.2890,1.8,5.17,-1.3,5.62
2022-11-20 11:53:50.2910,-0.2,4.0,-1.58,4.3
2022-11-20 11:53:50.3340,-1.48,2.96,-1.99,3.86
2022-11-20 11:53:50.3360,-2.15,2.6,-2.49,4.19
2022-11-20 11:53:50.3400,-2.28,2.45,-2.76,4.33
2022-11-20 11:53:50.3430,-1.42,2.59,-2.56,3.9
2022-11-20 11:53:50.3570,-0.3,2.72,-2.04,3.41
2022-11-20 11:53:50.3590,0.22,2.61,-1.73,3.13
2022-11-20 11:53:50.3730,0.33,2.58,-1.45,2.97
2022-11-20 11:53:50.3740,-0.01,2.19,-0.53,2.25
2022-11-20 11:53:50.3890,-0.74,1.8,0.73,2.07
2022-11-20 11:53:50.3910,-1.3,1.59,1.41,2.49
2022-11-20 11:53:50.4340,-1.54,1.24,2.19,2.95
2022-11-20 11:53:50.4360,-1.28,1.08,3.02,3.45
2022-11-20 11:53:50.4400,-0.79,0.81,3.0,3.2
2022-11-20 11:53:50.4420,-0.29,0.03,2.76,2.77
2022-11-20 11:53:50.4560,0.32,-0.91,2.98,3.13
2022-11-20 11:53:50.4590,0.87,-1.77,3.31,3.85
2022-11-20 11:53:50.4730,1.02,-2.63,3.65,4.61
2022-11-20 11:53:50.4750,0.82,-3.7,3.77,5.34
2022-11-20 11:53:50.4890,0.42,-4.89,3.28,5.9
2022-11-20 11:53:50.4910,0.15,-5.8,3.07,6.56
2022-11-20 11:53:50.5340,0.12,-6.38,3.02,7.05
2022-11-20 11:53:50.5360,0.14,-6.98,2.67,7.47
2022-11-20 11:53:50.5400,0.27,-7.63,2.29,7.97
2022-11-20 11:53:50.5420,0.4,-8.04,2.11,8.32
2022-11-20 11:53:50.5570,0.35,-8.05,1.82,8.26
2022-11-20 11:53:50.5590,-0.07,-8.11,1.32,8.21
2022-11-20 11:53:50.5730,-0.67,-8.49,1.05,8.58
2022-11-20 11:53:50.5750,-1.56,-8.94,0.53,9.09
2022-11-20 11:53:50.5890,-2.73,-9.24,-0.23,9.63
2022-11-20 11:53:50.5910,-3.76,-9.41,-0.82,10.16
2022-11-20 11:53:50.6350,-4.43,-9.3,-1.41,10.39
2022-11-20 11:53:50.6370,-4.69,-8.91,-1.9,10.24
2022-11-20 11:53:50.6400,-4.4,-8.5,-2.37,9.86
2022-11-20 11:53:50.6430,-3.6,-8.32,-2.79,9.48
2022-11-20 11:53:50.6560,-2.84,-8.53,-2.99,9.47
2022-11-20 11:53:50.6590,-2.46,-9.11,-3.11,9.93
2022-11-20 11:53:50.6730,-2.23,-9.96,-3.28,10.72
2022-11-20 11:53:50.6750,-2.98,-10.27,-7.59,13.11
2022-11-20 11:53:50.6890,-5.53,-3.22,-23.35,24.21
2022-11-20 11:53:50.6910,-0.2,25.25,-5.94,25.94
2022-11-20 11:53:50.7350,8.71,27.59,8.73,30.22
2022-11-20 11:53:50.7370,3.73,4.58,-1.24,6.03
2022-11-20 11:53:50.7400,-2.8,0.01,-1.3,3.08
2022-11-20 11:53:50.7430,-3.71,-1.92,-3.12,5.21
2022-11-20 11:53:50.7560,-2.65,-5.36,-4.82,7.68
2022-11-20 11:53:50.7590,-1.91,-8.37,-5.16,10.01
2022-11-20 11:53:50.7730,-1.09,-8.14,-3.27,8.83
2022-11-20 11:53:50.7750,0.28,-2.24,-1.21,2.56
2022-11-20 11:53:50.7890,1.62,2.62,-1.17,3.29
2022-11-20 11:53:50.7910,2.56,5.31,-2.58,6.43
2022-11-20 11:53:50.8350,2.77,5.05,-2.83,6.41
2022-11-20 11:53:50.8370,2.36,1.59,-2.14,3.56
2022-11-20 11:53:50.8400,1.61,-0.66,-1.27,2.15
2022-11-20 11:53:50.8420,0.37,-1.42,-1.21,1.9
2022-11-20 11:53:50.8570,-0.97,-1.36,-1.58,2.29
2022-11-20 11:53:50.8590,-1.79,-0.28,-2.11,2.78
2022-11-20 11:53:50.8730,-1.79,1.01,-2.67,3.36
2022-11-20 11:53:50.8750,-1.24,1.37,-2.22,2.88
2022-11-20 11:53:50.8890,-0.31,0.75,-0.97,1.26
2022-11-20 11:53:50.8910,0.48,-0.15,0.02,0.5
2022-11-20 11:53:50.9350,0.65,-0.5,0.44,0.93
2022-11-20 11:53:50.9370,0.53,-0.21,-0.14,0.58
2022-11-20 11:53:50.9400,0.4,-0.01,-0.34,0.52
2022-11-20 11:53:50.9430,0.39,0.02,-0.11,0.4
2022-11-20 11:53:50.9570,0.51,-0.11,-0.56,0.76
2022-11-20 11:53:50.9590,0.57,-0.37,-0.8,1.04
2022-11-20 11:53:50.9730,0.74,-0.4,-0.64,1.05
2022-11-20 11:53:50.9740,0.82,-0.21,-0.3,0.89
2022-11-20 11:53:50.9890,0.74,-0.1,0.39,0.84
2022-11-20 11:53:50.9910,0.48,0.1,1.04,1.14
2022-11-20 11:53:51.0350,-0.02,0.42,1.07,1.14
2022-11-20 11:53:51.0370,-0.53,0.35,0.57,0.85
2022-11-20 11:53:51.0400,-0.75,-0.21,0.5,0.92
2022-11-20 11:53:51.0420,-0.68,-0.61,0.64,1.11
2022-11-20 11:53:51.0570,-0.56,-0.88,0.71,1.26
2022-11-20 11:53:51.0590,-0.78,-0.65,0.91,1.36
2022-11-20 11:53:51.0730,-0.92,0.05,1.28,1.57
2022-11-20 11:53:51.0750,-0.7,0.47,1.67,1.87
2022-11-20 11:53:51.0890,-0.33,0.34,1.75,1.81
2022-11-20 11:53:51.0910,-0.06,0.13,1.66,1.66
2022-11-20 11:53:51.1350,0.07,-0.07,1.66,1.66
2022-11-20 11:53:51.1360,0.22,-0.38,1.71,1.76
2022-11-20 11:53:51.1400,0.28,-0.44,1.99,2.05
2022-11-20 11:53:51.1420,-0.09,0.05,2.39,2.39
2022-11-20 11:53:51.1560,-0.46,0.87,3.05,3.2
2022-11-20 11:53:51.1590,-0.66,1.38,3.06,3.42
2022-11-20 11:53:51.1730,-0.26,1.55,2.78,3.19
2022-11-20 11:53:51.1750,0.39,1.46,2.76,3.14
2022-11-20 11:53:51.1890,0.55,1.44,2.51,2.94
2022-11-20 11:53:51.1910,0.53,1.87,2.23,2.95
2022-11-20 11:53:51.2350,0.5,2.3,1.76,2.93
2022-11-20 11:53:51.2370,0.31,2.67,1.11,2.9
2022-11-20 11:53:51.2400,0.39,3.24,0.47,3.29
2022-11-20 11:53:51.2430,1.01,3.41,-0.23,3.56
2022-11-20 11:53:51.2560,1.38,3.02,-0.91,3.44
2022-11-20 11:53:51.2590,1.53,2.74,-1.03,3.3
2022-11-20 11:53:51.2730,1.42,2.97,-1.06,3.45
2022-11-20 11:53:51.2750,1.25,3.6,-0.82,3.89
2022-11-20 11:53:51.2890,1.53,4.05,0.26,4.33
2022-11-20 11:53:51.2910,1.36,3.79,1.45,4.27
2022-11-20 11:53:51.3360,0.37,4.31,1.9,4.72
2022-11-20 11:53:51.3390,0.39,5.2,2.94,5.98
2022-11-20 11:53:51.3420,0.76,4.82,3.76,6.16
2022-11-20 11:53:51.3570,1.09,3.9,3.95,5.65
2022-11-20 11:53:51.3590,1.66,2.66,4.44,5.43
2022-11-20 11:53:51.3730,0.73,1.69,4.67,5.01
2022-11-20 11:53:51.3750,-0.83,1.77,4.96,5.33
2022-11-20 11:53:51.3890,-1.37,1.91,5.55,6.02
2022-11-20 11:53:51.3910,-1.56,1.42,5.61,5.99
2022-11-20 11:53:51.4060,-1.62,0.97,5.35,5.67
2022-11-20 11:53:51.4500,-1.42,1.17,4.63,4.98
2022-11-20 11:53:51.4520,-0.9,2.39,3.87,4.63
2022-11-20 11:53:51.4570,-0.88,2.2,3.06,3.87
2022-11-20 11:53:51.4590,-0.71,0.52,1.67,1.88
2022-11-20 11:53:51.4730,0.53,0.32,-0.3,0.68
2022-11-20 11:53:51.4750,1.66,0.47,-2.53,3.06
2022-11-20 11:53:51.4890,2.16,0.57,-3.84,4.44
2022-11-20 11:53:51.4910,2.99,1.75,-3.85,5.17
2022-11-20 11:53:51.5060,2.39,2.17,-2.02,3.8
2022-11-20 11:53:51.5080,0.37,1.95,-1.21,2.32
2022-11-20 11:53:51.5520,-1.24,1.5,-0.85,2.12
2022-11-20 11:53:51.5540,-2.11,0.95,-0.53,2.37
2022-11-20 11:53:51.5570,-2.56,0.27,-0.61,2.64
2022-11-20 11:53:51.5590,-2.87,-0.35,-0.39,2.91
2022-11-20 11:53:51.5730,-3.05,-0.57,0.61,3.16
2022-11-20 11:53:51.5750,-2.84,0.16,2.1,3.53
2022-11-20 11:53:51.5890,-2.4,1.12,2.57,3.69
2022-11-20 11:53:51.5910,-2.49,1.35,2.34,3.67
2022-11-20 11:53:51.6060,-3.02,1.04,2.63,4.13
2022-11-20 11:53:51.6080,-3.14,0.89,3.5,4.78
2022-11-20 11:53:51.6520,-2.73,1.17,4.58,5.45
2022-11-20 11:53:51.6540,-2.58,1.44,5.36,6.12
2022-11-20 11:53:51.6570,-2.81,1.4,5.43,6.27
2022-11-20 11:53:51.6600,-2.88,1.12,5.12,5.98
2022-11-20 11:53:51.6730,-2.66,0.68,4.88,5.59
2022-11-20 11:53:51.6750,-2.32,0.25,4.99,5.5
2022-11-20 11:53:51.6890,-2.2,0.02,5.16,5.6
2022-11-20 11:53:51.6910,-2.57,-0.21,4.92,5.55
2022-11-20 11:53:51.7060,-3.24,-0.64,4.32,5.43
2022-11-20 11:53:51.7080,-3.9,-1.14,3.57,5.4
2022-11-20 11:53:51.7510,-4.32,-1.65,2.61,5.31
2022-11-20 11:53:51.7530,-4.47,-2.16,1.73,5.25
2022-11-20 11:53:51.7570,-4.52,-2.55,0.84,5.25
2022-11-20 11:53:51.7590,-4.57,-2.77,0.19,5.34
2022-11-20 11:53:51.7730,-4.52,-2.91,-0.61,5.41
2022-11-20 11:53:51.7750,-4.62,-3.07,-1.06,5.64
2022-11-20 11:53:51.7890,-4.78,-3.16,-1.24,5.86
2022-11-20 11:53:51.7910,-4.87,-3.2,-1.61,6.04
2022-11-20 11:53:51.8060,-5.11,-3.14,-2.09,6.35
2022-11-20 11:53:51.8080,-5.36,-2.73,-2.85,6.65
2022-11-20 11:53:51.8540,-5.81,-1.91,-3.4,6.99
2022-11-20 11:53:51.8570,-6.54,-0.78,-3.78,7.59
2022-11-20 11:53:51.8590,-7.6,0.35,-4.08,8.63
2022-11-20 11:53:51.8730,-8.83,0.75,-4.6,9.98
2022-11-20 11:53:51.8750,-9.86,-0.25,-5.01,11.06
2022-11-20 11:53:51.8890,-9.72,-1.69,-5.83,11.45
2022-11-20 11:53:51.8910,-8.69,-1.95,-7.31,11.52
2022-11-20 11:53:51.9060,-7.06,-0.81,-8.95,11.42
2022-11-20 11:53:51.9080,-5.19,0.63,-10.13,11.39
2022-11-20 11:53:51.9230,-3.23,1.4,-9.38,10.01
2022-11-20 11:53:51.9660,-1.12,1.04,-7.1,7.26
2022-11-20 11:53:51.9680,0.82,-0.41,-5.42,5.49
2022-11-20 11:53:51.9740,2.38,-2.6,-4.94,6.06
2022-11-20 11:53:51.9760,3.81,-4.3,-4.38,7.22
2022-11-20 11:53:51.9900,4.89,-4.08,-3.42,7.22
2022-11-20 11:53:51.9920,3.56,-2.69,-2.84,5.28
2022-11-20 11:53:52.0060,0.83,-2.32,-5.28,5.82
2022-11-20 11:53:52.0080,1.93,-0.98,-8.44,8.71
2022-11-20 11:53:52.0220,6.33,4.21,-6.14,9.77
2022-11-20 11:53:52.0240,7.21,5.53,-1.59,9.22
2022-11-20 11:53:52.0680,3.49,2.18,1.16,4.27
2022-11-20 11:53:52.0700,-1.01,-1.11,-1.57,2.17
2022-11-20 11:53:52.0740,-2.83,-2.94,-2.05,4.56
2022-11-20 11:53:52.0760,-3.9,-1.7,-1.53,4.52
2022-11-20 11:53:52.0900,-5.24,1.29,-3.72,6.55
2022-11-20 11:53:52.0920,-4.66,2.61,-3.88,6.6
2022-11-20 11:53:52.1060,-1.86,1.7,-2.1,3.28
2022-11-20 11:53:52.1080,0.7,0.19,-1.01,1.24
2022-11-20 11:53:52.1220,2.34,-0.85,-0.12,2.49
2022-11-20 11:53:52.1240,2.29,-0.98,0.78,2.61
2022-11-20 11:53:52.1680,0.32,-0.27,1.47,1.52
2022-11-20 11:53:52.1700,-2.31,0.31,1.5,2.77
2022-11-20 11:53:52.1730,-3.79,0.57,0.87,3.93
2022-11-20 11:53:52.1760,-3.55,0.81,0.27,3.65
2022-11-20 11:53:52.1900,-2.15,0.85,0.05,2.31
2022-11-20 11:53:52.1920,-0.41,0.55,0.12,0.69
2022-11-20 11:53:52.2060,0.76,0.22,0.09,0.79
2022-11-20 11:53:52.2080,1.43,-0.02,0.19,1.44
2022-11-20 11:53:52.2230,1.63,-0.35,0.34,1.7
2022-11-20 11:53:52.2240,1.04,-0.48,0.33,1.19
2022-11-20 11:53:52.2680,0.05,-0.09,0.28,0.29
2022-11-20 11:53:52.2700,-0.67,0.45,0.42,0.9
2022-11-20 11:53:52.2730,-1.06,0.7,0.66,1.43
2022-11-20 11:53:52.2760,-0.94,0.54,1.07,1.52
2022-11-20 11:53:52.2900,-0.54,0.13,1.23,1.34
2022-11-20 11:53:52.2920,-0.03,-0.07,0.92,0.92
2022-11-20 11:53:52.3060,0.46,-0.37,1.04,1.19
2022-11-20 11:53:52.3080,0.36,-0.49,1.12,1.27
2022-11-20 11:53:52.3230,0.05,-0.18,1.21,1.22
2022-11-20 11:53:52.3250,0.04,-0.01,1.52,1.52
2022-11-20 11:53:52.3680,-0.14,-0.05,1.92,1.92
2022-11-20 11:53:52.3700,-0.84,0.14,1.94,2.11
2022-11-20 11:53:52.3730,-1.37,0.61,1.21,1.92
2022-11-20 11:53:52.3760,-1.39,0.75,0.68,1.71
2022-11-20 11:53:52.3900,-1.33,0.42,0.5,1.48
2022-11-20 11:53:52.3920,-1.28,0.32,0.51,1.41
2022-11-20 11:53:52.4060,-1.13,0.37,0.5,1.28
2022-11-20 11:53:52.4080,-0.89,0.22,0.63,1.11
2022-11-20 11:53:52.4230,-0.58,0.09,0.85,1.03
2022-11-20 11:53:52.4240,-0.21,0.05,1.07,1.09
2022-11-20 11:53:52.4680,-0.12,0.02,1.28,1.28
2022-11-20 11:53:52.4700,-0.39,-0.04,1.58,1.62
2022-11-20 11:53:52.4740,-0.64,-0.08,2.06,2.15
2022-11-20 11:53:52.4760,-0.92,0.09,2.82,2.96
2022-11-20 11:53:52.4900,-1.25,0.81,3.73,4.01
2022-11-20 11:53:52.4920,-1.25,1.73,4.75,5.2
2022-11-20 11:53:52.5060,-0.72,2.26,5.78,6.24
2022-11-20 11:53:52.5080,0.08,2.46,6.12,6.59
2022-11-20 11:53:52.5230,0.7,3.35,5.85,6.77
2022-11-20 11:53:52.5240,1.23,4.42,5.74,7.34
2022-11-20 11:53:52.5690,0.95,4.81,5.27,7.19
2022-11-20 11:53:52.5710,-0.2,5.3,4.8,7.15
2022-11-20 11:53:52.5730,-1.34,6.0,4.27,7.48
2022-11-20 11:53:52.5760,-2.5,6.96,3.75,8.29
2022-11-20 11:53:52.5900,-3.71,7.79,3.37,9.26
2022-11-20 11:53:52.5920,-4.85,7.85,2.89,9.66
2022-11-20 11:53:52.6060,-5.48,6.97,2.21,9.13
2022-11-20 11:53:52.6080,-5.88,5.76,1.28,8.33
2022-11-20 11:53:52.6230,-6.12,4.97,-0.16,7.88
2022-11-20 11:53:52.6250,-6.04,4.38,-1.24,7.56
2022-11-20 11:53:52.6690,-6.02,3.04,-2.62,7.23
2022-11-20 11:53:52.6720,-5.76,1.48,-3.82,7.06
2022-11-20 11:53:52.6750,-5.2,0.77,-3.47,6.29
2022-11-20 11:53:52.6900,-4.33,1.0,-2.58,5.13
2022-11-20 11:53:52.6920,-3.82,2.21,-0.61,4.45
2022-11-20 11:53:52.7060,-3.94,2.86,-0.74,4.92
2022-11-20 11:53:52.7090,-4.29,1.94,-1.03,4.81
2022-11-20 11:53:52.7230,-4.15,0.63,-0.96,4.3
2022-11-20 11:53:52.7310,-3.39,-0.18,-0.73,3.47
2022-11-20 11:53:52.7320,-2.83,-0.84,-0.53,2.99
2022-11-20 11:53:52.7750,-2.65,-1.68,-0.17,3.14
2022-11-20 11:53:52.7770,-2.53,-2.34,0.0,3.44
2022-11-20 11:53:52.7900,-2.51,-2.92,-0.22,3.85
2022-11-20 11:53:52.7920,-2.52,-3.48,-0.52,4.32
2022-11-20 11:53:52.8060,-2.68,-4.0,-0.59,4.85
2022-11-20 11:53:52.8090,-2.89,-4.31,-0.46,5.2
2022-11-20 11:53:52.8230,-3.0,-4.36,-0.02,5.29
2022-11-20 11:53:52.8250,-2.87,-4.4,-0.35,5.26
2022-11-20 11:53:52.8390,-2.55,-4.92,-2.12,5.93
2022-11-20 11:53:52.8410,-2.13,-5.76,-3.23,6.93
2022-11-20 11:53:52.8850,-1.76,-6.46,-3.3,7.46
2022-11-20 11:53:52.8870,-1.41,-6.83,-3.55,7.82
2022-11-20 11:53:52.8900,-1.27,-6.96,-3.95,8.1
2022-11-20 11:53:52.8920,-1.4,-7.05,-4.08,8.26
2022-11-20 11:53:52.9060,-1.64,-7.61,-3.99,8.74
2022-11-20 11:53:52.9090,-1.71,-8.41,-3.49,9.26
2022-11-20 11:53:52.9230,-2.0,-8.63,-3.37,9.47
2022-11-20 11:53:52.9250,-2.14,-7.79,-3.87,8.95
2022-11-20 11:53:52.9390,-1.84,-6.53,-4.72,8.26
2022-11-20 11:53:52.9410,-1.23,-5.67,-5.17,7.77
2022-11-20 11:53:52.9850,-0.72,-5.44,-4.85,7.32
2022-11-20 11:53:52.9860,-0.89,-5.53,-4.55,7.21
2022-11-20 11:53:52.9910,-1.44,-5.47,-3.61,6.71
2022-11-20 11:53:52.9930,-2.04,-4.74,-2.79,5.86
2022-11-20 11:53:53.0060,-2.62,-3.13,-4.21,5.86
2022-11-20 11:53:53.0080,-2.38,-2.69,-4.62,5.85
2022-11-20 11:53:53.0230,-1.86,-3.14,-4.01,5.42
2022-11-20 11:53:53.0250,-1.36,-3.1,-4.22,5.4
2022-11-20 11:53:53.0390,-0.82,-2.32,-4.63,5.24
2022-11-20 11:53:53.0410,-0.28,-1.14,-4.41,4.56
2022-11-20 11:53:53.0850,0.19,-0.65,-2.97,3.04
2022-11-20 11:53:53.0870,0.4,-0.48,-1.9,2.0
2022-11-20 11:53:53.0900,0.42,-0.24,-1.11,1.21
2022-11-20 11:53:53.0930,0.15,0.03,-1.23,1.23
2022-11-20 11:53:53.1060,-0.02,0.17,-1.34,1.35
2022-11-20 11:53:53.1090,0.07,0.17,-0.64,0.66
2022-11-20 11:53:53.1230,0.35,0.8,-0.26,0.91
2022-11-20 11:53:53.1250,0.0,1.46,1.76,2.28
2022-11-20 11:53:53.1390,-2.5,0.93,-0.76,2.77
2022-11-20 11:53:53.1410,-2.98,7.73,0.26,8.28
2022-11-20 11:53:53.1850,3.64,15.5,9.26,18.41
2022-11-20 11:53:53.1870,3.29,15.32,9.54,18.34
2022-11-20 11:53:53.1900,-2.28,7.27,6.76,10.18
2022-11-20 11:53:53.1930,-1.47,2.27,3.2,4.18
2022-11-20 11:53:53.2060,0.57,1.88,3.93,4.39
2022-11-20 11:53:53.2090,3.18,9.24,5.82,11.37
2022-11-20 11:53:53.2230,9.07,16.07,1.39,18.5
2022-11-20 11:53:53.2250,7.36,6.51,-3.48,10.42
2022-11-20 11:53:53.2390,1.95,-1.52,-5.28,5.83
2022-11-20 11:53:53.2410,-0.94,-3.9,-6.5,7.63
2022-11-20 11:53:53.2850,-3.28,-5.56,-6.81,9.38
2022-11-20 11:53:53.2870,-3.81,-4.55,-6.93,9.12
2022-11-20 11:53:53.2900,-3.18,-1.86,-6.82,7.75
2022-11-20 11:53:53.2930,-3.63,0.36,-5.1,6.27
2022-11-20 11:53:53.3060,-3.93,2.19,-2.34,5.07
2022-11-20 11:53:53.3090,-2.87,3.09,-0.58,4.25
2022-11-20 11:53:53.3230,-1.76,2.89,-0.08,3.38
2022-11-20 11:53:53.3250,-1.33,1.98,-0.5,2.43
2022-11-20 11:53:53.3270,-1.25,0.64,-0.79,1.61
2022-11-20 11:53:53.3280,-0.86,-0.13,-0.38,0.94
2022-11-20 11:53:53.3720,-0.05,-0.43,0.07,0.43
2022-11-20 11:53:53.3740,0.76,-0.59,0.51,1.08
2022-11-20 11:53:53.3900,1.29,-0.84,1.07,1.87
2022-11-20 11:53:53.3920,1.61,-1.0,1.85,2.64
2022-11-20 11:53:53.4070,1.58,-0.67,2.41,2.95
2022-11-20 11:53:53.4090,0.91,-0.18,2.41,2.58
2022-11-20 11:53:53.4230,0.36,-0.16,2.74,2.76
2022-11-20 11:53:53.4250,0.46,-0.65,3.47,3.56
2022-11-20 11:53:53.4390,0.87,-1.0,4.24,4.44
2022-11-20 11:53:53.4410,1.08,-0.7,4.7,4.87
2022-11-20 11:53:53.4850,0.85,-0.22,3.31,3.42
2022-11-20 11:53:53.4870,0.79,-0.69,1.03,1.47
2022-11-20 11:53:53.4900,1.2,-1.72,0.43,2.14
2022-11-20 11:53:53.4930,1.96,-2.53,1.28,3.44
2022-11-20 11:53:53.5070,2.18,-2.47,2.16,3.93
2022-11-20 11:53:53.5090,1.38,-1.7,2.41,3.25
2022-11-20 11:53:53.5230,0.59,-0.56,3.8,3.88
2022-11-20 11:53:53.5250,0.71,0.76,4.22,4.34
2022-11-20 11:53:53.5390,1.17,0.84,1.81,2.31
2022-11-20 11:53:53.5410,0.9,-0.67,-1.78,2.1
2022-11-20 11:53:53.5840,0.84,-2.75,-4.18,5.07
2022-11-20 11:53:53.5860,1.34,-3.41,-2.31,4.33
2022-11-20 11:53:53.5900,1.57,-1.7,-0.04,2.31
2022-11-20 11:53:53.5930,0.64,0.37,1.59,1.75
2022-11-20 11:53:53.6060,-1.01,2.56,3.99,4.84
2022-11-20 11:53:53.6090,-2.24,4.02,3.49,5.77
2022-11-20 11:53:53.6230,-2.07,3.33,1.48,4.19
2022-11-20 11:53:53.6250,-0.44,0.05,-1.32,1.39
2022-11-20 11:53:53.6390,0.91,-3.32,-2.33,4.15
2022-11-20 11:53:53.6410,1.38,-4.92,-0.99,5.2
2022-11-20 11:53:53.6840,0.77,-4.1,0.44,4.19
2022-11-20 11:53:53.6860,-0.87,-1.36,1.1,1.95
2022-11-20 11:53:53.6900,-1.6,1.28,0.46,2.1
2022-11-20 11:53:53.6930,-1.6,4.61,0.06,4.88
2022-11-20 11:53:53.7060,-0.65,9.84,0.18,9.86
2022-11-20 11:53:53.7090,0.54,13.39,0.14,13.4
2022-11-20 11:53:53.7230,0.19,9.95,-1.44,10.05
2022-11-20 11:53:53.7250,-0.61,4.22,-3.59,5.57
2022-11-20 11:53:53.7390,-0.79,4.12,-3.8,5.66
2022-11-20 11:53:53.7410,-0.52,7.65,-3.26,8.33
2022-11-20 11:53:53.7840,-0.18,10.51,-3.62,11.11
2022-11-20 11:53:53.7870,-0.48,10.98,-3.54,11.54
2022-11-20 11:53:53.7900,-0.92,8.59,-2.11,8.89
2022-11-20 11:53:53.7930,-1.46,4.89,-1.21,5.24
2022-11-20 11:53:53.8060,-2.08,1.99,-0.84,2.99
2022-11-20 11:53:53.8090,-2.01,-0.12,-1.07,2.28
2022-11-20 11:53:53.8230,-1.58,-1.86,-0.49,2.48
2022-11-20 11:53:53.8250,-1.03,-3.45,1.69,3.97
2022-11-20 11:53:53.8390,-0.5,-4.07,4.76,6.28
2022-11-20 11:53:53.8410,0.45,-2.84,4.8,5.59
2022-11-20 11:53:53.8840,1.51,-1.55,3.68,4.26
2022-11-20 11:53:53.8870,3.64,-0.56,2.63,4.52
2022-11-20 11:53:53.8900,5.72,-0.29,2.02,6.07
2022-11-20 11:53:53.8930,6.29,-0.85,2.07,6.67
2022-11-20 11:53:53.9060,5.11,-1.62,2.17,5.78
2022-11-20 11:53:53.9090,3.02,-2.39,1.74,4.22
2022-11-20 11:53:53.9230,1.18,-2.95,1.25,3.41
2022-11-20 11:53:53.9250,-0.69,-3.18,1.04,3.41
2022-11-20 11:53:53.9390,-2.04,-3.8,-0.11,4.31
2022-11-20 11:53:53.9410,-2.45,-5.25,-1.48,5.97
2022-11-20 11:53:53.9840,-2.46,-6.59,-2.87,7.59
2022-11-20 11:53:53.9860,-2.29,-8.34,-3.79,9.44
2022-11-20 11:53:53.9900,-2.09,-9.74,-3.29,10.49
2022-11-20 11:53:53.9930,-1.76,-9.05,-2.67,9.59
2022-11-20 11:53:54.0060,-1.49,-6.86,-2.94,7.61
2022-11-20 11:53:54.0090,-1.31,-5.19,-4.03,6.7
2022-11-20 11:53:54.0230,-1.09,-4.64,-5.03,6.92
2022-11-20 11:53:54.0250,-1.06,-4.91,-4.94,7.04
2022-11-20 11:53:54.0390,-1.26,-5.05,-5.61,7.65
2022-11-20 11:53:54.0410,-1.15,-4.48,-6.76,8.19
2022-11-20 11:53:54.0840,-0.72,-3.54,-6.41,7.35
2022-11-20 11:53:54.0860,-1.0,-2.58,-4.67,5.42
2022-11-20 11:53:54.0900,-1.36,-0.64,-3.71,4.0
2022-11-20 11:53:54.0930,-0.71,0.88,-4.47,4.61
2022-11-20 11:53:54.1070,-0.28,0.15,-3.63,3.64
2022-11-20 11:53:54.1090,0.36,-0.73,-3.89,3.97
2022-11-20 11:53:54.1230,1.08,-1.4,-3.71,4.1
2022-11-20 11:53:54.1250,1.24,-1.46,-2.88,3.45
2022-11-20 11:53:54.1400,0.56,-0.58,-2.56,2.68
2022-11-20 11:53:54.1410,-0.42,0.42,-2.39,2.46
2022-11-20 11:53:54.1840,-0.92,1.12,-1.87,2.36
2022-11-20 11:53:54.1860,-1.22,1.08,-0.78,1.8
2022-11-20 11:53:54.1900,-1.54,0.93,-0.37,1.83
2022-11-20 11:53:54.1930,-1.52,0.92,-0.69,1.9
2022-11-20 11:53:54.2060,-1.17,0.99,-0.03,1.53
2022-11-20 11:53:54.2090,-0.6,1.04,-0.29,1.23
2022-11-20 11:53:54.2230,-1.59,1.23,0.58,2.09
2022-11-20 11:53:54.2250,-2.1,1.08,2.7,3.58
2022-11-20 11:53:54.2390,-5.18,2.12,-2.58,6.16
2022-11-20 11:53:54.2410,-3.93,8.18,2.31,9.36
2022-11-20 11:53:54.2840,4.61,15.56,10.2,19.16
2022-11-20 11:53:54.2860,0.4,14.25,8.34,16.51
2022-11-20 11:53:54.2900,-2.7,4.72,5.16,7.49
2022-11-20 11:53:54.2930,1.21,0.83,2.81,3.17
2022-11-20 11:53:54.3060,6.11,0.11,1.63,6.32
2022-11-20 11:53:54.3090,5.95,0.8,-0.31,6.01
2022-11-20 11:53:54.3230,3.19,2.45,1.49,4.28
2022-11-20 11:53:54.3250,-0.2,4.28,1.45,4.52
2022-11-20 11:53:54.3400,-2.18,6.18,-2.32,6.95
2022-11-20 11:53:54.3410,-2.51,5.72,-6.13,8.75
2022-11-20 11:53:54.3850,-1.66,2.71,-8.24,8.83
2022-11-20 11:53:54.3870,0.39,-0.68,-7.84,7.87
2022-11-20 11:53:54.3900,1.86,-2.26,-5.54,6.26
2022-11-20 11:53:54.3930,0.9,-1.95,-3.46,4.07
2022-11-20 11:53:54.4060,-1.04,-1.09,-2.29,2.74
2022-11-20 11:53:54.4090,-1.54,-0.17,-1.14,1.92
2022-11-20 11:53:54.4230,-0.84,0.71,-0.6,1.25
2022-11-20 11:53:54.4250,-0.13,1.47,-0.37,1.52
2022-11-20 11:53:54.4390,-0.03,1.76,-0.36,1.79
2022-11-20 11:53:54.4410,-0.38,1.19,-0.02,1.24
2022-11-20 11:53:54.4860,-0.35,0.28,0.46,0.64
2022-11-20 11:53:54.4890,-0.05,-0.43,0.91,1.0
2022-11-20 11:53:54.4920,0.19,-0.69,1.33,1.51
2022-11-20 11:53:54.5060,0.33,-0.71,2.0,2.14
2022-11-20 11:53:54.5090,0.45,-0.69,2.74,2.86
2022-11-20 11:53:54.5230,0.56,-0.65,3.23,3.34
2022-11-20 11:53:54.5250,0.62,-0.36,3.84,3.9
2022-11-20 11:53:54.5390,0.38,0.09,3.89,3.9
2022-11-20 11:53:54.5410,0.13,0.08,3.83,3.83
2022-11-20 11:53:54.5560,0.4,-0.39,4.29,4.32
2022-11-20 11:53:54.5990,0.84,-0.87,4.69,4.84
2022-11-20 11:53:54.6010,0.81,-1.13,3.83,4.07
2022-11-20 11:53:54.6070,0.44,-1.35,2.42,2.8
2022-11-20 11:53:54.6090,0.41,-1.66,1.22,2.1
2022-11-20 11:53:54.6230,0.74,-2.2,0.62,2.4
2022-11-20 11:53:54.6260,1.19,-2.49,1.24,3.02
2022-11-20 11:53:54.6390,1.35,-2.32,2.16,3.44
2022-11-20 11:53:54.6410,1.03,-1.48,3.53,3.96
2022-11-20 11:53:54.6560,0.52,-0.03,5.08,5.1
2022-11-20 11:53:54.6580,0.21,0.92,4.15,4.25
2022-11-20 11:53:54.7010,-0.38,0.45,2.04,2.12
2022-11-20 11:53:54.7030,-1.19,-1.01,-0.17,1.57
2022-11-20 11:53:54.7070,-1.93,-2.6,-1.75,3.68
2022-11-20 11:53:54.7090,-2.78,-3.61,-1.53,4.8
2022-11-20 11:53:54.7230,-3.3,-2.49,1.01,4.25
2022-11-20 11:53:54.7260,-2.72,0.61,2.71,3.88
2022-11-20 11:53:54.7400,-1.38,2.04,0.95,2.63
2022-11-20 11:53:54.7410,0.19,0.76,-0.78,1.1
2022-11-20 11:53:54.7560,1.98,-1.31,-0.83,2.51
2022-11-20 11:53:54.7580,3.69,-1.71,-0.77,4.13
2022-11-20 11:53:54.8010,3.17,-2.34,-1.66,4.27
2022-11-20 11:53:54.8030,1.18,-3.31,-2.32,4.21
2022-11-20 11:53:54.8070,0.08,-1.83,-1.01,2.09
2022-11-20 11:53:54.8100,0.25,2.77,1.33,3.08
2022-11-20 11:53:54.8230,0.76,8.2,1.86,8.44
2022-11-20 11:53:54.8260,0.65,13.15,-0.16,13.16
2022-11-20 11:53:54.8400,0.76,17.24,-0.56,17.26
2022-11-20 11:53:54.8410,2.07,17.86,-0.76,17.99
2022-11-20 11:53:54.8560,1.96,12.58,-2.36,12.94
2022-11-20 11:53:54.8580,0.92,8.38,-3.62,9.17
2022-11-20 11:53:54.9010,0.57,7.51,-3.48,8.29
2022-11-20 11:53:54.9030,0.26,6.8,-2.64,7.29
2022-11-20 11:53:54.9070,-0.36,5.45,-2.24,5.9
2022-11-20 11:53:54.9090,-1.34,3.24,-2.47,4.28
2022-11-20 11:53:54.9230,-2.54,0.46,-1.71,3.09
2022-11-20 11:53:54.9260,-4.02,-2.28,-0.37,4.63
2022-11-20 11:53:54.9400,-5.21,-5.65,0.76,7.72
2022-11-20 11:53:54.9420,-5.28,-8.61,3.11,10.56
2022-11-20 11:53:54.9560,-2.89,-6.99,5.42,9.3
2022-11-20 11:53:54.9580,-0.24,-3.37,4.01,5.24
2022-11-20 11:53:55.0010,2.07,-1.98,2.3,3.67
2022-11-20 11:53:55.0030,4.79,-1.19,2.72,5.63
2022-11-20 11:53:55.0070,6.44,-0.96,2.69,7.04
2022-11-20 11:53:55.0090,6.66,-1.33,1.19,6.89
2022-11-20 11:53:55.0230,5.87,-2.09,0.34,6.24
2022-11-20 11:53:55.0260,3.53,-3.02,0.05,4.64
2022-11-20 11:53:55.0400,1.04,-3.93,-0.34,4.07
2022-11-20 11:53:55.0420,-1.07,-5.18,-1.27,5.43
2022-11-20 11:53:55.0560,-2.82,-6.65,-2.29,7.57
2022-11-20 11:53:55.0580,-3.86,-7.53,-1.79,8.64
2022-11-20 11:53:55.1010,-4.18,-7.25,-1.3,8.46
2022-11-20 11:53:55.1030,-3.96,-6.5,-2.12,7.9
2022-11-20 11:53:55.1070,-3.17,-5.98,-3.24,7.5
2022-11-20 11:53:55.1090,-1.82,-5.28,-3.64,6.66
2022-11-20 11:53:55.1230,-0.52,-4.38,-3.69,5.75
2022-11-20 11:53:55.1260,0.19,-3.89,-4.35,5.83
2022-11-20 11:53:55.1400,0.0,-4.13,-5.46,6.84
2022-11-20 11:53:55.1420,-0.35,-5.18,-5.88,7.84
2022-11-20 11:53:55.1570,-0.69,-5.47,-5.17,7.55
2022-11-20 11:53:55.1590,-1.59,-3.65,-4.75,6.19
2022-11-20 11:53:55.2010,-2.44,-1.89,-4.63,5.56
2022-11-20 11:53:55.2030,-3.01,-1.06,-4.59,5.59
2022-11-20 11:53:55.2070,-3.07,-0.64,-4.5,5.48
2022-11-20 11:53:55.2090,-2.4,-0.37,-4.03,4.7
2022-11-20 11:53:55.2230,-1.21,-0.15,-3.38,3.59
2022-11-20 11:53:55.2260,-0.25,0.51,-3.81,3.85
2022-11-20 11:53:55.2400,0.41,0.68,-4.0,4.07
2022-11-20 11:53:55.2410,0.78,0.52,-2.76,2.91
2022-11-20 11:53:55.2560,0.85,0.43,-0.96,1.35
2022-11-20 11:53:55.2580,-0.23,0.64,-0.02,0.68
2022-11-20 11:53:55.3010,-1.26,0.71,0.68,1.59
2022-11-20 11:53:55.3030,-1.78,0.53,0.97,2.09
2022-11-20 11:53:55.3070,-1.88,0.23,0.89,2.09
2022-11-20 11:53:55.3090,-1.47,-0.06,0.78,1.66
2022-11-20 11:53:55.3230,-0.64,0.05,0.22,0.67
2022-11-20 11:53:55.3260,0.59,0.19,-0.12,0.63
2022-11-20 11:53:55.3390,1.81,0.05,-0.26,1.82
2022-11-20 11:53:55.3410,1.82,-0.27,-0.12,1.84
2022-11-20 11:53:55.3560,1.55,0.92,1.43,2.3
2022-11-20 11:53:55.3580,0.47,0.89,-0.2,1.02
2022-11-20 11:53:55.4010,-5.03,2.2,1.47,5.68
2022-11-20 11:53:55.4030,-1.59,10.35,8.61,13.55
2022-11-20 11:53:55.4070,-2.73,12.36,6.65,14.29
2022-11-20 11:53:55.4100,-7.52,6.69,4.74,11.12
2022-11-20 11:53:55.4230,-1.42,6.2,6.86,9.35
2022-11-20 11:53:55.4260,3.55,4.53,2.71,6.36
2022-11-20 11:53:55.4400,4.52,2.24,-0.09,5.04
2022-11-20 11:53:55.4410,9.61,2.55,2.08,10.15
2022-11-20 11:53:55.4560,8.9,4.99,-0.47,10.21
2022-11-20 11:53:55.4580,3.09,5.36,-3.25,6.98
2022-11-20 11:53:55.5010,-1.52,2.42,-4.55,5.37
2022-11-20 11:53:55.5030,-5.13,0.11,-6.73,8.46
2022-11-20 11:53:55.5070,-6.0,-1.05,-8.5,10.45
2022-11-20 11:53:55.5100,-4.22,-1.33,-8.19,9.3
2022-11-20 11:53:55.5230,-1.67,-1.11,-5.14,5.51
2022-11-20 11:53:55.5260,-0.29,-1.01,-1.96,2.22
2022-11-20 11:53:55.5400,-0.65,-0.38,0.24,0.79
2022-11-20 11:53:55.5420,-1.29,1.04,0.98,1.92
2022-11-20 11:53:55.5560,-1.24,2.42,0.87,2.85
2022-11-20 11:53:55.5580,-0.82,2.79,0.08,2.9
2022-11-20 11:53:55.6010,-0.59,1.62,-0.94,1.96
2022-11-20 11:53:55.6030,-0.05,0.01,-0.97,0.97
2022-11-20 11:53:55.6070,0.87,-1.11,-0.58,1.52
2022-11-20 11:53:55.6090,1.49,-1.59,-0.12,2.18
2022-11-20 11:53:55.6230,1.45,-1.45,0.58,2.13
2022-11-20 11:53:55.6260,0.84,-0.85,1.38,1.82
2022-11-20 11:53:55.6400,0.1,-0.25,2.12,2.13
2022-11-20 11:53:55.6410,-0.42,-0.03,2.35,2.38
2022-11-20 11:53:55.6560,-0.65,-0.21,2.59,2.67
2022-11-20 11:53:55.6580,-0.61,-0.44,3.15,3.23
2022-11-20 11:53:55.7010,-0.43,-0.57,3.86,3.92
2022-11-20 11:53:55.7030,-0.4,-0.41,3.94,3.98
2022-11-20 11:53:55.7070,-0.31,-0.4,3.08,3.12
2022-11-20 11:53:55.7090,0.08,-0.62,3.18,3.24
2022-11-20 11:53:55.7230,0.8,-0.65,3.59,3.73
2022-11-20 11:53:55.7250,1.29,-0.59,2.09,2.52
2022-11-20 11:53:55.7390,1.68,-1.07,0.01,1.99
2022-11-20 11:53:55.7410,2.25,-1.98,0.28,3.01
2022-11-20 11:53:55.7560,2.73,-2.54,1.98,4.22
2022-11-20 11:53:55.7580,2.12,-2.05,3.33,4.44
2022-11-20 11:53:55.8010,0.77,-0.81,3.28,3.46
2022-11-20 11:53:55.8020,0.32,0.03,2.84,2.85
2022-11-20 11:53:55.8070,0.72,0.18,2.84,2.93
2022-11-20 11:53:55.8090,0.98,-0.46,1.22,1.63
2022-11-20 11:53:55.8230,0.59,-1.64,-1.51,2.3
2022-11-20 11:53:55.8260,0.19,-2.63,-1.88,3.23
2022-11-20 11:53:55.8400,0.05,-2.62,0.14,2.62
2022-11-20 11:53:55.8420,-0.27,-1.04,1.92,2.2
2022-11-20 11:53:55.8560,-1.02,0.33,1.33,1.7
2022-11-20 11:53:55.8580,-1.55,0.9,1.21,2.16
2022-11-20 11:53:55.9010,-0.96,1.23,0.62,1.67
2022-11-20 11:53:55.9030,-0.11,0.3,-0.96,1.01
2022-11-20 11:53:55.9070,0.24,-1.67,-2.05,2.65
2022-11-20 11:53:55.9100,0.33,-2.36,-1.37,2.74
2022-11-20 11:53:55.9230,0.35,0.16,0.4,0.55
2022-11-20 11:53:55.9260,0.47,3.54,0.42,3.59
2022-11-20 11:53:55.9400,0.42,6.74,0.44,6.76
2022-11-20 11:53:55.9420,1.18,10.76,-0.6,10.84
2022-11-20 11:53:55.9560,2.83,13.46,-1.56,13.84
2022-11-20 11:53:55.9580,3.84,12.55,-1.8,13.24
2022-11-20 11:53:56.0020,2.9,7.96,-2.97,8.97
2022-11-20 11:53:56.0040,1.67,6.11,-3.49,7.23
2022-11-20 11:53:56.0070,0.52,7.75,-3.1,8.36
2022-11-20 11:53:56.0090,-0.83,10.14,-2.56,10.49
2022-11-20 11:53:56.0230,-2.2,10.85,-1.74,11.2
2022-11-20 11:53:56.0260,-2.94,8.69,-1.07,9.23
2022-11-20 11:53:56.0400,-3.35,5.33,-0.1,6.29
2022-11-20 11:53:56.0420,-3.47,1.42,-0.95,3.86
2022-11-20 11:53:56.0560,-2.89,-2.08,-2.25,4.21
2022-11-20 11:53:56.0590,-2.0,-5.54,-2.35,6.34
2022-11-20 11:53:56.1020,-1.23,-8.73,-0.9,8.86
2022-11-20 11:53:56.1040,-0.49,-9.83,4.05,10.64
2022-11-20 11:53:56.1070,1.59,-6.5,4.75,8.2
2022-11-20 11:53:56.1100,3.3,-3.17,3.32,5.65
2022-11-20 11:53:56.1230,4.53,-1.39,2.37,5.29
2022-11-20 11:53:56.1260,4.87,-0.37,2.17,5.34
2022-11-20 11:53:56.1400,3.9,0.04,1.59,4.21
2022-11-20 11:53:56.1420,2.46,-0.33,1.34,2.82
2022-11-20 11:53:56.1560,1.12,-1.46,0.79,2.0
2022-11-20 11:53:56.1580,-0.31,-2.91,0.12,2.92
2022-11-20 11:53:56.2020,-1.83,-4.07,0.17,4.46
2022-11-20 11:53:56.2040,-2.83,-4.55,-0.03,5.35
2022-11-20 11:53:56.2070,-3.01,-4.67,-1.1,5.66
2022-11-20 11:53:56.2100,-2.22,-4.72,-2.33,5.71
2022-11-20 11:53:56.2230,-0.9,-5.28,-3.71,6.51
2022-11-20 11:53:56.2260,0.34,-6.17,-3.92,7.31
2022-11-20 11:53:56.2400,1.31,-6.51,-3.16,7.35
2022-11-20 11:53:56.2410,1.61,-5.63,-2.69,6.44
2022-11-20 11:53:56.2560,0.64,-3.72,-2.91,4.76
2022-11-20 11:53:56.2580,-0.63,-2.49,-4.02,4.77
2022-11-20 11:53:56.3020,-1.52,-2.84,-4.61,5.62
2022-11-20 11:53:56.3030,-2.25,-3.81,-4.02,5.97
2022-11-20 11:53:56.3070,-2.75,-4.18,-4.13,6.48
2022-11-20 11:53:56.3100,-2.54,-4.04,-4.41,6.49
2022-11-20 11:53:56.3230,-1.73,-3.74,-4.01,5.74
2022-11-20 11:53:56.3260,-0.39,-3.61,-3.39,4.96
2022-11-20 11:53:56.3400,0.91,-3.42,-4.43,5.67
2022-11-20 11:53:56.3420,1.77,-3.87,-5.49,6.94
2022-11-20 11:53:56.3560,2.33,-4.43,-6.08,7.87
2022-11-20 11:53:56.3580,2.28,-3.7,-6.66,7.95
2022-11-20 11:53:56.4010,1.35,-2.3,-5.74,6.32
2022-11-20 11:53:56.4030,-0.12,-0.71,-5.26,5.3
2022-11-20 11:53:56.4070,-1.53,0.46,-5.15,5.39
2022-11-20 11:53:56.4100,-2.53,0.7,-4.23,4.97
2022-11-20 11:53:56.4230,-2.98,0.53,-3.35,4.51
2022-11-20 11:53:56.4260,-2.71,0.59,-2.96,4.05
2022-11-20 11:53:56.4400,-2.0,0.6,-2.06,2.93
2022-11-20 11:53:56.4410,-1.46,0.36,-1.09,1.85
2022-11-20 11:53:56.4560,-1.0,0.23,-0.85,1.33
2022-11-20 11:53:56.4580,-0.41,0.68,-0.23,0.82
2022-11-20 11:53:56.5020,0.01,1.17,0.4,1.23
2022-11-20 11:53:56.5040,0.19,0.93,0.47,1.05
2022-11-20 11:53:56.5070,0.18,0.22,0.83,0.87
2022-11-20 11:53:56.5100,-2.41,0.55,2.24,3.33
2022-11-20 11:53:56.5230,-4.94,2.48,6.13,8.25
2022-11-20 11:53:56.5260,-10.5,2.5,3.27,11.27
2022-11-20 11:53:56.5400,-14.78,2.07,-0.3,14.92
2022-11-20 11:53:56.5420,-6.49,6.59,6.5,11.3
2022-11-20 11:53:56.5560,1.96,11.26,8.35,14.15
2022-11-20 11:53:56.5580,0.94,8.32,4.25,9.38
2022-11-20 11:53:56.6020,4.24,4.81,3.61,7.35
2022-11-20 11:53:56.6040,5.4,2.61,2.76,6.6
2022-11-20 11:53:56.6070,3.04,1.15,-0.49,3.28
2022-11-20 11:53:56.6090,0.97,0.73,-2.11,2.43
2022-11-20 11:53:56.6230,-0.23,0.61,-3.53,3.58
2022-11-20 11:53:56.6260,-2.08,1.43,-4.56,5.21
2022-11-20 11:53:56.6400,-2.59,4.73,-3.74,6.56
2022-11-20 11:53:56.6420,0.72,8.69,-4.34,9.74
2022-11-20 11:53:56.6560,3.97,8.02,-6.04,10.79
2022-11-20 11:53:56.6580,4.38,2.96,-5.62,7.71
2022-11-20 11:53:56.7020,3.39,-0.29,-3.96,5.22
2022-11-20 11:53:56.7040,1.33,-1.49,-2.94,3.55
2022-11-20 11:53:56.7070,-0.57,-1.62,-2.53,3.05
2022-11-20 11:53:56.7090,-1.68,-1.11,-2.8,3.44
2022-11-20 11:53:56.7240,-2.0,-0.39,-2.76,3.43
2022-11-20 11:53:56.7260,-1.68,0.41,-2.04,2.67
2022-11-20 11:53:56.7400,-1.39,1.08,-1.2,2.13
2022-11-20 11:53:56.7430,-1.11,1.06,-0.71,1.69
2022-11-20 11:53:56.7560,-0.5,0.22,-0.41,0.68
2022-11-20 11:53:56.7580,0.13,-0.77,-0.2,0.8
2022-11-20 11:53:56.8040,0.55,-1.4,0.06,1.5
2022-11-20 11:53:56.8070,0.63,-1.66,0.22,1.78
2022-11-20 11:53:56.8090,0.69,-1.68,0.49,1.88
2022-11-20 11:53:56.8230,0.9,-1.4,0.87,1.87
2022-11-20 11:53:56.8260,0.85,-0.73,0.87,1.41
2022-11-20 11:53:56.8400,0.69,0.13,0.81,1.07
2022-11-20 11:53:56.8420,0.65,0.69,0.93,1.32
2022-11-20 11:53:56.8560,0.52,0.72,1.11,1.42
2022-11-20 11:53:56.8580,0.13,0.57,1.16,1.29
2022-11-20 11:53:56.8730,-0.17,0.41,1.07,1.15
2022-11-20 11:53:56.9170,-0.11,0.26,0.59,0.65
2022-11-20 11:53:56.9190,0.12,0.2,0.04,0.23
2022-11-20 11:53:56.9240,0.26,0.18,-0.67,0.74
2022-11-20 11:53:56.9260,0.16,-0.01,-0.98,0.99
2022-11-20 11:53:56.9400,-0.25,-0.22,-0.61,0.69
2022-11-20 11:53:56.9420,-0.93,-0.18,-0.03,0.94
2022-11-20 11:53:56.9560,-1.7,0.19,0.43,1.76
2022-11-20 11:53:56.9580,-1.99,0.75,0.35,2.15
2022-11-20 11:53:56.9730,-1.71,1.09,-0.08,2.02
2022-11-20 11:53:56.9750,-1.22,0.95,-0.56,1.64
2022-11-20 11:53:57.0180,-0.99,0.46,-0.62,1.25
2022-11-20 11:53:57.0200,-0.99,0.1,-0.37,1.06
2022-11-20 11:53:57.0240,-0.97,0.23,0.03,0.99
2022-11-20 11:53:57.0260,-0.57,0.37,0.59,0.89
2022-11-20 11:53:57.0400,0.24,-0.07,1.04,1.06
2022-11-20 11:53:57.0430,1.04,-0.89,1.14,1.78
2022-11-20 11:53:57.0560,1.65,-1.42,1.31,2.54
2022-11-20 11:53:57.0580,2.03,-0.89,1.34,2.59
2022-11-20 11:53:57.0730,2.05,0.58,0.85,2.29
2022-11-20 11:53:57.0750,2.2,2.07,-0.06,3.02
2022-11-20 11:53:57.1180,2.75,2.66,-0.8,3.9
2022-11-20 11:53:57.1200,3.34,1.91,-1.13,4.01
2022-11-20 11:53:57.1240,3.48,0.53,-1.37,3.77
2022-11-20 11:53:57.1260,2.95,-0.54,-2.12,3.67
2022-11-20 11:53:57.1400,1.61,-0.89,-3.01,3.52
2022-11-20 11:53:57.1420,0.27,-0.92,-3.5,3.62
2022-11-20 11:53:57.1560,-0.25,-0.47,-3.23,3.27
2022-11-20 11:53:57.1580,0.33,-0.1,-3.76,3.77
2022-11-20 11:53:57.1730,1.54,-0.64,-4.87,5.14
2022-11-20 11:53:57.1750,2.78,-1.48,-5.4,6.25
2022-11-20 11:53:57.2190,3.54,-1.98,-5.19,6.58
2022-11-20 11:53:57.2210,3.6,-2.6,-4.81,6.54
2022-11-20 11:53:57.2240,2.94,-3.09,-4.57,6.25
2022-11-20 11:53:57.2260,1.16,-3.43,-4.91,6.1
2022-11-20 11:53:57.2410,-0.35,-3.31,-5.14,6.12
2022-11-20 11:53:57.2440,-1.71,-2.81,-5.01,5.99
2022-11-20 11:53:57.2570,-2.98,-2.44,-4.38,5.83
2022-11-20 11:53:57.2600,-3.66,-2.61,-3.41,5.64
2022-11-20 11:53:57.2730,-3.61,-3.25,-2.46,5.44
2022-11-20 11:53:57.2760,-2.71,-3.77,-1.67,4.93
2022-11-20 11:53:57.3240,-1.12,-3.77,-1.3,4.14
2022-11-20 11:53:57.3260,0.0,-3.23,-1.36,3.5
2022-11-20 11:53:57.3400,0.05,-2.53,-1.79,3.09
2022-11-20 11:53:57.3430,-0.58,-2.02,-2.57,3.31
2022-11-20 11:53:57.3570,-1.14,-1.9,-2.91,3.65
