time,ax,ay,az,atotal
2022-11-20 11:53:31.0860,-0.2,0.2,-0.03,0.28
2022-11-20 11:53:31.1190,0.01,0.08,-0.2,0.21
2022-11-20 11:53:31.1210,0.18,-0.01,-0.24,0.3
2022-11-20 11:53:31.1210,0.29,0.01,-0.29,0.41
2022-11-20 11:53:31.1240,0.3,0.08,-0.33,0.45
2022-11-20 11:53:31.1430,0.28,0.06,-0.27,0.39
2022-11-20 11:53:31.1440,0.26,-0.01,-0.12,0.28
2022-11-20 11:53:31.1590,0.08,-0.02,-0.08,0.11
2022-11-20 11:53:31.1640,-0.05,0.01,0.02,0.05
2022-11-20 11:53:31.1740,-0.07,0.04,0.1,0.12
2022-11-20 11:53:31.1840,-0.04,0.02,0.14,0.14
2022-11-20 11:53:31.2200,-0.03,-0.02,0.08,0.08
2022-11-20 11:53:31.2210,-0.02,-0.01,-0.04,0.04
2022-11-20 11:53:31.2220,0.03,0.03,-0.05,0.06
2022-11-20 11:53:31.2250,0.09,0.04,-0.08,0.12
2022-11-20 11:53:31.2340,0.11,0.04,-0.08,0.14
2022-11-20 11:53:31.2440,0.1,0.03,-0.12,0.15
2022-11-20 11:53:31.2540,0.09,0.01,-0.17,0.19
2022-11-20 11:53:31.2630,0.06,0.01,-0.1,0.11
2022-11-20 11:53:31.2740,-0.02,0.0,-0.06,0.06
2022-11-20 11:53:31.2830,-0.08,0.05,0.01,0.09
2022-11-20 11:53:31.3190,-0.06,0.07,-0.02,0.09
2022-11-20 11:53:31.3220,0.04,0.04,-0.11,0.12
2022-11-20 11:53:31.3230,0.1,0.0,-0.05,0.11
2022-11-20 11:53:31.3250,0.09,-0.02,-0.01,0.09
2022-11-20 11:53:31.3330,0.06,0.01,0.02,0.06
2022-11-20 11:53:31.3430,0.07,0.03,0.02,0.07
2022-11-20 11:53:31.3530,0.04,-0.01,-0.04,0.05
2022-11-20 11:53:31.3630,-0.06,-0.04,-0.08,0.1
2022-11-20 11:53:31.3730,-0.2,-0.05,-0.07,0.21
2022-11-20 11:53:31.3830,-0.27,-0.02,-0.05,0.27
2022-11-20 11:53:31.4190,-0.12,0.04,-0.03,0.13
2022-11-20 11:53:31.4210,0.07,0.07,-0.09,0.13
2022-11-20 11:53:31.4220,0.21,0.05,-0.14,0.25
2022-11-20 11:53:31.4250,0.33,0.04,-0.15,0.36
2022-11-20 11:53:31.4320,0.4,0.04,-0.12,0.41
2022-11-20 11:53:31.4420,0.4,-0.01,-0.06,0.4
2022-11-20 11:53:31.4520,0.23,-0.03,-0.08,0.24
2022-11-20 11:53:31.4620,0.0,-0.01,-0.06,0.06
2022-11-20 11:53:31.4720,-0.14,0.04,-0.03,0.14
2022-11-20 11:53:31.4820,-0.2,0.01,0.05,0.2
2022-11-20 11:53:31.4920,-0.21,-0.04,0.1,0.23
2022-11-20 11:53:31.5230,-0.16,-0.03,0.14,0.21
2022-11-20 11:53:31.5240,-0.03,0.01,0.15,0.15
2022-11-20 11:53:31.5250,0.09,0.03,0.04,0.1
2022-11-20 11:53:31.5440,0.19,0.05,-0.1,0.22
2022-11-20 11:53:31.5450,0.2,0.06,-0.19,0.28
2022-11-20 11:53:31.5580,0.15,0.04,-0.2,0.25
2022-11-20 11:53:31.5610,0.07,-0.03,-0.15,0.16
2022-11-20 11:53:31.5740,0.01,-0.05,-0.16,0.16
2022-11-20 11:53:31.5810,0.05,0.02,-0.19,0.19
2022-11-20 11:53:31.5910,0.12,0.05,-0.17,0.21
2022-11-20 11:53:31.6230,0.1,0.03,-0.19,0.21
2022-11-20 11:53:31.6250,0.0,0.01,-0.13,0.13
2022-11-20 11:53:31.6260,0.01,0.01,-0.04,0.04
2022-11-20 11:53:31.6430,0.1,0.03,-0.04,0.11
2022-11-20 11:53:31.6440,0.18,0.02,-0.04,0.18
2022-11-20 11:53:31.6580,0.21,0.01,-0.01,0.21
2022-11-20 11:53:31.6610,0.13,-0.01,0.05,0.13
2022-11-20 11:53:31.6730,0.01,-0.03,0.17,0.17
2022-11-20 11:53:31.6810,-0.05,-0.06,0.26,0.27
2022-11-20 11:53:31.6910,-0.06,-0.02,0.24,0.24
2022-11-20 11:53:31.7220,-0.02,0.03,0.17,0.17
2022-11-20 11:53:31.7240,0.03,0.03,0.07,0.08
2022-11-20 11:53:31.7250,0.0,-0.01,0.01,0.01
2022-11-20 11:53:31.7430,-0.05,-0.03,0.02,0.06
2022-11-20 11:53:31.7440,-0.1,-0.01,0.1,0.14
2022-11-20 11:53:31.7580,-0.1,0.03,0.11,0.15
2022-11-20 11:53:31.7600,-0.04,0.06,0.07,0.1
2022-11-20 11:53:31.7730,0.04,0.04,0.0,0.05
2022-11-20 11:53:31.7800,0.09,-0.01,-0.05,0.1
2022-11-20 11:53:31.7900,0.1,-0.03,-0.07,0.12
2022-11-20 11:53:31.8200,0.06,-0.01,-0.04,0.07
2022-11-20 11:53:31.8220,0.04,0.06,-0.09,0.11
2022-11-20 11:53:31.8230,0.05,0.08,-0.19,0.21
2022-11-20 11:53:31.8430,0.05,0.05,-0.28,0.28
2022-11-20 11:53:31.8440,0.08,0.02,-0.24,0.25
2022-11-20 11:53:31.8570,0.06,-0.04,-0.22,0.23
2022-11-20 11:53:31.8590,-0.02,-0.04,-0.17,0.17
2022-11-20 11:53:31.8730,-0.02,0.04,-0.12,0.12
2022-11-20 11:53:31.8800,0.05,0.08,-0.09,0.13
2022-11-20 11:53:31.8890,0.07,0.05,-0.08,0.11
2022-11-20 11:53:31.9250,0.05,-0.02,-0.08,0.09
2022-11-20 11:53:31.9270,0.01,-0.02,-0.06,0.06
2022-11-20 11:53:31.9280,-0.04,0.03,-0.06,0.07
2022-11-20 11:53:31.9440,-0.04,0.07,0.0,0.08
2022-11-20 11:53:31.9450,-0.03,0.05,0.05,0.07
2022-11-20 11:53:31.9560,0.06,0.02,0.08,0.1
2022-11-20 11:53:31.9590,0.14,-0.07,0.1,0.18
2022-11-20 11:53:31.9730,0.09,-0.1,0.08,0.15
2022-11-20 11:53:31.9790,0.09,0.01,0.06,0.1
2022-11-20 11:53:31.9890,0.12,0.05,0.03,0.13
2022-11-20 11:53:32.0260,0.07,-0.01,-0.03,0.07
2022-11-20 11:53:32.0280,0.0,-0.06,-0.02,0.06
2022-11-20 11:53:32.0290,-0.03,-0.03,-0.03,0.05
2022-11-20 11:53:32.0430,-0.02,0.06,-0.01,0.06
2022-11-20 11:53:32.0440,0.02,0.1,-0.04,0.1
2022-11-20 11:53:32.0570,0.06,0.05,-0.11,0.13
2022-11-20 11:53:32.0580,0.1,-0.03,-0.14,0.17
2022-11-20 11:53:32.0720,0.08,-0.06,-0.13,0.16
2022-11-20 11:53:32.0780,0.01,-0.04,-0.09,0.09
2022-11-20 11:53:32.0890,-0.03,0.01,-0.03,0.04
2022-11-20 11:53:32.1240,-0.01,0.05,-0.01,0.05
2022-11-20 11:53:32.1260,0.02,0.07,-0.03,0.07
2022-11-20 11:53:32.1270,0.04,0.06,-0.06,0.09
2022-11-20 11:53:32.1430,0.03,0.06,-0.09,0.11
2022-11-20 11:53:32.1440,0.07,0.09,-0.04,0.12
2022-11-20 11:53:32.1560,0.08,0.03,-0.01,0.08
2022-11-20 11:53:32.1580,0.03,-0.06,-0.04,0.07
2022-11-20 11:53:32.1720,0.02,-0.05,-0.01,0.05
2022-11-20 11:53:32.1780,0.03,-0.02,0.0,0.03
2022-11-20 11:53:32.1880,-0.01,0.0,0.0,0.01
2022-11-20 11:53:32.2230,-0.05,0.01,0.07,0.08
2022-11-20 11:53:32.2240,-0.05,0.03,0.11,0.12
2022-11-20 11:53:32.2250,0.0,0.04,0.05,0.06
2022-11-20 11:53:32.2420,0.1,0.01,-0.01,0.1
2022-11-20 11:53:32.2430,0.14,-0.01,-0.07,0.15
2022-11-20 11:53:32.2560,0.13,-0.02,-0.07,0.14
2022-11-20 11:53:32.2570,0.07,-0.03,-0.09,0.11
2022-11-20 11:53:32.2720,0.04,0.01,-0.07,0.08
2022-11-20 11:53:32.2770,0.05,0.03,-0.01,0.05
2022-11-20 11:53:32.2880,0.03,0.01,0.0,0.03
2022-11-20 11:53:32.2970,0.07,0.02,0.05,0.08
2022-11-20 11:53:32.3300,0.12,0.01,0.03,0.12
2022-11-20 11:53:32.3310,0.08,-0.05,-0.03,0.09
2022-11-20 11:53:32.3320,0.01,-0.06,-0.08,0.1
2022-11-20 11:53:32.3410,-0.03,-0.02,-0.12,0.12
2022-11-20 11:53:32.3470,0.01,0.08,-0.23,0.24
2022-11-20 11:53:32.3560,0.09,0.11,-0.31,0.34
2022-11-20 11:53:32.3660,0.17,0.03,-0.37,0.4
2022-11-20 11:53:32.3760,0.25,-0.02,-0.31,0.39
2022-11-20 11:53:32.3860,0.25,-0.03,-0.15,0.29
2022-11-20 11:53:32.3960,0.17,0.0,-0.03,0.17
2022-11-20 11:53:32.4260,0.08,0.06,0.12,0.15
2022-11-20 11:53:32.4280,-0.06,0.04,0.2,0.21
2022-11-20 11:53:32.4290,-0.21,-0.02,0.29,0.35
2022-11-20 11:53:32.4420,-0.16,0.0,0.32,0.35
2022-11-20 11:53:32.4460,-0.04,0.03,0.17,0.17
2022-11-20 11:53:32.4560,0.05,0.02,0.03,0.06
2022-11-20 11:53:32.4660,0.15,-0.02,0.01,0.15
2022-11-20 11:53:32.4760,0.15,-0.03,-0.02,0.15
2022-11-20 11:53:32.4860,0.02,-0.01,-0.01,0.02
2022-11-20 11:53:32.4960,-0.09,0.0,0.09,0.12
2022-11-20 11:53:32.5260,-0.1,-0.05,0.14,0.17
2022-11-20 11:53:32.5270,-0.04,-0.05,0.03,0.07
2022-11-20 11:53:32.5280,0.02,0.02,-0.06,0.06
2022-11-20 11:53:32.5410,0.01,0.07,-0.04,0.08
2022-11-20 11:53:32.5450,-0.01,0.06,0.04,0.07
2022-11-20 11:53:32.5550,-0.06,0.05,-0.04,0.08
2022-11-20 11:53:32.5650,-0.07,0.06,-0.14,0.16
2022-11-20 11:53:32.5750,-0.01,-0.04,-0.17,0.17
2022-11-20 11:53:32.5850,0.03,-0.07,-0.14,0.15
2022-11-20 11:53:32.5950,0.12,0.02,-0.09,0.15
2022-11-20 11:53:32.6260,0.16,0.08,-0.1,0.2
2022-11-20 11:53:32.6270,0.12,0.04,-0.13,0.18
2022-11-20 11:53:32.6280,0.06,-0.03,-0.11,0.12
2022-11-20 11:53:32.6420,0.02,-0.06,-0.06,0.08
2022-11-20 11:53:32.6440,-0.03,-0.01,-0.04,0.05
2022-11-20 11:53:32.6550,0.0,0.06,-0.03,0.06
2022-11-20 11:53:32.6640,0.06,0.11,-0.02,0.12
2022-11-20 11:53:32.6740,0.11,0.05,0.0,0.12
2022-11-20 11:53:32.6840,0.16,-0.04,0.02,0.16
2022-11-20 11:53:32.6940,0.18,-0.08,0.0,0.19
2022-11-20 11:53:32.7310,0.14,-0.03,-0.04,0.14
2022-11-20 11:53:32.7330,0.04,0.02,-0.04,0.06
2022-11-20 11:53:32.7340,-0.09,0.03,-0.09,0.13
2022-11-20 11:53:32.7380,-0.16,0.05,-0.08,0.18
2022-11-20 11:53:32.7550,-0.13,0.06,-0.04,0.14
2022-11-20 11:53:32.7560,0.01,0.04,-0.05,0.06
2022-11-20 11:53:32.7700,0.14,0.06,-0.1,0.18
2022-11-20 11:53:32.7740,0.22,0.05,-0.13,0.26
2022-11-20 11:53:32.7870,0.17,-0.03,-0.19,0.25
2022-11-20 11:53:32.7940,0.02,-0.08,-0.21,0.22
2022-11-20 11:53:32.8300,-0.11,-0.05,-0.1,0.15
2022-11-20 11:53:32.8310,-0.15,0.01,0.0,0.15
2022-11-20 11:53:32.8320,-0.14,0.04,0.03,0.14
2022-11-20 11:53:32.8370,-0.02,0.04,-0.08,0.09
2022-11-20 11:53:32.8430,0.09,0.01,-0.13,0.15
2022-11-20 11:53:32.8550,0.13,-0.01,-0.13,0.18
2022-11-20 11:53:32.8630,0.13,0.05,-0.15,0.2
2022-11-20 11:53:32.8730,0.13,0.09,-0.1,0.18
2022-11-20 11:53:32.8830,0.11,0.03,-0.07,0.13
2022-11-20 11:53:32.8930,0.08,-0.01,-0.05,0.09
2022-11-20 11:53:32.9290,0.08,-0.03,0.03,0.09
2022-11-20 11:53:32.9300,0.01,-0.04,0.03,0.05
2022-11-20 11:53:32.9310,-0.02,0.01,0.02,0.03
2022-11-20 11:53:32.9410,0.02,0.05,0.01,0.05
2022-11-20 11:53:32.9430,0.06,0.06,-0.1,0.13
2022-11-20 11:53:32.9540,0.02,0.06,-0.17,0.18
2022-11-20 11:53:32.9630,-0.03,0.03,-0.15,0.15
2022-11-20 11:53:32.9720,-0.02,-0.02,-0.12,0.12
2022-11-20 11:53:32.9820,0.0,-0.07,-0.1,0.12
2022-11-20 11:53:32.9920,0.0,-0.06,-0.01,0.06
2022-11-20 11:53:33.0280,0.01,0.0,0.08,0.08
2022-11-20 11:53:33.0300,0.07,0.03,0.14,0.15
2022-11-20 11:53:33.0300,0.14,0.04,0.17,0.22
2022-11-20 11:53:33.0390,0.12,0.01,0.15,0.19
2022-11-20 11:53:33.0420,0.05,-0.02,0.13,0.14
2022-11-20 11:53:33.0540,0.01,-0.02,0.1,0.1
2022-11-20 11:53:33.0620,-0.01,-0.03,0.05,0.05
2022-11-20 11:53:33.0720,-0.02,-0.02,-0.04,0.04
2022-11-20 11:53:33.0820,-0.01,0.05,-0.07,0.08
2022-11-20 11:53:33.0920,-0.01,0.01,-0.07,0.07
2022-11-20 11:53:33.1020,-0.03,-0.05,-0.01,0.05
2022-11-20 11:53:33.1320,-0.01,-0.04,0.02,0.04
2022-11-20 11:53:33.1340,-0.01,0.02,-0.01,0.02
2022-11-20 11:53:33.1350,0.01,0.06,0.01,0.06
2022-11-20 11:53:33.1410,0.07,0.06,0.01,0.09
2022-11-20 11:53:33.1510,0.04,0.03,-0.05,0.07
2022-11-20 11:53:33.1610,-0.01,-0.01,0.03,0.03
2022-11-20 11:53:33.1710,-0.04,-0.04,0.08,0.09
2022-11-20 11:53:33.1810,-0.09,-0.03,0.0,0.09
2022-11-20 11:53:33.1910,-0.05,0.02,-0.08,0.09
2022-11-20 11:53:33.2010,0.01,0.05,-0.15,0.15
2022-11-20 11:53:33.2320,0.02,0.05,-0.2,0.2
2022-11-20 11:53:33.2340,0.03,0.07,-0.17,0.18
2022-11-20 11:53:33.2350,0.08,0.03,-0.07,0.11
2022-11-20 11:53:33.2550,0.09,-0.02,-0.04,0.1
2022-11-20 11:53:33.2560,0.08,0.01,-0.07,0.1
2022-11-20 11:53:33.2710,0.01,0.0,-0.11,0.11
2022-11-20 11:53:33.2720,-0.13,-0.04,-0.12,0.18
2022-11-20 11:53:33.2860,-0.19,0.0,-0.04,0.19
2022-11-20 11:53:33.2910,-0.09,0.04,-0.02,0.1
2022-11-20 11:53:33.3030,0.08,0.09,-0.05,0.13
2022-11-20 11:53:33.3310,0.21,0.1,-0.06,0.24
2022-11-20 11:53:33.3320,0.23,0.0,-0.05,0.23
2022-11-20 11:53:33.3330,0.19,-0.04,-0.05,0.2
2022-11-20 11:53:33.3400,0.11,-0.02,-0.04,0.11
2022-11-20 11:53:33.3500,0.03,-0.02,-0.09,0.09
2022-11-20 11:53:33.3600,-0.08,-0.01,-0.11,0.13
2022-11-20 11:53:33.3700,-0.14,0.03,-0.05,0.15
2022-11-20 11:53:33.3800,-0.1,0.03,0.04,0.11
2022-11-20 11:53:33.3900,-0.07,0.01,0.04,0.08
2022-11-20 11:53:33.4000,0.0,0.0,0.02,0.02
2022-11-20 11:53:33.4300,0.1,-0.04,0.02,0.1
2022-11-20 11:53:33.4310,0.13,-0.04,0.02,0.13
2022-11-20 11:53:33.4320,0.1,0.0,-0.02,0.1
2022-11-20 11:53:33.4400,0.06,0.04,-0.03,0.07
2022-11-20 11:53:33.4530,0.02,0.05,0.0,0.05
2022-11-20 11:53:33.4590,0.0,0.01,-0.01,0.01
2022-11-20 11:53:33.4690,-0.02,-0.04,-0.04,0.06
2022-11-20 11:53:33.4790,-0.07,-0.02,-0.05,0.08
2022-11-20 11:53:33.4890,-0.07,0.0,0.01,0.07
2022-11-20 11:53:33.4990,-0.02,0.0,0.07,0.07
2022-11-20 11:53:33.5350,0.07,0.01,0.07,0.09
2022-11-20 11:53:33.5360,0.13,-0.01,0.01,0.13
2022-11-20 11:53:33.5370,0.2,-0.01,-0.08,0.21
2022-11-20 11:53:33.5550,0.21,0.04,-0.19,0.28
2022-11-20 11:53:33.5560,0.15,0.07,-0.19,0.25
2022-11-20 11:53:33.5690,0.0,0.01,-0.14,0.14
2022-11-20 11:53:33.5710,-0.13,-0.03,-0.05,0.14
2022-11-20 11:53:33.5850,-0.13,0.01,-0.02,0.13
2022-11-20 11:53:33.5890,-0.06,0.01,0.04,0.07
2022-11-20 11:53:33.6010,0.05,-0.02,0.05,0.07
2022-11-20 11:53:33.6360,0.15,-0.02,0.0,0.15
2022-11-20 11:53:33.6370,0.17,0.0,-0.05,0.17
2022-11-20 11:53:33.6380,0.11,0.01,-0.07,0.13
2022-11-20 11:53:33.6560,0.03,0.03,-0.11,0.11
2022-11-20 11:53:33.6570,-0.08,0.02,-0.09,0.12
2022-11-20 11:53:33.6690,-0.1,0.0,-0.01,0.1
2022-11-20 11:53:33.6710,-0.03,-0.01,0.05,0.05
2022-11-20 11:53:33.6850,0.03,-0.01,0.02,0.03
2022-11-20 11:53:33.6880,0.1,0.04,-0.02,0.1
2022-11-20 11:53:33.7010,0.12,0.05,-0.08,0.15
2022-11-20 11:53:33.7330,0.07,0.02,-0.09,0.11
2022-11-20 11:53:33.7350,0.04,-0.01,-0.07,0.08
2022-11-20 11:53:33.7360,0.01,0.04,-0.08,0.09
2022-11-20 11:53:33.7550,0.01,0.08,-0.07,0.1
2022-11-20 11:53:33.7560,0.07,0.03,-0.02,0.07
2022-11-20 11:53:33.7690,0.1,-0.06,0.01,0.11
2022-11-20 11:53:33.7700,0.08,-0.05,-0.01,0.09
2022-11-20 11:53:33.7850,0.04,0.0,0.0,0.04
2022-11-20 11:53:33.7870,0.04,0.03,0.0,0.05
2022-11-20 11:53:33.8010,0.0,0.04,-0.03,0.05
2022-11-20 11:53:33.8330,-0.04,0.02,-0.03,0.05
2022-11-20 11:53:33.8340,-0.05,0.01,-0.02,0.05
2022-11-20 11:53:33.8350,-0.03,0.02,-0.06,0.06
2022-11-20 11:53:33.8550,0.0,-0.01,-0.05,0.05
2022-11-20 11:53:33.8560,0.05,-0.03,-0.04,0.07
2022-11-20 11:53:33.8690,0.08,-0.01,-0.06,0.1
2022-11-20 11:53:33.8700,0.07,0.02,-0.06,0.09
2022-11-20 11:53:33.8840,0.02,0.01,-0.01,0.02
2022-11-20 11:53:33.8860,-0.04,0.0,0.04,0.05
2022-11-20 11:53:33.9010,-0.04,0.01,0.04,0.05
2022-11-20 11:53:33.9060,-0.02,0.01,0.03,0.03
2022-11-20 11:53:33.9370,0.01,-0.01,-0.02,0.02
2022-11-20 11:53:33.9380,0.04,0.0,-0.06,0.07
2022-11-20 11:53:33.9390,0.06,0.02,-0.05,0.08
2022-11-20 11:53:33.9550,0.06,0.05,-0.04,0.08
2022-11-20 11:53:33.9560,0.05,0.04,-0.04,0.07
2022-11-20 11:53:33.9680,0.04,-0.01,-0.06,0.07
2022-11-20 11:53:33.9760,0.0,-0.02,-0.05,0.05
2022-11-20 11:53:33.9860,-0.04,-0.01,-0.06,0.07
2022-11-20 11:53:33.9960,-0.06,0.01,-0.03,0.06
2022-11-20 11:53:34.0060,0.01,0.02,-0.07,0.07
2022-11-20 11:53:34.0380,0.11,0.02,-0.16,0.19
2022-11-20 11:53:34.0400,0.15,0.01,-0.16,0.21
2022-11-20 11:53:34.0400,0.12,0.01,-0.12,0.17
2022-11-20 11:53:34.0550,0.03,0.03,-0.02,0.04
2022-11-20 11:53:34.0560,0.01,0.02,0.06,0.06
2022-11-20 11:53:34.0680,0.01,0.0,0.06,0.06
2022-11-20 11:53:34.0750,-0.01,-0.01,0.02,0.02
2022-11-20 11:53:34.0850,-0.01,-0.01,-0.02,0.02
2022-11-20 11:53:34.0950,0.0,0.0,-0.03,0.03
2022-11-20 11:53:34.1050,0.03,0.02,-0.08,0.08
2022-11-20 11:53:34.1420,0.06,0.03,-0.07,0.09
2022-11-20 11:53:34.1440,0.07,0.02,-0.03,0.07
2022-11-20 11:53:34.1450,0.06,-0.01,-0.01,0.06
2022-11-20 11:53:34.1520,0.07,-0.01,0.0,0.07
2022-11-20 11:53:34.1550,0.09,-0.01,0.01,0.09
2022-11-20 11:53:34.1680,0.02,-0.03,0.04,0.05
2022-11-20 11:53:34.1750,-0.07,-0.01,0.06,0.09
2022-11-20 11:53:34.1850,-0.1,0.05,0.1,0.15
2022-11-20 11:53:34.1950,-0.11,0.09,0.09,0.16
2022-11-20 11:53:34.2050,-0.04,0.06,0.07,0.1
2022-11-20 11:53:34.2380,0.05,0.01,-0.04,0.06
2022-11-20 11:53:34.2400,0.12,-0.02,-0.15,0.19
2022-11-20 11:53:34.2410,0.16,-0.03,-0.12,0.2
2022-11-20 11:53:34.2540,0.1,0.0,-0.05,0.11
2022-11-20 11:53:34.2550,-0.02,0.03,-0.01,0.03
2022-11-20 11:53:34.2680,-0.08,0.02,0.01,0.08
2022-11-20 11:53:34.2740,-0.06,0.01,-0.04,0.07
2022-11-20 11:53:34.2840,-0.04,-0.01,-0.08,0.09
2022-11-20 11:53:34.2940,-0.07,-0.02,-0.06,0.09
2022-11-20 11:53:34.3040,-0.11,0.01,0.0,0.11
2022-11-20 11:53:34.3420,-0.07,0.05,0.05,0.09
2022-11-20 11:53:34.3440,-0.05,0.03,0.06,0.08
2022-11-20 11:53:34.3450,0.04,-0.02,0.03,0.05
2022-11-20 11:53:34.3530,0.18,-0.01,0.02,0.18
2022-11-20 11:53:34.3540,0.22,0.02,-0.03,0.22
2022-11-20 11:53:34.3680,0.12,0.04,-0.11,0.16
2022-11-20 11:53:34.3730,0.0,0.02,-0.08,0.08
2022-11-20 11:53:34.3830,-0.12,-0.02,-0.06,0.13
2022-11-20 11:53:34.3930,-0.24,-0.05,0.04,0.24
2022-11-20 11:53:34.4030,-0.22,-0.03,0.17,0.27
2022-11-20 11:53:34.4410,-0.1,0.02,0.1,0.14
2022-11-20 11:53:34.4420,0.06,0.05,-0.04,0.08
2022-11-20 11:53:34.4430,0.11,0.05,-0.32,0.34
2022-11-20 11:53:34.4510,0.03,-0.01,-0.47,0.47
2022-11-20 11:53:34.4530,-0.08,-0.03,-0.36,0.37
2022-11-20 11:53:34.4670,-0.26,-0.04,-0.21,0.33
2022-11-20 11:53:34.4730,-0.3,-0.05,0.16,0.34
2022-11-20 11:53:34.4830,0.0,-0.03,0.56,0.56
2022-11-20 11:53:34.4930,0.19,-0.05,0.71,0.73
2022-11-20 11:53:34.5030,0.06,0.03,0.75,0.75
2022-11-20 11:53:34.5400,-0.11,0.05,0.9,0.9
2022-11-20 11:53:34.5420,-0.09,-0.07,0.94,0.94
2022-11-20 11:53:34.5420,0.04,-0.15,0.65,0.66
2022-11-20 11:53:34.5510,0.15,-0.11,0.23,0.29
2022-11-20 11:53:34.5520,0.2,0.02,0.07,0.21
2022-11-20 11:53:34.5710,0.21,0.07,-0.02,0.22
2022-11-20 11:53:34.5720,0.17,0.06,-0.15,0.23
2022-11-20 11:53:34.5820,0.18,0.03,-0.04,0.18
2022-11-20 11:53:34.5920,0.16,-0.04,0.04,0.16
2022-11-20 11:53:34.6020,0.06,-0.05,0.08,0.11
2022-11-20 11:53:34.6370,0.03,0.01,0.17,0.17
2022-11-20 11:53:34.6380,0.05,0.04,0.2,0.21
2022-11-20 11:53:34.6390,0.01,0.02,0.22,0.22
2022-11-20 11:53:34.6520,-0.05,-0.04,0.12,0.13
2022-11-20 11:53:34.6530,-0.04,-0.05,0.07,0.09
2022-11-20 11:53:34.6680,0.04,0.0,0.12,0.12
2022-11-20 11:53:34.6710,0.03,0.0,0.12,0.12
2022-11-20 11:53:34.6820,0.03,0.04,0.2,0.2
2022-11-20 11:53:34.6910,0.04,0.0,0.32,0.32
2022-11-20 11:53:34.7010,-0.03,-0.1,0.35,0.36
2022-11-20 11:53:34.7110,-0.07,-0.12,0.33,0.35
2022-11-20 11:53:34.7440,-0.05,-0.09,0.38,0.39
2022-11-20 11:53:34.7450,-0.07,-0.1,0.28,0.3
2022-11-20 11:53:34.7460,-0.1,-0.05,0.27,0.29
2022-11-20 11:53:34.7510,-0.03,0.03,0.32,0.32
2022-11-20 11:53:34.7610,0.06,0.1,0.36,0.37
2022-11-20 11:53:34.7710,0.04,0.16,0.44,0.46
2022-11-20 11:53:34.7810,0.11,0.12,0.36,0.39
2022-11-20 11:53:34.7910,0.33,-0.02,0.34,0.47
2022-11-20 11:53:34.8010,0.37,-0.19,0.26,0.49
2022-11-20 11:53:34.8110,0.25,-0.28,0.22,0.43
2022-11-20 11:53:34.8420,0.17,-0.16,0.24,0.33
2022-11-20 11:53:34.8430,-0.01,0.01,0.03,0.03
2022-11-20 11:53:34.8440,-0.23,0.09,-0.15,0.28
2022-11-20 11:53:34.8520,-0.23,0.04,-0.01,0.23
2022-11-20 11:53:34.8600,-0.07,-0.1,0.04,0.12
2022-11-20 11:53:34.8700,0.11,-0.08,-0.06,0.14
2022-11-20 11:53:34.8800,0.26,0.12,-0.22,0.36
2022-11-20 11:53:34.8900,0.32,0.32,-0.3,0.54
2022-11-20 11:53:34.9000,0.29,0.27,-0.39,0.55
2022-11-20 11:53:34.9100,0.17,0.01,-0.54,0.56
2022-11-20 11:53:34.9410,-0.06,-0.18,-0.57,0.6
2022-11-20 11:53:34.9430,-0.25,-0.18,-0.44,0.53
2022-11-20 11:53:34.9430,-0.36,-0.07,-0.28,0.46
2022-11-20 11:53:34.9510,-0.33,0.11,-0.15,0.37
2022-11-20 11:53:34.9600,-0.2,0.2,-0.1,0.3
2022-11-20 11:53:34.9700,-0.09,0.12,-0.12,0.19
2022-11-20 11:53:34.9790,-0.06,-0.01,-0.23,0.23
2022-11-20 11:53:34.9890,-0.06,-0.06,-0.3,0.31
2022-11-20 11:53:34.9990,-0.07,0.07,-0.3,0.31
2022-11-20 11:53:35.0090,-0.02,0.22,-0.33,0.39
2022-11-20 11:53:35.0400,0.1,0.12,-0.21,0.26
2022-11-20 11:53:35.0420,0.12,-0.17,-0.23,0.31
2022-11-20 11:53:35.0430,0.03,-0.25,-0.21,0.32
2022-11-20 11:53:35.0510,-0.04,-0.08,-0.14,0.16
2022-11-20 11:53:35.0590,-0.11,0.01,-0.12,0.16
2022-11-20 11:53:35.0690,-0.2,-0.01,-0.14,0.24
2022-11-20 11:53:35.0790,-0.31,-0.03,-0.34,0.46
2022-11-20 11:53:35.0890,-0.41,0.08,-0.43,0.59
2022-11-20 11:53:35.0990,-0.38,0.15,-0.14,0.43
2022-11-20 11:53:35.1090,-0.19,-0.05,0.11,0.22
2022-11-20 11:53:35.1460,0.16,-0.28,0.21,0.38
2022-11-20 11:53:35.1470,0.4,-0.15,0.17,0.45
2022-11-20 11:53:35.1480,0.4,0.13,0.14,0.44
2022-11-20 11:53:35.1690,0.2,0.23,0.18,0.35
2022-11-20 11:53:35.1700,0.0,0.07,0.09,0.11
2022-11-20 11:53:35.1810,0.09,-0.1,0.04,0.14
2022-11-20 11:53:35.1820,0.33,-0.17,-0.02,0.37
2022-11-20 11:53:35.1980,0.39,-0.19,-0.13,0.45
2022-11-20 11:53:35.1990,0.23,-0.08,-0.11,0.26
2022-11-20 11:53:35.2140,-0.04,0.07,-0.05,0.09
2022-11-20 11:53:35.2440,-0.26,0.12,0.05,0.29
2022-11-20 11:53:35.2450,-0.37,0.03,0.06,0.37
2022-11-20 11:53:35.2460,-0.24,-0.07,0.06,0.25
2022-11-20 11:53:35.2480,-0.03,-0.05,0.07,0.09
2022-11-20 11:53:35.2580,0.13,0.0,0.0,0.13
2022-11-20 11:53:35.2680,0.26,0.03,-0.18,0.31
2022-11-20 11:53:35.2770,0.27,0.04,-0.45,0.52
2022-11-20 11:53:35.2880,0.15,0.1,-0.48,0.51
2022-11-20 11:53:35.2970,0.13,0.15,-0.29,0.35
2022-11-20 11:53:35.3070,0.13,0.13,-0.33,0.37
2022-11-20 11:53:35.3430,0.16,0.17,-0.29,0.37
2022-11-20 11:53:35.3450,0.19,0.15,-0.2,0.31
2022-11-20 11:53:35.3460,0.22,0.01,-0.01,0.22
2022-11-20 11:53:35.3480,0.24,-0.15,0.08,0.29
2022-11-20 11:53:35.3570,0.26,-0.2,0.01,0.32
2022-11-20 11:53:35.3670,0.33,0.01,-0.07,0.33
2022-11-20 11:53:35.3770,0.35,0.28,-0.22,0.49
2022-11-20 11:53:35.3870,0.3,0.36,-0.3,0.55
2022-11-20 11:53:35.3970,0.22,0.24,-0.26,0.41
2022-11-20 11:53:35.4070,0.09,0.01,-0.22,0.23
2022-11-20 11:53:35.4430,-0.06,-0.12,-0.1,0.16
2022-11-20 11:53:35.4450,-0.16,-0.11,0.05,0.2
2022-11-20 11:53:35.4460,-0.17,-0.02,0.19,0.25
2022-11-20 11:53:35.4480,-0.12,0.07,0.3,0.33
2022-11-20 11:53:35.4560,-0.05,0.08,0.44,0.45
2022-11-20 11:53:35.4660,0.14,0.0,0.6,0.61
2022-11-20 11:53:35.4760,0.27,0.0,0.66,0.71
2022-11-20 11:53:35.4860,0.14,0.09,0.56,0.58
2022-11-20 11:53:35.4960,-0.16,0.13,0.63,0.66
2022-11-20 11:53:35.5060,-0.36,-0.01,0.89,0.96
2022-11-20 11:53:35.5160,-0.34,-0.2,1.07,1.14
2022-11-20 11:53:35.5480,-0.17,-0.24,1.16,1.19
2022-11-20 11:53:35.5490,0.06,-0.2,1.08,1.1
2022-11-20 11:53:35.5500,0.22,-0.11,1.07,1.09
2022-11-20 11:53:35.5680,0.27,0.0,1.09,1.12
2022-11-20 11:53:35.5690,0.11,0.09,0.75,0.76
2022-11-20 11:53:35.5810,-0.16,0.18,0.39,0.45
2022-11-20 11:53:35.5850,-0.3,0.27,0.23,0.46
2022-11-20 11:53:35.5970,-0.27,0.18,-0.02,0.32
2022-11-20 11:53:35.6060,-0.2,-0.05,-0.47,0.51
2022-11-20 11:53:35.6150,-0.14,-0.17,-0.78,0.81
2022-11-20 11:53:35.6470,0.01,-0.14,-0.87,0.88
2022-11-20 11:53:35.6480,0.21,0.0,-0.8,0.82
2022-11-20 11:53:35.6490,0.26,0.16,-1.29,1.32
2022-11-20 11:53:35.6680,0.07,0.48,-1.76,1.82
2022-11-20 11:53:35.6680,0.03,0.81,-1.81,1.98
2022-11-20 11:53:35.6810,0.14,0.67,-2.04,2.15
2022-11-20 11:53:35.6850,0.29,0.14,-2.05,2.07
2022-11-20 11:53:35.6970,0.4,-0.31,-1.74,1.81
2022-11-20 11:53:35.7050,0.43,-0.35,-1.29,1.4
2022-11-20 11:53:35.7150,0.27,-0.11,-0.87,0.91
2022-11-20 11:53:35.7460,0.04,0.03,-0.41,0.41
2022-11-20 11:53:35.7480,-0.17,-0.02,-0.04,0.17
2022-11-20 11:53:35.7490,-0.35,-0.06,0.28,0.45
2022-11-20 11:53:35.7670,-0.45,-0.04,0.53,0.69
2022-11-20 11:53:35.7680,-0.43,-0.12,0.72,0.84
2022-11-20 11:53:35.7800,-0.34,-0.26,0.85,0.95
2022-11-20 11:53:35.7840,-0.28,-0.28,0.94,1.02
2022-11-20 11:53:35.7960,-0.28,-0.08,0.85,0.89
2022-11-20 11:53:35.8040,-0.26,0.34,0.61,0.74
2022-11-20 11:53:35.8140,-0.14,0.69,0.29,0.76
2022-11-20 11:53:35.8460,0.01,0.53,-0.07,0.53
2022-11-20 11:53:35.8470,0.04,0.01,-0.26,0.26
2022-11-20 11:53:35.8480,0.01,-0.31,-0.3,0.43
2022-11-20 11:53:35.8660,0.02,-0.3,-0.3,0.42
2022-11-20 11:53:35.8670,0.13,-0.3,-0.25,0.41
2022-11-20 11:53:35.8800,0.22,-0.39,-0.11,0.46
2022-11-20 11:53:35.8840,0.23,-0.49,0.01,0.54
2022-11-20 11:53:35.8960,0.19,-0.4,0.2,0.48
2022-11-20 11:53:35.9040,0.15,-0.07,0.46,0.48
2022-11-20 11:53:35.9130,0.14,0.35,0.78,0.86
2022-11-20 11:53:35.9510,0.17,0.58,1.24,1.37
2022-11-20 11:53:35.9530,0.22,0.45,1.68,1.75
2022-11-20 11:53:35.9530,0.22,0.19,2.15,2.16
2022-11-20 11:53:35.9660,0.06,0.14,2.61,2.61
2022-11-20 11:53:35.9670,-0.3,0.26,3.07,3.09
2022-11-20 11:53:35.9800,-0.62,0.5,3.61,3.69
2022-11-20 11:53:35.9830,-1.04,0.75,3.89,4.09
2022-11-20 11:53:35.9960,-1.56,1.0,4.15,4.54
2022-11-20 11:53:36.0030,-2.04,1.41,4.54,5.17
2022-11-20 11:53:36.0130,-2.86,1.97,4.76,5.89
2022-11-20 11:53:36.0460,-3.67,2.61,4.84,6.61
2022-11-20 11:53:36.0470,-3.89,3.52,4.93,7.19
2022-11-20 11:53:36.0480,-3.55,4.3,4.57,7.2
2022-11-20 11:53:36.0630,-2.96,4.73,3.61,6.64
2022-11-20 11:53:36.0640,-2.65,5.0,2.56,6.21
2022-11-20 11:53:36.0780,-2.39,5.18,1.77,5.97
2022-11-20 11:53:36.0820,-1.61,5.29,1.2,5.65
2022-11-20 11:53:36.0950,-0.68,5.15,-0.02,5.19
2022-11-20 11:53:36.1020,-0.04,4.88,-0.85,4.95
2022-11-20 11:53:36.1120,0.28,4.72,-0.93,4.81
2022-11-20 11:53:36.1470,0.16,4.54,-0.86,4.62
2022-11-20 11:53:36.1480,-0.21,4.57,-0.98,4.67
2022-11-20 11:53:36.1490,-0.73,4.75,-1.13,4.93
2022-11-20 11:53:36.1670,-0.93,4.55,-1.32,4.82
2022-11-20 11:53:36.1680,-0.92,4.14,-1.3,4.43
2022-11-20 11:53:36.1800,-1.01,3.85,-1.16,4.14
2022-11-20 11:53:36.1820,-0.88,3.51,-1.12,3.78
2022-11-20 11:53:36.1950,-0.54,3.11,-1.31,3.41
2022-11-20 11:53:36.2020,-0.22,2.59,-1.66,3.08
2022-11-20 11:53:36.2120,-0.02,2.05,-1.93,2.81
2022-11-20 11:53:36.2460,0.19,1.58,-1.75,2.36
2022-11-20 11:53:36.2480,0.37,1.1,-1.43,1.84
2022-11-20 11:53:36.2490,0.43,0.59,-0.92,1.17
2022-11-20 11:53:36.2660,0.45,0.04,-0.4,0.6
2022-11-20 11:53:36.2670,0.45,-0.39,0.05,0.59
2022-11-20 11:53:36.2800,0.17,-0.56,0.4,0.7
2022-11-20 11:53:36.2810,-0.25,-0.72,0.78,1.09
2022-11-20 11:53:36.2950,-0.68,-0.85,1.24,1.65
2022-11-20 11:53:36.3010,-1.04,-1.11,1.77,2.33
2022-11-20 11:53:36.3120,-1.3,-1.66,2.18,3.03
2022-11-20 11:53:36.3210,-1.45,-2.47,2.58,3.85
2022-11-20 11:53:36.3550,-1.43,-3.32,2.81,4.57
2022-11-20 11:53:36.3560,-1.26,-4.05,2.84,5.1
2022-11-20 11:53:36.3570,-1.07,-4.63,2.64,5.43
2022-11-20 11:53:36.3630,-0.83,-5.04,2.08,5.51
2022-11-20 11:53:36.3700,-0.58,-5.2,1.41,5.41
2022-11-20 11:53:36.3800,-0.49,-5.22,1.35,5.41
2022-11-20 11:53:36.3900,-0.29,-5.24,1.88,5.57
2022-11-20 11:53:36.4000,-0.07,-5.37,1.98,5.72
2022-11-20 11:53:36.4100,-0.18,-5.55,1.92,5.87
2022-11-20 11:53:36.4200,-0.47,-5.59,1.81,5.89
2022-11-20 11:53:36.4490,-0.49,-5.33,1.49,5.55
2022-11-20 11:53:36.4500,-0.29,-5.01,0.77,5.07
2022-11-20 11:53:36.4510,0.14,-4.76,0.17,4.76
2022-11-20 11:53:36.4650,0.81,-4.53,-0.49,4.62
2022-11-20 11:53:36.4700,1.41,-4.25,-1.12,4.61
2022-11-20 11:53:36.4800,1.67,-3.98,-1.62,4.61
2022-11-20 11:53:36.4900,1.82,-3.98,-1.92,4.77
2022-11-20 11:53:36.5000,2.01,-4.12,-2.21,5.08
2022-11-20 11:53:36.5100,2.19,-4.09,-2.4,5.22
2022-11-20 11:53:36.5200,2.36,-3.69,-2.47,5.02
2022-11-20 11:53:36.5490,2.3,-2.86,-2.45,4.41
2022-11-20 11:53:36.5510,2.04,-1.86,-2.22,3.54
2022-11-20 11:53:36.5520,1.66,-1.06,-1.9,2.73
2022-11-20 11:53:36.5650,1.43,-0.51,-1.91,2.43
2022-11-20 11:53:36.5690,1.88,2.72,-3.67,4.93
2022-11-20 11:53:36.5790,1.48,10.82,-6.87,12.9
2022-11-20 11:53:36.5890,0.4,11.96,-3.92,12.59
2022-11-20 11:53:36.5990,0.91,1.58,3.56,3.99
2022-11-20 11:53:36.6090,1.34,-4.39,3.12,5.54
2022-11-20 11:53:36.6190,1.55,-5.76,-0.28,5.97
2022-11-20 11:53:36.6490,0.53,-4.36,-0.87,4.47
2022-11-20 11:53:36.6500,-1.01,-1.9,-0.2,2.16
2022-11-20 11:53:36.6510,-1.17,-1.63,-0.06,2.0
2022-11-20 11:53:36.6650,-0.35,-2.44,-2.17,3.28
2022-11-20 11:53:36.6690,-0.31,-2.31,-4.57,5.13
2022-11-20 11:53:36.6790,-0.72,-0.53,-4.97,5.04
2022-11-20 11:53:36.6890,-1.07,2.27,-2.87,3.81
2022-11-20 11:53:36.6980,-1.11,4.01,-0.94,4.26
2022-11-20 11:53:36.7080,-0.52,3.59,-0.38,3.64
2022-11-20 11:53:36.7180,0.48,1.48,-0.77,1.73
2022-11-20 11:53:36.7540,1.05,-0.67,-1.8,2.18
2022-11-20 11:53:36.7560,1.11,-1.75,-2.97,3.62
2022-11-20 11:53:36.7570,1.31,-1.48,-3.43,3.95
2022-11-20 11:53:36.7640,1.65,0.75,-2.69,3.24
2022-11-20 11:53:36.7790,1.7,3.83,-1.61,4.48
2022-11-20 11:53:36.7800,1.42,4.63,-1.42,5.04
2022-11-20 11:53:36.7940,1.27,2.52,-1.51,3.2
2022-11-20 11:53:36.7980,1.16,0.2,-1.58,1.97
2022-11-20 11:53:36.8110,1.01,-0.84,-1.79,2.22
2022-11-20 11:53:36.8180,1.03,-0.88,-2.08,2.48
2022-11-20 11:53:36.8510,1.0,-0.68,-2.2,2.51
2022-11-20 11:53:36.8530,0.85,-0.67,-2.01,2.28
2022-11-20 11:53:36.8540,0.57,-0.52,-1.91,2.05
2022-11-20 11:53:36.8630,0.23,-0.11,-2.1,2.11
2022-11-20 11:53:36.8670,0.11,0.34,-2.2,2.22
2022-11-20 11:53:36.8770,0.21,0.49,-2.19,2.25
2022-11-20 11:53:36.8870,0.38,0.25,-1.96,2.01
2022-11-20 11:53:36.8970,0.42,-0.14,-1.65,1.7
2022-11-20 11:53:36.9070,0.32,-0.34,-1.23,1.31
2022-11-20 11:53:36.9170,0.07,-0.27,-0.62,0.67
2022-11-20 11:53:36.9520,-0.29,0.01,-0.23,0.37
2022-11-20 11:53:36.9530,-0.73,0.13,0.13,0.75
2022-11-20 11:53:36.9540,-0.95,-0.03,0.75,1.21
2022-11-20 11:53:36.9640,-1.04,-0.38,0.76,1.34
2022-11-20 11:53:36.9670,-0.96,-0.69,1.01,1.55
2022-11-20 11:53:36.9780,-0.76,-0.61,1.15,1.5
2022-11-20 11:53:36.9870,-0.24,-0.29,1.1,1.16
2022-11-20 11:53:36.9970,0.46,0.04,1.19,1.27
2022-11-20 11:53:37.0060,0.7,0.06,0.99,1.21
2022-11-20 11:53:37.0160,0.57,-0.01,1.34,1.45
2022-11-20 11:53:37.0510,0.51,-0.06,1.51,1.59
2022-11-20 11:53:37.0530,0.57,-0.19,1.61,1.71
2022-11-20 11:53:37.0540,0.37,-0.47,1.64,1.74
2022-11-20 11:53:37.0640,0.05,-0.79,1.23,1.46
2022-11-20 11:53:37.0660,-0.08,-0.86,0.7,1.11
2022-11-20 11:53:37.0780,-0.21,-0.77,0.71,1.06
2022-11-20 11:53:37.0860,-0.28,-0.58,1.71,1.82
2022-11-20 11:53:37.0960,-0.04,-0.15,1.84,1.84
2022-11-20 11:53:37.1060,0.43,0.45,1.54,1.66
2022-11-20 11:53:37.1160,0.59,0.63,1.22,1.49
2022-11-20 11:53:37.1260,0.33,0.24,0.96,1.04
2022-11-20 11:53:37.1560,-0.1,-0.27,1.46,1.48
2022-11-20 11:53:37.1570,-0.33,-0.56,2.4,2.48
2022-11-20 11:53:37.1580,-0.33,-0.32,2.31,2.35
2022-11-20 11:53:37.1650,-0.17,0.23,1.81,1.83
2022-11-20 11:53:37.1750,0.33,0.48,1.35,1.47
2022-11-20 11:53:37.1850,0.93,0.13,0.56,1.09
2022-11-20 11:53:37.1950,1.0,-0.38,0.35,1.12
2022-11-20 11:53:37.2050,0.57,-0.64,0.56,1.02
2022-11-20 11:53:37.2150,0.08,-0.31,0.23,0.39
2022-11-20 11:53:37.2250,-0.29,0.34,-0.05,0.44
2022-11-20 11:53:37.2560,-0.49,0.68,-0.11,0.84
2022-11-20 11:53:37.2570,-0.66,0.43,-0.07,0.79
2022-11-20 11:53:37.2580,-0.62,-0.04,0.3,0.68
2022-11-20 11:53:37.2800,-0.42,-0.19,0.59,0.74
2022-11-20 11:53:37.2810,-0.31,0.07,0.83,0.88
2022-11-20 11:53:37.2940,-0.5,0.25,1.0,1.14
2022-11-20 11:53:37.2950,-0.61,0.13,1.2,1.35
2022-11-20 11:53:37.3090,-0.33,0.18,1.06,1.12
2022-11-20 11:53:37.3150,-0.07,0.44,0.86,0.96
2022-11-20 11:53:37.3260,-0.03,0.73,0.92,1.17
2022-11-20 11:53:37.3540,-0.08,1.05,0.78,1.31
2022-11-20 11:53:37.3550,-0.2,1.49,0.88,1.74
2022-11-20 11:53:37.3560,-0.72,1.99,1.05,2.36
2022-11-20 11:53:37.3640,-1.44,2.49,0.86,3.0
2022-11-20 11:53:37.3740,-1.97,2.96,0.51,3.59
2022-11-20 11:53:37.3840,-2.02,3.36,-0.72,3.98
2022-11-20 11:53:37.3940,-1.43,3.79,-1.38,4.27
2022-11-20 11:53:37.4040,-0.86,3.94,-1.09,4.17
2022-11-20 11:53:37.4140,-0.28,3.53,-0.61,3.59
2022-11-20 11:53:37.4240,0.73,3.69,0.22,3.76
2022-11-20 11:53:37.4530,1.24,4.64,0.61,4.84
2022-11-20 11:53:37.4540,0.36,5.6,0.87,5.67
2022-11-20 11:53:37.4550,-0.81,6.0,2.14,6.42
2022-11-20 11:53:37.4630,-1.76,5.8,3.59,7.04
2022-11-20 11:53:37.4770,-2.53,5.38,4.57,7.49
2022-11-20 11:53:37.4830,-3.18,4.72,5.47,7.89
2022-11-20 11:53:37.4930,-3.22,3.12,5.93,7.43
2022-11-20 11:53:37.5030,-2.07,1.15,5.87,6.32
2022-11-20 11:53:37.5130,0.8,0.66,5.17,5.27
2022-11-20 11:53:37.5230,3.82,1.81,4.38,6.08
2022-11-20 11:53:37.5590,4.34,2.58,3.88,6.36
2022-11-20 11:53:37.5600,2.76,2.58,3.83,5.37
2022-11-20 11:53:37.5610,0.35,2.37,4.23,4.86
2022-11-20 11:53:37.5790,-2.07,2.3,3.46,4.64
2022-11-20 11:53:37.5800,-3.27,2.45,2.56,4.82
2022-11-20 11:53:37.5940,-3.9,3.82,3.07,6.26
2022-11-20 11:53:37.5950,-4.16,6.38,2.7,8.08
2022-11-20 11:53:37.6090,-3.83,7.97,1.5,8.96
2022-11-20 11:53:37.6120,-2.91,7.52,0.41,8.07
2022-11-20 11:53:37.6250,-1.45,6.17,-0.56,6.36
2022-11-20 11:53:37.6580,0.0,4.78,-0.64,4.82
2022-11-20 11:53:37.6600,1.23,4.05,-0.51,4.26
2022-11-20 11:53:37.6610,2.28,4.03,-0.52,4.65
2022-11-20 11:53:37.6790,2.72,4.08,-0.79,4.96
2022-11-20 11:53:37.6800,2.62,4.26,-1.41,5.19
2022-11-20 11:53:37.6930,2.47,4.61,-2.09,5.63
2022-11-20 11:53:37.6940,2.37,4.55,-2.1,5.54
2022-11-20 11:53:37.7090,2.31,3.62,-1.69,4.61
2022-11-20 11:53:37.7120,2.05,2.65,-0.84,3.45
2022-11-20 11:53:37.7250,1.66,2.12,0.13,2.69
2022-11-20 11:53:37.7580,1.25,1.69,1.25,2.44
2022-11-20 11:53:37.7600,0.81,1.21,2.17,2.61
2022-11-20 11:53:37.7610,0.46,0.41,2.8,2.86
2022-11-20 11:53:37.7790,0.02,-0.8,3.29,3.38
2022-11-20 11:53:37.7800,-0.59,-2.33,3.63,4.35
2022-11-20 11:53:37.7930,-1.03,-3.77,3.55,5.27
2022-11-20 11:53:37.7940,-1.05,-4.67,3.14,5.72
2022-11-20 11:53:37.8080,-0.83,-5.19,2.63,5.87
2022-11-20 11:53:37.8110,-0.6,-5.35,2.42,5.9
2022-11-20 11:53:37.8250,-0.29,-5.35,2.74,6.01
2022-11-20 11:53:37.8580,0.0,-5.65,3.07,6.43
2022-11-20 11:53:37.8600,-0.01,-6.56,2.77,7.12
2022-11-20 11:53:37.8610,-0.16,-7.99,2.96,8.52
2022-11-20 11:53:37.8780,-0.41,-8.89,3.03,9.4
2022-11-20 11:53:37.8790,-0.7,-8.99,2.81,9.44
2022-11-20 11:53:37.8930,-1.0,-8.8,2.69,9.25
2022-11-20 11:53:37.8940,-1.35,-8.52,2.33,8.93
2022-11-20 11:53:37.9080,-1.17,-8.25,1.86,8.53
2022-11-20 11:53:37.9100,-0.26,-8.01,0.99,8.07
2022-11-20 11:53:37.9240,0.81,-7.72,-0.17,7.76
2022-11-20 11:53:37.9310,1.73,-7.32,-1.61,7.69
2022-11-20 11:53:37.9680,2.63,-6.92,-3.11,8.02
2022-11-20 11:53:37.9690,3.67,-6.56,-4.39,8.7
2022-11-20 11:53:37.9700,4.65,-6.04,-5.28,9.27
2022-11-20 11:53:37.9770,5.2,-5.23,-5.69,9.31
2022-11-20 11:53:37.9800,5.07,-4.62,-6.2,9.24
2022-11-20 11:53:37.9920,4.43,-4.9,-6.21,9.06
2022-11-20 11:53:38.0000,3.71,-6.06,-5.6,9.04
2022-11-20 11:53:38.0100,3.22,-7.35,-4.65,9.27
2022-11-20 11:53:38.0200,3.23,-7.81,-4.93,9.78
2022-11-20 11:53:38.0300,4.57,-4.38,-10.43,12.2
2022-11-20 11:53:38.0570,4.8,4.46,-8.85,11.01
2022-11-20 11:53:38.0590,0.57,11.29,-3.72,11.9
2022-11-20 11:53:38.0600,-5.74,12.16,2.35,13.65
2022-11-20 11:53:38.0780,-5.57,9.2,4.09,11.5
2022-11-20 11:53:38.0790,-1.97,3.56,2.94,5.01
2022-11-20 11:53:38.0920,-2.46,-1.34,0.88,2.93
2022-11-20 11:53:38.0990,-2.93,-4.24,-0.24,5.15
2022-11-20 11:53:38.1090,-2.56,-5.84,-2.33,6.78
2022-11-20 11:53:38.1190,-1.74,-6.63,-5.43,8.74
2022-11-20 11:53:38.1290,-0.4,-4.98,-6.51,8.2
2022-11-20 11:53:38.1580,0.68,-0.43,-4.78,4.84
2022-11-20 11:53:38.1590,0.81,4.56,-2.09,5.08
2022-11-20 11:53:38.1600,0.42,6.85,-0.14,6.86
2022-11-20 11:53:38.1780,0.36,5.28,-0.42,5.3
2022-11-20 11:53:38.1790,0.62,2.09,-2.24,3.12
2022-11-20 11:53:38.1920,1.04,-0.2,-3.56,3.71
2022-11-20 11:53:38.1990,1.31,-1.46,-4.11,4.55
2022-11-20 11:53:38.2090,1.35,-1.56,-3.28,3.87
2022-11-20 11:53:38.2190,1.13,-0.67,-2.37,2.7
2022-11-20 11:53:38.2290,0.75,0.23,-1.85,2.0
2022-11-20 11:53:38.2580,0.42,0.67,-1.74,1.91
2022-11-20 11:53:38.2600,0.02,0.65,-1.69,1.81
2022-11-20 11:53:38.2610,-0.26,0.45,-1.35,1.44
2022-11-20 11:53:38.2780,-0.25,0.19,-1.34,1.37
2022-11-20 11:53:38.2790,-0.11,0.09,-1.3,1.3
2022-11-20 11:53:38.2920,0.01,0.34,-1.07,1.12
2022-11-20 11:53:38.2980,-0.01,0.38,-1.19,1.24
2022-11-20 11:53:38.3080,-0.03,-0.06,-0.91,0.91
2022-11-20 11:53:38.3180,0.0,-0.6,-0.39,0.71
2022-11-20 11:53:38.3280,0.03,-0.97,-0.52,1.1
2022-11-20 11:53:38.3650,0.24,-1.12,-0.52,1.25
2022-11-20 11:53:38.3660,0.51,-0.82,-0.09,0.96
2022-11-20 11:53:38.3670,0.52,-0.04,0.75,0.91
2022-11-20 11:53:38.3760,0.39,0.82,0.89,1.27
2022-11-20 11:53:38.3770,0.27,0.65,0.86,1.11
2022-11-20 11:53:38.3910,0.35,-0.19,1.17,1.23
2022-11-20 11:53:38.3980,0.76,-0.95,1.04,1.6
2022-11-20 11:53:38.4070,1.3,-1.39,0.62,2.0
2022-11-20 11:53:38.4170,1.41,-1.56,0.32,2.12
2022-11-20 11:53:38.4270,1.0,-1.47,0.58,1.87
2022-11-20 11:53:38.4620,0.54,-0.97,1.24,1.66
2022-11-20 11:53:38.4630,0.15,-0.23,1.07,1.1
2022-11-20 11:53:38.4640,-0.26,0.27,0.93,1.0
2022-11-20 11:53:38.4770,-0.74,0.39,1.04,1.33
2022-11-20 11:53:38.4780,-1.1,0.13,0.7,1.31
2022-11-20 11:53:38.4910,-1.06,-0.39,1.42,1.81
2022-11-20 11:53:38.4970,-0.59,-0.73,2.38,2.55
2022-11-20 11:53:38.5070,0.01,-0.55,2.49,2.55
2022-11-20 11:53:38.5170,0.36,-0.02,2.43,2.45
2022-11-20 11:53:38.5260,0.46,0.25,1.94,2.0
2022-11-20 11:53:38.5620,0.37,0.08,1.68,1.72
2022-11-20 11:53:38.5640,0.25,-0.29,1.5,1.54
2022-11-20 11:53:38.5650,0.21,-0.58,1.32,1.45
2022-11-20 11:53:38.5770,0.37,-0.42,1.76,1.84
2022-11-20 11:53:38.5780,0.44,-0.07,2.04,2.08
2022-11-20 11:53:38.5910,0.1,0.04,2.19,2.19
2022-11-20 11:53:38.5960,-0.44,-0.1,2.56,2.59
2022-11-20 11:53:38.6070,-0.76,-0.19,2.85,2.95
2022-11-20 11:53:38.6160,-0.68,0.03,2.91,2.98
2022-11-20 11:53:38.6260,-0.22,0.32,1.97,2.0
2022-11-20 11:53:38.6630,0.09,0.3,0.85,0.9
2022-11-20 11:53:38.6640,0.08,0.11,0.13,0.18
2022-11-20 11:53:38.6650,-0.07,0.0,-0.12,0.13
2022-11-20 11:53:38.6770,-0.19,0.24,-0.2,0.36
2022-11-20 11:53:38.6770,-0.09,0.72,0.48,0.87
2022-11-20 11:53:38.6910,-0.08,0.87,1.76,1.96
2022-11-20 11:53:38.6960,-0.26,0.65,2.35,2.45
2022-11-20 11:53:38.7060,-0.09,0.94,1.92,2.13
2022-11-20 11:53:38.7150,0.31,1.81,0.72,1.97
2022-11-20 11:53:38.7250,0.24,2.31,0.03,2.32
2022-11-20 11:53:38.7350,-0.49,2.28,0.02,2.33
2022-11-20 11:53:38.7670,-1.65,2.71,-0.53,3.21
2022-11-20 11:53:38.7690,-2.64,3.7,-0.51,4.57
2022-11-20 11:53:38.7700,-2.46,4.64,0.11,5.25
2022-11-20 11:53:38.7750,-1.28,5.23,0.42,5.4
2022-11-20 11:53:38.7850,-0.79,5.54,-0.1,5.59
2022-11-20 11:53:38.7950,-0.94,5.15,-0.51,5.25
2022-11-20 11:53:38.8050,-0.89,4.21,0.63,4.34
2022-11-20 11:53:38.8150,-0.86,3.67,2.13,4.32
2022-11-20 11:53:38.8250,-0.97,3.95,3.52,5.37
2022-11-20 11:53:38.8350,-1.28,4.45,4.83,6.69
2022-11-20 11:53:38.8650,-1.52,4.45,6.04,7.65
2022-11-20 11:53:38.8660,-1.49,3.39,6.87,7.8
2022-11-20 11:53:38.8670,-1.09,1.89,6.58,6.93
2022-11-20 11:53:38.8750,0.21,1.25,5.55,5.69
2022-11-20 11:53:38.8840,1.96,1.96,4.93,5.65
2022-11-20 11:53:38.8940,3.2,2.87,4.6,6.29
2022-11-20 11:53:38.9040,3.7,3.02,3.57,5.96
2022-11-20 11:53:38.9140,3.13,2.56,2.98,5.02
2022-11-20 11:53:38.9240,1.42,2.36,2.4,3.65
2022-11-20 11:53:38.9340,-0.12,2.63,1.57,3.06
2022-11-20 11:53:38.9640,-1.4,3.55,1.8,4.21
2022-11-20 11:53:38.9660,-2.31,5.32,2.31,6.24
2022-11-20 11:53:38.9670,-1.9,7.24,1.64,7.66
2022-11-20 11:53:38.9740,-1.4,8.23,0.91,8.39
2022-11-20 11:53:38.9840,-0.9,7.9,-0.04,7.95
2022-11-20 11:53:38.9940,0.28,6.59,-1.03,6.67
2022-11-20 11:53:39.0040,1.32,5.03,-1.72,5.47
2022-11-20 11:53:39.0140,1.83,4.1,-1.84,4.85
2022-11-20 11:53:39.0230,1.69,3.88,-1.75,4.57
2022-11-20 11:53:39.0330,1.06,3.87,-1.42,4.25
2022-11-20 11:53:39.0650,0.5,4.16,-1.07,4.32
2022-11-20 11:53:39.0670,0.16,4.33,-0.88,4.42
2022-11-20 11:53:39.0680,0.0,3.49,-0.83,3.58
2022-11-20 11:53:39.0740,0.03,2.02,-0.58,2.1
2022-11-20 11:53:39.0900,0.28,0.66,0.05,0.71
2022-11-20 11:53:39.0930,0.68,-0.22,0.91,1.15
2022-11-20 11:53:39.1050,0.95,-0.67,1.58,1.96
2022-11-20 11:53:39.1130,0.97,-0.83,1.87,2.26
2022-11-20 11:53:39.1230,0.79,-1.03,1.96,2.35
2022-11-20 11:53:39.1330,0.4,-1.46,2.23,2.69
2022-11-20 11:53:39.1690,-0.18,-2.13,2.78,3.5
2022-11-20 11:53:39.1700,-0.85,-3.09,3.22,4.54
2022-11-20 11:53:39.1710,-1.57,-3.99,3.44,5.49
2022-11-20 11:53:39.1920,-2.17,-4.56,3.56,6.17
2022-11-20 11:53:39.1940,-2.28,-5.4,3.7,6.93
2022-11-20 11:53:39.2060,-2.05,-6.42,3.72,7.69
2022-11-20 11:53:39.2070,-1.73,-7.17,3.43,8.13
2022-11-20 11:53:39.2210,-1.44,-7.63,2.76,8.24
2022-11-20 11:53:39.2230,-1.22,-8.01,2.78,8.56
2022-11-20 11:53:39.2380,-1.12,-8.01,3.17,8.68
2022-11-20 11:53:39.2670,-1.06,-7.45,3.41,8.26
2022-11-20 11:53:39.2690,-0.99,-7.12,3.08,7.82
2022-11-20 11:53:39.2700,-0.82,-7.34,2.16,7.69
2022-11-20 11:53:39.2920,-0.43,-8.0,1.14,8.09
2022-11-20 11:53:39.2930,0.19,-8.4,0.25,8.4
2022-11-20 11:53:39.3060,0.95,-8.15,-0.57,8.22
2022-11-20 11:53:39.3070,1.7,-7.68,-1.63,8.03
2022-11-20 11:53:39.3220,2.47,-7.26,-3.03,8.24
2022-11-20 11:53:39.3230,3.23,-6.91,-4.49,8.85
2022-11-20 11:53:39.3380,3.86,-6.55,-5.4,9.32
2022-11-20 11:53:39.3670,4.15,-6.07,-5.98,9.47
2022-11-20 11:53:39.3680,4.03,-5.81,-5.72,9.09
2022-11-20 11:53:39.3690,3.58,-6.03,-4.8,8.49
2022-11-20 11:53:39.3710,2.87,-6.68,-3.69,8.15
2022-11-20 11:53:39.3810,2.11,-7.48,-2.9,8.29
2022-11-20 11:53:39.3910,1.67,-7.9,-2.18,8.36
2022-11-20 11:53:39.4010,3.8,-2.72,-5.28,7.05
2022-11-20 11:53:39.4110,3.75,14.41,-9.57,17.7
2022-11-20 11:53:39.4210,-3.75,23.22,-5.92,24.25
2022-11-20 11:53:39.4310,-7.69,10.84,4.01,13.88
2022-11-20 11:53:39.4660,-2.86,0.6,2.9,4.11
2022-11-20 11:53:39.4680,0.62,-2.16,-1.29,2.59
2022-11-20 11:53:39.4680,-0.19,-3.65,-3.99,5.41
2022-11-20 11:53:39.4710,-1.29,-4.61,-3.75,6.08
2022-11-20 11:53:39.4800,-1.65,-5.7,-4.19,7.26
2022-11-20 11:53:39.4900,-0.98,-6.09,-4.95,7.9
2022-11-20 11:53:39.5000,0.37,-2.82,-3.88,4.81
2022-11-20 11:53:39.5100,1.11,2.78,-1.79,3.48
2022-11-20 11:53:39.5200,0.6,6.88,-0.63,6.93
2022-11-20 11:53:39.5300,-0.05,6.48,-0.12,6.48
2022-11-20 11:53:39.5400,0.08,3.03,-0.62,3.09
2022-11-20 11:53:39.5700,1.01,0.01,-1.6,1.89
2022-11-20 11:53:39.5720,1.86,-1.84,-2.63,3.7
2022-11-20 11:53:39.5730,2.11,-2.45,-3.23,4.57
2022-11-20 11:53:39.5910,1.9,-1.88,-3.0,4.01
2022-11-20 11:53:39.5920,1.45,-0.58,-2.31,2.78
2022-11-20 11:53:39.6050,0.9,0.65,-1.97,2.26
2022-11-20 11:53:39.6100,0.34,1.23,-1.83,2.23
2022-11-20 11:53:39.6200,-0.15,1.18,-1.5,1.91
2022-11-20 11:53:39.6290,-0.56,0.82,-1.07,1.45
2022-11-20 11:53:39.6390,-0.83,0.39,-0.69,1.14
2022-11-20 11:53:39.6700,-0.86,-0.09,-0.8,1.17
2022-11-20 11:53:39.6720,-0.64,-0.62,-0.64,1.09
2022-11-20 11:53:39.6730,-0.36,-0.97,-0.39,1.1
2022-11-20 11:53:39.6910,-0.13,-1.07,0.04,1.07
2022-11-20 11:53:39.6920,-0.15,-0.96,0.59,1.13
2022-11-20 11:53:39.7040,-0.31,-0.65,0.6,0.93
2022-11-20 11:53:39.7090,-0.67,-0.13,0.97,1.18
2022-11-20 11:53:39.7200,-0.82,0.42,1.0,1.35
2022-11-20 11:53:39.7290,-0.55,0.39,0.9,1.12
2022-11-20 11:53:39.7390,-0.07,-0.01,0.64,0.64
2022-11-20 11:53:39.7690,0.41,-0.74,0.77,1.14
2022-11-20 11:53:39.7710,0.69,-1.16,1.1,1.74
2022-11-20 11:53:39.7720,0.73,-1.03,1.59,2.03
2022-11-20 11:53:39.7910,0.58,-0.4,1.22,1.4
2022-11-20 11:53:39.7920,0.36,0.09,1.18,1.23
2022-11-20 11:53:39.8050,-0.02,0.13,0.94,0.94
2022-11-20 11:53:39.8080,-0.49,-0.05,0.69,0.84
2022-11-20 11:53:39.8200,-0.89,-0.22,1.37,1.64
2022-11-20 11:53:39.8280,-1.08,-0.31,1.35,1.75
2022-11-20 11:53:39.8380,-1.14,-0.39,1.01,1.57
2022-11-20 11:53:39.8680,-1.0,-0.38,1.38,1.74
2022-11-20 11:53:39.8700,-0.9,-0.21,1.0,1.36
2022-11-20 11:53:39.8710,-0.98,-0.03,0.9,1.33
2022-11-20 11:53:39.8900,-0.74,0.14,1.34,1.53
2022-11-20 11:53:39.8910,-0.17,0.18,1.37,1.39
2022-11-20 11:53:39.9040,0.35,0.17,1.12,1.18
2022-11-20 11:53:39.9080,0.55,0.06,0.94,1.09
2022-11-20 11:53:39.9200,0.47,-0.12,0.83,0.96
2022-11-20 11:53:39.9280,0.46,-0.13,1.13,1.22
2022-11-20 11:53:39.9370,0.24,0.0,0.58,0.62
2022-11-20 11:53:39.9740,-0.16,0.01,0.44,0.46
2022-11-20 11:53:39.9760,-0.39,-0.07,0.97,1.04
2022-11-20 11:53:39.9770,-0.33,-0.1,1.25,1.29
2022-11-20 11:53:39.9900,-0.14,0.06,1.57,1.57
2022-11-20 11:53:39.9910,-0.13,0.14,2.12,2.12
2022-11-20 11:53:40.0040,-0.34,0.01,2.34,2.36
2022-11-20 11:53:40.0070,-0.43,-0.05,2.63,2.66
2022-11-20 11:53:40.0200,-0.27,0.01,2.39,2.4
2022-11-20 11:53:40.0270,-0.02,0.13,1.74,1.74
2022-11-20 11:53:40.0370,0.14,0.4,1.21,1.28
2022-11-20 11:53:40.0740,0.26,0.6,0.93,1.13
2022-11-20 11:53:40.0750,0.28,0.61,0.7,0.96
2022-11-20 11:53:40.0760,0.17,0.73,0.82,1.11
2022-11-20 11:53:40.0900,0.07,0.9,1.25,1.54
2022-11-20 11:53:40.0910,-0.05,1.08,1.2,1.61
2022-11-20 11:53:40.1040,0.03,1.49,0.91,1.74
2022-11-20 11:53:40.1060,0.03,2.04,0.72,2.16
2022-11-20 11:53:40.1190,-0.37,2.68,0.17,2.71
2022-11-20 11:53:40.1260,-1.31,3.3,0.17,3.55
2022-11-20 11:53:40.1360,-2.77,3.73,0.7,4.69
2022-11-20 11:53:40.1730,-3.38,3.98,0.41,5.23
2022-11-20 11:53:40.1750,-2.66,4.46,-0.44,5.21
2022-11-20 11:53:40.1760,-1.71,5.07,-0.58,5.38
2022-11-20 11:53:40.1900,-1.22,4.65,-0.85,4.88
2022-11-20 11:53:40.1900,-0.93,3.81,-0.16,3.92
2022-11-20 11:53:40.2030,-0.74,3.67,0.8,3.82
2022-11-20 11:53:40.2060,-1.0,4.17,1.98,4.72
2022-11-20 11:53:40.2190,-1.6,4.66,3.31,5.93
2022-11-20 11:53:40.2260,-1.96,4.64,4.44,6.71
2022-11-20 11:53:40.2360,-2.0,4.1,4.86,6.66
2022-11-20 11:53:40.2720,-1.62,3.07,5.18,6.23
2022-11-20 11:53:40.2740,-0.27,1.98,4.96,5.34
2022-11-20 11:53:40.2750,1.25,1.55,4.52,4.93
2022-11-20 11:53:40.2890,1.84,1.77,3.99,4.73
2022-11-20 11:53:40.2900,1.77,1.49,3.62,4.29
2022-11-20 11:53:40.3030,1.53,0.74,3.31,3.72
2022-11-20 11:53:40.3050,0.92,0.74,2.84,3.07
2022-11-20 11:53:40.3190,0.73,1.35,1.77,2.34
2022-11-20 11:53:40.3250,0.42,1.55,0.29,1.63
2022-11-20 11:53:40.3350,-0.65,2.36,0.76,2.56
2022-11-20 11:53:40.3450,-0.45,3.85,0.48,3.9
2022-11-20 11:53:40.3800,-0.03,5.23,0.44,5.24
2022-11-20 11:53:40.3810,-0.93,5.98,0.1,6.05
2022-11-20 11:53:40.3820,-1.25,6.18,-0.32,6.31
2022-11-20 11:53:40.3850,-0.54,5.3,-0.27,5.33
2022-11-20 11:53:40.3940,-0.21,3.82,-0.3,3.83
2022-11-20 11:53:40.4050,-0.01,2.71,-0.23,2.71
2022-11-20 11:53:40.4140,0.24,2.56,-0.33,2.59
2022-11-20 11:53:40.4240,0.37,2.75,-0.66,2.85
2022-11-20 11:53:40.4340,0.52,2.75,-1.07,2.99
2022-11-20 11:53:40.4440,0.78,2.91,-1.59,3.4
2022-11-20 11:53:40.4750,1.33,3.11,-1.95,3.9
2022-11-20 11:53:40.4770,2.06,2.93,-1.84,4.02
2022-11-20 11:53:40.4780,2.4,2.38,-1.36,3.64
2022-11-20 11:53:40.4880,2.31,1.63,-0.72,2.91
2022-11-20 11:53:40.4940,1.82,1.04,0.1,2.09
2022-11-20 11:53:40.5040,1.09,0.68,0.9,1.56
2022-11-20 11:53:40.5140,0.24,0.41,1.43,1.5
2022-11-20 11:53:40.5240,-0.49,0.06,1.76,1.82
2022-11-20 11:53:40.5340,-1.17,-0.27,2.2,2.5
2022-11-20 11:53:40.5440,-1.79,-0.53,2.72,3.29
2022-11-20 11:53:40.5750,-2.2,-0.79,3.36,4.09
2022-11-20 11:53:40.5770,-2.34,-1.3,3.82,4.66
2022-11-20 11:53:40.5770,-2.26,-2.11,3.91,4.98
2022-11-20 11:53:40.5890,-1.97,-2.66,3.66,4.93
2022-11-20 11:53:40.5930,-1.46,-3.35,3.11,4.79
2022-11-20 11:53:40.6030,-0.84,-3.93,2.61,4.79
2022-11-20 11:53:40.6130,-0.37,-4.12,2.33,4.74
2022-11-20 11:53:40.6230,-0.17,-4.0,2.41,4.67
2022-11-20 11:53:40.6330,-0.12,-4.17,2.64,4.93
2022-11-20 11:53:40.6430,-0.23,-5.0,2.7,5.68
2022-11-20 11:53:40.6750,-0.4,-6.03,2.68,6.61
2022-11-20 11:53:40.6760,-0.47,-6.55,2.64,7.07
2022-11-20 11:53:40.6770,-0.37,-6.53,2.49,6.99
2022-11-20 11:53:40.6880,-0.28,-6.56,2.12,6.89
2022-11-20 11:53:40.6930,-0.09,-6.63,1.83,6.87
2022-11-20 11:53:40.7020,0.31,-6.56,1.71,6.78
2022-11-20 11:53:40.7120,0.86,-6.47,1.45,6.68
2022-11-20 11:53:40.7220,1.39,-6.56,0.77,6.74
2022-11-20 11:53:40.7320,2.05,-6.75,-0.48,7.07
2022-11-20 11:53:40.7420,2.86,-6.79,-1.8,7.58
2022-11-20 11:53:40.7800,3.53,-6.54,-3.1,8.05
2022-11-20 11:53:40.7820,3.89,-5.87,-3.8,8.0
2022-11-20 11:53:40.7820,4.0,-4.83,-3.77,7.31
2022-11-20 11:53:40.7850,3.77,-3.83,-3.53,6.42
2022-11-20 11:53:40.7920,3.22,-3.29,-3.37,5.7
2022-11-20 11:53:40.8020,2.7,-3.57,-3.2,5.5
2022-11-20 11:53:40.8120,2.35,-4.5,-3.15,5.97
2022-11-20 11:53:40.8220,2.13,-5.5,-2.91,6.57
2022-11-20 11:53:40.8320,1.99,-6.35,-2.42,7.08
2022-11-20 11:53:40.8420,1.87,-7.2,-1.82,7.65
2022-11-20 11:53:40.8770,1.73,-8.12,-0.84,8.34
2022-11-20 11:53:40.8790,3.13,-5.88,2.93,7.27
2022-11-20 11:53:40.8800,5.51,11.77,-7.45,14.97
2022-11-20 11:53:40.8880,-2.21,35.21,-15.64,38.59
2022-11-20 11:53:40.9020,-9.61,20.91,-1.31,23.04
2022-11-20 11:53:40.9030,-5.24,0.29,8.06,9.61
2022-11-20 11:53:40.9170,0.59,-4.53,2.46,5.18
2022-11-20 11:53:40.9210,1.52,-6.56,-2.13,7.06
2022-11-20 11:53:40.9340,1.15,-8.22,-4.73,9.55
2022-11-20 11:53:40.9410,1.06,-8.86,-5.76,10.62
2022-11-20 11:53:40.9770,2.17,-7.04,-6.57,9.87
2022-11-20 11:53:40.9780,3.51,-1.96,-6.29,7.46
2022-11-20 11:53:40.9790,3.9,4.16,-4.57,7.3
2022-11-20 11:53:40.9860,1.26,8.84,-1.69,9.08
2022-11-20 11:53:40.9900,-2.87,8.46,-0.62,8.95
2022-11-20 11:53:41.0010,-4.32,3.87,-0.52,5.82
2022-11-20 11:53:41.0100,-3.02,-0.57,-0.45,3.1
2022-11-20 11:53:41.0200,-1.32,-3.23,-1.03,3.63
2022-11-20 11:53:41.0300,-0.29,-3.81,-1.8,4.22
2022-11-20 11:53:41.0400,0.03,-2.54,-1.95,3.2
2022-11-20 11:53:41.0760,-0.1,-0.46,-1.97,2.02
2022-11-20 11:53:41.0780,-0.23,1.19,-1.99,2.33
2022-11-20 11:53:41.0790,-0.04,1.98,-1.97,2.79
2022-11-20 11:53:41.0870,0.27,1.83,-1.76,2.55
2022-11-20 11:53:41.0900,0.62,1.13,-1.47,1.95
2022-11-20 11:53:41.1010,0.87,0.38,-1.39,1.68
2022-11-20 11:53:41.1100,1.03,-0.17,-1.51,1.83
2022-11-20 11:53:41.1200,1.13,-0.59,-1.76,2.17
2022-11-20 11:53:41.1300,1.05,-0.91,-1.54,2.07
2022-11-20 11:53:41.1400,0.61,-1.06,-1.28,1.77
2022-11-20 11:53:41.1500,0.03,-0.92,-0.68,1.14
2022-11-20 11:53:41.1820,-0.51,-0.52,-0.09,0.73
2022-11-20 11:53:41.1830,-0.84,-0.19,0.08,0.86
2022-11-20 11:53:41.1840,-0.8,-0.09,0.44,0.91
2022-11-20 11:53:41.2040,-0.4,-0.08,0.94,1.02
2022-11-20 11:53:41.2050,0.13,-0.06,1.18,1.18
2022-11-20 11:53:41.2170,0.26,-0.18,0.96,1.01
2022-11-20 11:53:41.2190,-0.07,-0.5,1.29,1.38
2022-11-20 11:53:41.2330,-0.2,-0.64,1.43,1.57
2022-11-20 11:53:41.2390,-0.02,-0.54,1.72,1.8
2022-11-20 11:53:41.2500,0.06,-0.42,1.82,1.86
2022-11-20 11:53:41.2820,-0.02,-0.45,1.29,1.36
2022-11-20 11:53:41.2830,0.14,-0.41,1.61,1.66
2022-11-20 11:53:41.2840,0.4,-0.2,1.09,1.17
2022-11-20 11:53:41.3040,0.29,-0.04,0.6,0.66
2022-11-20 11:53:41.3050,0.02,-0.18,1.2,1.21
2022-11-20 11:53:41.3170,-0.3,-0.32,0.88,0.98
2022-11-20 11:53:41.3180,-0.59,-0.27,0.78,1.01
2022-11-20 11:53:41.3330,-0.69,-0.11,0.59,0.91
2022-11-20 11:53:41.3390,-0.54,-0.05,0.1,0.55
2022-11-20 11:53:41.3500,-0.22,-0.09,0.46,0.51
2022-11-20 11:53:41.3810,0.01,-0.16,0.55,0.57
2022-11-20 11:53:41.3820,0.12,-0.11,0.45,0.47
2022-11-20 11:53:41.3830,0.31,0.08,0.31,0.44
2022-11-20 11:53:41.4040,0.64,0.22,0.19,0.7
2022-11-20 11:53:41.4050,0.95,0.21,0.05,0.97
2022-11-20 11:53:41.4170,1.02,0.06,-0.19,1.03
2022-11-20 11:53:41.4180,0.77,-0.1,-0.23,0.8
2022-11-20 11:53:41.4330,0.4,-0.13,-0.15,0.44
2022-11-20 11:53:41.4380,0.09,-0.06,0.1,0.14
2022-11-20 11:53:41.4490,-0.16,-0.08,0.61,0.63
2022-11-20 11:53:41.4790,-0.27,-0.24,1.26,1.31
2022-11-20 11:53:41.4810,-0.34,-0.36,1.72,1.78
2022-11-20 11:53:41.4820,-0.62,-0.35,2.01,2.13
2022-11-20 11:53:41.5030,-0.73,-0.31,2.44,2.56
2022-11-20 11:53:41.5040,-0.43,-0.31,2.72,2.77
2022-11-20 11:53:41.5170,-0.02,-0.3,2.69,2.7
2022-11-20 11:53:41.5180,0.31,-0.19,2.1,2.13
2022-11-20 11:53:41.5320,0.48,-0.02,1.52,1.59
2022-11-20 11:53:41.5370,0.45,0.01,1.16,1.24
2022-11-20 11:53:41.5490,0.33,-0.04,0.88,0.94
2022-11-20 11:53:41.5850,-0.01,-0.12,0.46,0.47
2022-11-20 11:53:41.5860,-0.48,-0.2,0.2,0.55
2022-11-20 11:53:41.5870,-0.55,-0.17,0.3,0.64
2022-11-20 11:53:41.6030,-0.2,-0.1,0.33,0.39
2022-11-20 11:53:41.6040,0.31,-0.03,0.34,0.46
2022-11-20 11:53:41.6170,0.81,-0.04,0.31,0.86
2022-11-20 11:53:41.6180,1.18,-0.07,0.28,1.21
2022-11-20 11:53:41.6320,1.19,-0.03,0.35,1.24
2022-11-20 11:53:41.6360,0.84,-0.03,0.65,1.06
2022-11-20 11:53:41.6490,0.45,-0.05,1.13,1.21
2022-11-20 11:53:41.6820,0.38,-0.02,1.86,1.89
2022-11-20 11:53:41.6840,0.78,0.11,2.42,2.54
2022-11-20 11:53:41.6850,1.05,0.34,2.57,2.79
2022-11-20 11:53:41.7030,0.83,0.41,2.48,2.64
2022-11-20 11:53:41.7040,0.37,0.0,2.57,2.59
2022-11-20 11:53:41.7160,-0.1,-0.74,3.51,3.58
2022-11-20 11:53:41.7170,-0.44,-1.17,4.21,4.39
2022-11-20 11:53:41.7320,-0.64,-1.08,4.69,4.85
2022-11-20 11:53:41.7360,-0.74,-0.76,5.33,5.43
2022-11-20 11:53:41.7490,-0.92,-0.45,5.47,5.56
2022-11-20 11:53:41.7840,-1.1,-0.16,5.26,5.37
2022-11-20 11:53:41.7850,-1.18,0.31,4.84,4.99
2022-11-20 11:53:41.7860,-1.02,0.85,4.04,4.25
2022-11-20 11:53:41.8030,-0.49,1.63,3.23,3.65
2022-11-20 11:53:41.8030,0.15,2.67,2.31,3.53
2022-11-20 11:53:41.8160,0.88,3.75,1.35,4.08
2022-11-20 11:53:41.8170,1.66,4.43,0.65,4.77
2022-11-20 11:53:41.8320,2.39,4.41,0.39,5.03
2022-11-20 11:53:41.8350,3.37,3.71,0.03,5.01
2022-11-20 11:53:41.8480,4.29,2.69,-0.51,5.08
2022-11-20 11:53:41.8830,4.83,2.04,-0.97,5.33
2022-11-20 11:53:41.8850,5.01,1.93,-1.3,5.52
2022-11-20 11:53:41.8860,4.93,2.09,-1.82,5.65
2022-11-20 11:53:41.9030,4.44,2.2,-2.17,5.4
2022-11-20 11:53:41.9040,3.7,2.05,-2.02,4.68
2022-11-20 11:53:41.9160,2.9,1.55,-1.23,3.51
2022-11-20 11:53:41.9170,2.18,0.65,-0.44,2.31
2022-11-20 11:53:41.9310,1.43,-0.25,0.17,1.46
2022-11-20 11:53:41.9340,0.8,-1.01,0.69,1.46
2022-11-20 11:53:41.9480,0.47,-1.63,0.95,1.94
2022-11-20 11:53:41.9550,0.49,-2.03,1.11,2.36
2022-11-20 11:53:41.9940,0.77,-2.23,1.01,2.56
2022-11-20 11:53:41.9950,1.25,-2.4,0.59,2.76
2022-11-20 11:53:41.9960,1.55,-2.53,0.0,2.96
2022-11-20 11:53:41.9980,1.67,-2.54,-0.7,3.11
2022-11-20 11:53:42.0040,1.76,-2.45,-1.39,3.32
2022-11-20 11:53:42.0140,1.96,-2.45,-2.03,3.73
2022-11-20 11:53:42.0240,2.22,-2.68,-2.6,4.34
2022-11-20 11:53:42.0340,2.79,-2.93,-3.0,5.03
2022-11-20 11:53:42.0440,3.29,-2.94,-4.03,5.97
2022-11-20 11:53:42.0540,3.17,-2.93,-5.61,7.07
2022-11-20 11:53:42.0860,3.02,-3.29,-6.75,8.09
2022-11-20 11:53:42.0870,3.41,-3.82,-7.22,8.85
2022-11-20 11:53:42.0880,3.98,-4.09,-7.29,9.25
2022-11-20 11:53:42.1020,4.26,-3.72,-7.32,9.25
2022-11-20 11:53:42.1030,3.75,-2.78,-7.43,8.77
2022-11-20 11:53:42.1140,2.19,-1.85,-7.31,7.85
2022-11-20 11:53:42.1230,0.19,-1.33,-4.71,4.89
2022-11-20 11:53:42.1330,-1.1,-0.16,0.07,1.11
2022-11-20 11:53:42.1430,-3.33,1.68,4.04,5.49
2022-11-20 11:53:42.1530,-5.05,3.58,6.4,8.9
2022-11-20 11:53:42.1860,-2.54,3.87,2.23,5.13
2022-11-20 11:53:42.1880,0.22,2.47,-2.72,3.68
2022-11-20 11:53:42.1880,-3.27,0.54,2.29,4.02
2022-11-20 11:53:42.2020,-6.81,1.34,-3.27,7.67
2022-11-20 11:53:42.2030,-5.97,2.09,-4.73,7.89
2022-11-20 11:53:42.2150,0.13,0.14,-0.81,0.83
2022-11-20 11:53:42.2230,2.19,-1.98,-0.34,2.97
2022-11-20 11:53:42.2320,1.19,-2.0,-4.01,4.63
2022-11-20 11:53:42.2430,2.33,-0.79,-8.61,8.95
2022-11-20 11:53:42.2530,6.18,-0.12,-8.42,10.44
2022-11-20 11:53:42.2840,10.12,0.63,-2.49,10.44
2022-11-20 11:53:42.2850,9.88,0.56,1.56,10.01
2022-11-20 11:53:42.2860,4.59,-0.24,1.75,4.91
2022-11-20 11:53:42.3010,-1.43,0.77,2.86,3.28
2022-11-20 11:53:42.3020,-5.45,1.89,3.52,6.75
2022-11-20 11:53:42.3150,-6.23,1.37,3.51,7.28
2022-11-20 11:53:42.3220,-4.13,0.19,2.79,4.98
2022-11-20 11:53:42.3320,-1.52,-0.41,2.27,2.76
2022-11-20 11:53:42.3420,0.27,-0.92,1.16,1.5
2022-11-20 11:53:42.3520,1.78,-1.08,0.78,2.22
2022-11-20 11:53:42.3900,2.69,-0.42,0.95,2.88
2022-11-20 11:53:42.3910,2.28,0.28,0.81,2.43
2022-11-20 11:53:42.3920,1.31,0.34,1.1,1.74
2022-11-20 11:53:42.3980,0.82,0.03,1.08,1.35
2022-11-20 11:53:42.4020,0.68,-0.02,0.74,1.0
2022-11-20 11:53:42.4150,0.43,0.04,0.69,0.81
2022-11-20 11:53:42.4210,0.03,-0.1,0.53,0.54
2022-11-20 11:53:42.4310,-0.17,-0.26,0.83,0.88
2022-11-20 11:53:42.4410,0.11,-0.32,1.32,1.36
2022-11-20 11:53:42.4510,0.58,-0.25,1.62,1.73
2022-11-20 11:53:42.4880,0.75,-0.08,1.78,1.93
2022-11-20 11:53:42.4890,0.7,0.05,1.94,2.06
2022-11-20 11:53:42.4900,0.86,-0.04,2.23,2.39
2022-11-20 11:53:42.5010,1.18,-0.19,2.84,3.08
2022-11-20 11:53:42.5010,1.19,-0.42,3.82,4.02
2022-11-20 11:53:42.5150,0.91,-0.66,4.86,4.98
2022-11-20 11:53:42.5210,0.67,-0.63,5.8,5.87
2022-11-20 11:53:42.5300,0.62,-0.23,6.21,6.24
2022-11-20 11:53:42.5410,0.46,0.14,6.24,6.25
2022-11-20 11:53:42.5500,0.38,0.36,6.76,6.78
2022-11-20 11:53:42.5890,1.47,0.8,7.73,7.9
2022-11-20 11:53:42.5900,3.21,2.2,7.69,8.61
2022-11-20 11:53:42.5910,3.85,4.23,7.33,9.29
2022-11-20 11:53:42.6000,3.97,5.81,6.59,9.64
2022-11-20 11:53:42.6000,3.88,6.53,6.0,9.67
2022-11-20 11:53:42.6150,3.84,6.88,5.39,9.54
2022-11-20 11:53:42.6200,3.93,6.6,3.36,8.38
2022-11-20 11:53:42.6300,4.28,5.92,0.61,7.33
2022-11-20 11:53:42.6400,4.83,5.2,-3.22,7.79
2022-11-20 11:53:42.6500,5.07,4.98,-6.37,9.54
2022-11-20 11:53:42.6900,5.07,4.96,-6.1,9.35
2022-11-20 11:53:42.6910,5.69,4.57,-4.86,8.76
2022-11-20 11:53:42.6920,6.33,4.0,-3.4,8.22
2022-11-20 11:53:42.6980,6.49,3.09,-1.64,7.37
2022-11-20 11:53:42.6990,5.93,2.39,-1.38,6.54
2022-11-20 11:53:42.7140,4.5,1.55,-2.24,5.26
2022-11-20 11:53:42.7190,3.19,0.49,-1.92,3.75
2022-11-20 11:53:42.7300,2.23,-0.28,-1.01,2.46
2022-11-20 11:53:42.7390,1.24,-0.87,-0.47,1.58
2022-11-20 11:53:42.7490,0.0,-1.44,0.22,1.45
2022-11-20 11:53:42.7590,-1.22,-2.17,1.45,2.88
2022-11-20 11:53:42.7920,-2.04,-3.0,2.75,4.55
2022-11-20 11:53:42.7930,-2.23,-3.58,3.35,5.38
2022-11-20 11:53:42.7940,-1.51,-3.97,2.81,5.09
2022-11-20 11:53:42.7990,-0.23,-3.77,1.66,4.12
2022-11-20 11:53:42.8090,1.14,-3.28,0.2,3.47
2022-11-20 11:53:42.8190,2.77,-2.77,-1.33,4.13
2022-11-20 11:53:42.8290,4.56,-2.23,-2.34,5.58
2022-11-20 11:53:42.8390,6.1,-1.87,-3.44,7.24
2022-11-20 11:53:42.8490,7.24,-1.95,-4.79,8.89
2022-11-20 11:53:42.8580,7.92,-2.58,-5.63,10.05
2022-11-20 11:53:42.8920,7.66,-3.55,-5.77,10.22
2022-11-20 11:53:42.8930,6.34,-4.27,-5.15,9.21
2022-11-20 11:53:42.8940,4.74,-4.44,-4.47,7.88
2022-11-20 11:53:42.9170,3.63,-4.45,-3.44,6.69
2022-11-20 11:53:42.9180,3.16,-4.55,-2.72,6.17
2022-11-20 11:53:42.9300,3.23,-4.69,-2.49,6.21
2022-11-20 11:53:42.9310,3.59,-4.81,-3.35,6.87
2022-11-20 11:53:42.9460,4.51,-4.77,-4.65,8.04
2022-11-20 11:53:42.9480,5.41,-5.01,-4.66,8.72
2022-11-20 11:53:42.9630,6.53,-5.35,-4.32,9.48
2022-11-20 11:53:42.9910,6.91,-5.3,-4.24,9.68
2022-11-20 11:53:42.9920,5.75,-4.92,-4.72,8.91
2022-11-20 11:53:42.9930,3.64,-4.09,-4.8,7.28
2022-11-20 11:53:42.9980,1.57,-2.91,-4.96,5.96
2022-11-20 11:53:43.0070,-0.38,-2.23,-4.48,5.01
2022-11-20 11:53:43.0180,-2.07,-2.55,-3.44,4.75
2022-11-20 11:53:43.0270,-3.19,-3.56,-2.6,5.44
2022-11-20 11:53:43.0370,-3.64,-4.64,-1.85,6.18
2022-11-20 11:53:43.0470,-3.38,-5.06,-1.43,6.25
2022-11-20 11:53:43.0570,-2.39,-4.68,-1.53,5.47
2022-11-20 11:53:43.0890,-1.01,-3.64,-2.57,4.56
2022-11-20 11:53:43.0910,0.02,-2.69,-2.92,3.97
2022-11-20 11:53:43.0910,0.87,-2.17,-2.18,3.19
2022-11-20 11:53:43.0970,1.03,-2.33,-1.97,3.22
2022-11-20 11:53:43.1130,0.87,-2.89,-2.07,3.65
2022-11-20 11:53:43.1170,0.8,-3.16,-2.2,3.93
2022-11-20 11:53:43.1290,0.28,-2.71,-2.11,3.44
2022-11-20 11:53:43.1370,-1.31,-1.83,-2.45,3.32
2022-11-20 11:53:43.1460,-2.22,-0.45,2.19,3.15
2022-11-20 11:53:43.1570,0.43,0.89,-1.57,1.85
2022-11-20 11:53:43.1950,-0.19,0.74,-6.61,6.65
2022-11-20 11:53:43.1960,-2.56,3.09,2.25,4.6
2022-11-20 11:53:43.1970,-4.86,10.11,5.06,12.3
2022-11-20 11:53:43.2160,-2.07,16.96,4.42,17.64
2022-11-20 11:53:43.2160,2.0,13.38,2.2,13.7
2022-11-20 11:53:43.2290,1.49,4.81,-1.01,5.13
2022-11-20 11:53:43.2300,0.5,1.03,4.93,5.06
2022-11-20 11:53:43.2450,-4.71,10.53,14.28,18.35
2022-11-20 11:53:43.2460,-15.55,27.14,6.85,32.02
2022-11-20 11:53:43.2620,-12.46,18.74,1.74,22.57
2022-11-20 11:53:43.2920,-5.09,2.74,0.31,5.78
2022-11-20 11:53:43.2930,-1.06,-4.08,-2.39,4.84
2022-11-20 11:53:43.2930,2.24,-8.73,-4.37,10.01
2022-11-20 11:53:43.3150,5.18,-11.22,-7.79,14.6
2022-11-20 11:53:43.3160,6.82,-10.94,-9.71,16.13
2022-11-20 11:53:43.3290,7.39,-7.03,-9.0,13.6
2022-11-20 11:53:43.3300,5.51,-0.06,-8.28,9.94
2022-11-20 11:53:43.3450,2.26,6.54,-8.81,11.2
2022-11-20 11:53:43.3460,0.96,10.11,-6.57,12.09
2022-11-20 11:53:43.3620,1.34,8.26,-2.32,8.68
2022-11-20 11:53:43.3920,0.96,3.41,0.69,3.6
2022-11-20 11:53:43.3940,-0.68,-0.23,2.67,2.76
2022-11-20 11:53:43.3950,-2.87,-1.83,3.97,5.22
2022-11-20 11:53:43.4150,-5.04,-2.2,4.81,7.3
2022-11-20 11:53:43.4160,-6.04,-2.1,4.86,8.03
2022-11-20 11:53:43.4290,-5.59,-1.84,3.41,6.8
2022-11-20 11:53:43.4300,-3.87,-1.39,2.05,4.59
2022-11-20 11:53:43.4450,-1.94,-0.62,1.72,2.66
2022-11-20 11:53:43.4460,-0.17,0.31,1.48,1.52
2022-11-20 11:53:43.4610,1.25,0.89,1.13,1.9
2022-11-20 11:53:43.4920,2.04,0.58,0.84,2.28
2022-11-20 11:53:43.4930,2.3,-0.53,0.93,2.53
2022-11-20 11:53:43.4940,2.21,-1.63,1.82,3.29
2022-11-20 11:53:43.4950,1.81,-2.04,2.3,3.56
2022-11-20 11:53:43.5040,1.11,-1.81,2.36,3.17
2022-11-20 11:53:43.5140,0.4,-1.35,2.52,2.88
2022-11-20 11:53:43.5240,-0.32,-0.98,2.55,2.75
2022-11-20 11:53:43.5340,-0.78,-0.66,2.28,2.49
2022-11-20 11:53:43.5440,-0.76,-0.29,1.43,1.64
2022-11-20 11:53:43.5540,-0.45,0.13,1.3,1.38
2022-11-20 11:53:43.5640,-0.52,0.73,1.49,1.73
2022-11-20 11:53:43.5970,-1.38,0.91,1.0,1.93
2022-11-20 11:53:43.5980,-2.55,0.45,1.24,2.87
2022-11-20 11:53:43.5990,-3.38,-0.2,1.68,3.77
2022-11-20 11:53:43.6150,-3.93,-0.94,1.35,4.26
2022-11-20 11:53:43.6160,-3.82,-1.86,0.74,4.31
2022-11-20 11:53:43.6280,-2.88,-3.06,0.84,4.28
2022-11-20 11:53:43.6330,-1.36,-3.68,1.25,4.11
2022-11-20 11:53:43.6440,-0.07,-2.55,0.47,2.59
2022-11-20 11:53:43.6530,0.5,-0.47,-0.66,0.95
2022-11-20 11:53:43.6630,1.03,1.76,0.12,2.04
2022-11-20 11:53:43.6970,1.1,3.75,0.31,3.92
2022-11-20 11:53:43.6980,0.37,5.07,0.33,5.09
2022-11-20 11:53:43.6990,-0.19,5.08,1.21,5.22
2022-11-20 11:53:43.7140,-1.13,3.98,1.3,4.33
2022-11-20 11:53:43.7150,-2.23,2.33,0.82,3.32
2022-11-20 11:53:43.7280,-2.85,1.28,1.09,3.3
2022-11-20 11:53:43.7330,-3.19,2.1,0.96,3.93
2022-11-20 11:53:43.7440,-3.13,4.47,-0.09,5.45
2022-11-20 11:53:43.7530,-2.43,8.2,-1.04,8.61
2022-11-20 11:53:43.7630,-1.87,13.29,-2.08,13.58
2022-11-20 11:53:43.7960,-1.89,18.13,-2.77,18.43
2022-11-20 11:53:43.7970,-1.27,19.35,-2.84,19.59
2022-11-20 11:53:43.7980,0.58,14.19,-1.71,14.3
2022-11-20 11:53:43.8130,1.55,8.74,-0.74,8.9
2022-11-20 11:53:43.8140,1.81,6.54,-0.92,6.84
2022-11-20 11:53:43.8280,2.19,4.95,-1.42,5.59
2022-11-20 11:53:43.8320,2.87,2.26,-0.61,3.7
2022-11-20 11:53:43.8440,3.48,-1.11,-0.6,3.7
2022-11-20 11:53:43.8520,3.39,-4.46,-2.76,6.24
2022-11-20 11:53:43.8620,2.64,-8.75,-3.69,9.85
2022-11-20 11:53:43.8950,0.75,-12.95,-3.54,13.44
2022-11-20 11:53:43.8960,-2.18,-14.15,-0.94,14.34
2022-11-20 11:53:43.8960,-4.1,-8.13,3.44,9.73
2022-11-20 11:53:43.9110,-3.96,-2.55,8.08,9.35
2022-11-20 11:53:43.9120,-2.85,-0.68,9.89,10.31
2022-11-20 11:53:43.9270,-2.35,-1.37,8.28,8.71
2022-11-20 11:53:43.9310,-3.18,-3.29,4.46,6.38
2022-11-20 11:53:43.9430,-3.45,-5.52,0.62,6.53
2022-11-20 11:53:43.9510,-2.0,-7.01,-1.43,7.42
2022-11-20 11:53:43.9610,0.22,-7.53,-1.87,7.76
2022-11-20 11:53:43.9990,2.15,-7.32,-0.96,7.68
2022-11-20 11:53:44.0000,3.18,-6.64,-0.12,7.36
2022-11-20 11:53:44.0010,3.45,-5.96,-0.53,6.9
2022-11-20 11:53:44.0020,3.47,-5.76,-1.88,6.98
2022-11-20 11:53:44.0110,3.3,-6.05,-3.77,7.85
2022-11-20 11:53:44.0210,3.05,-6.87,-5.27,9.17
2022-11-20 11:53:44.0310,2.98,-7.77,-5.95,10.23
2022-11-20 11:53:44.0410,3.04,-8.17,-6.09,10.63
2022-11-20 11:53:44.0510,3.14,-7.69,-6.02,10.25
2022-11-20 11:53:44.0610,3.52,-6.29,-6.1,9.44
2022-11-20 11:53:44.0990,3.94,-4.61,-6.01,8.53
2022-11-20 11:53:44.1000,3.67,-3.06,-5.29,7.12
2022-11-20 11:53:44.1000,2.62,-1.62,-4.18,5.19
2022-11-20 11:53:44.1100,1.21,-0.16,-3.34,3.55
2022-11-20 11:53:44.1110,-0.24,1.22,-2.77,3.03
2022-11-20 11:53:44.1260,-1.47,2.25,-1.86,3.26
2022-11-20 11:53:44.1300,-2.08,2.6,-1.47,3.63
2022-11-20 11:53:44.1420,-1.69,2.0,-0.11,2.62
2022-11-20 11:53:44.1500,-0.56,1.52,0.57,1.71
2022-11-20 11:53:44.1600,0.51,1.69,0.73,1.91
2022-11-20 11:53:44.1970,0.87,0.88,1.07,1.63
2022-11-20 11:53:44.1980,1.31,-1.19,1.81,2.53
2022-11-20 11:53:44.1990,1.49,-2.98,1.75,3.76
2022-11-20 11:53:44.2090,0.59,-3.47,0.25,3.52
2022-11-20 11:53:44.2100,-0.51,-2.74,0.58,2.84
2022-11-20 11:53:44.2260,1.44,-0.96,-0.34,1.76
2022-11-20 11:53:44.2300,1.48,0.11,-8.16,8.29
2022-11-20 11:53:44.2420,-2.37,2.24,-1.05,3.42
2022-11-20 11:53:44.2490,-3.95,10.06,5.64,12.19
2022-11-20 11:53:44.2590,0.31,17.41,4.43,17.96
2022-11-20 11:53:44.2970,4.73,14.27,4.65,15.73
2022-11-20 11:53:44.2980,4.2,5.63,-1.2,7.12
2022-11-20 11:53:44.2990,3.04,0.51,0.31,3.09
2022-11-20 11:53:44.3120,0.27,-1.93,0.97,2.17
2022-11-20 11:53:44.3130,-2.51,-1.21,1.17,3.02
2022-11-20 11:53:44.3270,-5.94,6.69,5.18,10.33
2022-11-20 11:53:44.3290,-10.01,18.24,2.76,20.98
2022-11-20 11:53:44.3430,-7.5,15.62,0.14,17.32
2022-11-20 11:53:44.3490,-1.86,4.87,2.15,5.63
2022-11-20 11:53:44.3590,1.5,-0.91,0.09,1.75
2022-11-20 11:53:44.3690,4.18,-4.21,-3.58,6.92
2022-11-20 11:53:44.4040,5.69,-5.94,-7.06,10.83
2022-11-20 11:53:44.4050,5.51,-6.33,-8.51,11.95
2022-11-20 11:53:44.4060,4.11,-5.49,-8.23,10.71
2022-11-20 11:53:44.4080,2.63,-3.41,-7.7,8.82
2022-11-20 11:53:44.4260,2.0,-0.86,-6.44,6.79
2022-11-20 11:53:44.4280,1.84,1.65,-3.9,4.61
2022-11-20 11:53:44.4420,1.22,3.66,-0.79,3.93
2022-11-20 11:53:44.4480,-0.15,4.16,2.03,4.63
2022-11-20 11:53:44.4590,-1.74,3.08,4.14,5.44
2022-11-20 11:53:44.4680,-2.86,1.59,5.56,6.45
2022-11-20 11:53:44.5030,-3.9,0.35,7.0,8.02
2022-11-20 11:53:44.5040,-4.62,-0.58,7.41,8.75
2022-11-20 11:53:44.5050,-4.3,-1.4,6.74,8.11
2022-11-20 11:53:44.5080,-3.26,-1.51,5.59,6.64
2022-11-20 11:53:44.5250,-2.15,-1.13,3.97,4.65
2022-11-20 11:53:44.5280,-1.3,-1.02,2.5,2.99
2022-11-20 11:53:44.5420,-0.71,-1.16,1.02,1.7
2022-11-20 11:53:44.5480,-0.2,-1.36,1.15,1.79
2022-11-20 11:53:44.5590,0.3,-1.25,1.35,1.86
2022-11-20 11:53:44.5670,0.01,-1.15,-0.22,1.17
2022-11-20 11:53:44.6030,-0.54,-1.37,-0.92,1.73
2022-11-20 11:53:44.6040,-0.75,-1.6,-0.35,1.8
2022-11-20 11:53:44.6050,-0.76,-1.6,0.64,1.88
2022-11-20 11:53:44.6080,-0.44,-0.89,2.71,2.88
2022-11-20 11:53:44.6260,0.07,0.4,3.49,3.51
2022-11-20 11:53:44.6270,-0.04,0.61,1.37,1.5
2022-11-20 11:53:44.6430,-0.17,-0.56,0.7,0.91
2022-11-20 11:53:44.6470,-0.44,-2.27,0.6,2.38
2022-11-20 11:53:44.6580,-0.59,-3.61,-0.18,3.66
2022-11-20 11:53:44.6670,-0.04,-3.53,-1.18,3.72
2022-11-20 11:53:44.7030,0.75,-2.19,-1.19,2.6
2022-11-20 11:53:44.7040,0.98,0.14,0.14,0.99
2022-11-20 11:53:44.7040,0.42,2.91,0.63,3.0
2022-11-20 11:53:44.7070,-0.43,4.48,-0.01,4.5
2022-11-20 11:53:44.7260,-0.34,3.76,0.2,3.78
2022-11-20 11:53:44.7270,0.08,1.56,0.33,1.59
2022-11-20 11:53:44.7420,-0.19,0.52,-0.11,0.56
2022-11-20 11:53:44.7460,-0.97,2.29,-0.2,2.49
2022-11-20 11:53:44.7580,-1.83,5.27,-0.28,5.58
2022-11-20 11:53:44.7660,-2.66,8.35,-1.3,8.85
2022-11-20 11:53:44.8040,-3.01,10.18,-1.82,10.77
2022-11-20 11:53:44.8050,-2.79,9.66,-1.61,10.18
2022-11-20 11:53:44.8060,-1.95,8.23,-1.8,8.64
2022-11-20 11:53:44.8070,-0.94,8.19,-2.46,8.6
2022-11-20 11:53:44.8160,-0.01,8.56,-2.44,8.9
2022-11-20 11:53:44.8260,0.77,8.43,-1.67,8.62
2022-11-20 11:53:44.8360,1.52,8.1,-1.57,8.38
2022-11-20 11:53:44.8460,2.66,7.94,-2.44,8.72
2022-11-20 11:53:44.8560,4.23,5.97,-2.69,7.79
2022-11-20 11:53:44.8660,5.34,1.97,-1.52,5.89
2022-11-20 11:53:44.9030,4.72,-1.1,-1.73,5.14
2022-11-20 11:53:44.9040,3.67,-3.7,-2.68,5.86
2022-11-20 11:53:44.9050,2.59,-6.6,-2.91,7.66
2022-11-20 11:53:44.9070,0.85,-8.97,-2.69,9.4
2022-11-20 11:53:44.9150,-2.11,-8.58,-1.24,8.92
2022-11-20 11:53:44.9250,-4.41,-5.46,1.92,7.27
2022-11-20 11:53:44.9350,-5.38,-2.32,5.75,8.2
2022-11-20 11:53:44.9450,-5.27,-0.38,7.51,9.18
2022-11-20 11:53:44.9550,-4.8,-0.19,6.97,8.46
2022-11-20 11:53:44.9650,-4.66,-1.36,5.64,7.44
2022-11-20 11:53:45.0020,-4.62,-3.15,3.95,6.84
2022-11-20 11:53:45.0030,-4.16,-4.7,2.99,6.95
2022-11-20 11:53:45.0040,-2.95,-5.41,2.53,6.66
2022-11-20 11:53:45.0080,-1.29,-5.37,2.11,5.91
2022-11-20 11:53:45.0250,0.34,-4.92,1.55,5.16
2022-11-20 11:53:45.0260,1.64,-4.41,0.31,4.71
2022-11-20 11:53:45.0410,2.7,-4.14,-1.09,5.06
2022-11-20 11:53:45.0440,3.38,-4.08,-1.95,5.64
2022-11-20 11:53:45.0570,3.88,-4.06,-2.66,6.21
2022-11-20 11:53:45.0640,4.37,-4.17,-3.26,6.86
2022-11-20 11:53:45.1030,4.72,-4.58,-3.46,7.43
2022-11-20 11:53:45.1030,4.48,-4.97,-3.48,7.54
2022-11-20 11:53:45.1040,3.79,-4.97,-3.44,7.13
2022-11-20 11:53:45.1070,3.17,-4.51,-4.1,6.87
2022-11-20 11:53:45.1140,2.94,-3.96,-5.01,7.03
2022-11-20 11:53:45.1240,3.16,-3.78,-5.3,7.23
2022-11-20 11:53:45.1340,3.58,-3.76,-5.43,7.51
2022-11-20 11:53:45.1440,3.72,-3.24,-4.52,6.69
2022-11-20 11:53:45.1540,3.31,-1.72,-3.17,4.89
2022-11-20 11:53:45.1640,2.32,-0.03,-2.35,3.3
2022-11-20 11:53:45.1740,0.85,0.65,-2.84,3.03
2022-11-20 11:53:45.2060,-0.64,0.1,-3.06,3.12
2022-11-20 11:53:45.2070,-1.86,-1.13,-2.11,3.03
2022-11-20 11:53:45.2080,-2.56,-2.16,-1.05,3.51
2022-11-20 11:53:45.2270,-2.35,-2.23,-0.5,3.27
2022-11-20 11:53:45.2270,-0.96,-0.97,-0.63,1.5
2022-11-20 11:53:45.2410,0.95,0.74,-0.91,1.5
2022-11-20 11:53:45.2430,2.19,0.86,-0.77,2.47
2022-11-20 11:53:45.2570,2.59,-0.54,-0.26,2.65
2022-11-20 11:53:45.2630,2.5,-2.02,0.48,3.24
2022-11-20 11:53:45.2730,1.96,-2.56,1.15,3.42
2022-11-20 11:53:45.3070,1.22,-2.11,1.23,2.73
2022-11-20 11:53:45.3080,0.26,-1.21,0.65,1.39
2022-11-20 11:53:45.3080,-0.93,-0.39,0.25,1.03
2022-11-20 11:53:45.3270,-2.22,-0.13,-0.19,2.23
2022-11-20 11:53:45.3280,-1.77,0.6,3.58,4.03
2022-11-20 11:53:45.3410,0.77,0.82,-3.61,3.78
2022-11-20 11:53:45.3420,-0.13,0.8,-4.07,4.14
2022-11-20 11:53:45.3570,-1.13,6.38,5.69,8.62
2022-11-20 11:53:45.3620,-1.71,14.41,4.11,15.08
2022-11-20 11:53:45.3730,1.66,16.46,4.45,17.13
2022-11-20 11:53:45.4050,3.63,9.38,4.67,11.08
2022-11-20 11:53:45.4060,2.22,3.34,4.75,6.21
2022-11-20 11:53:45.4070,-0.49,1.53,2.97,3.37
2022-11-20 11:53:45.4270,-3.75,2.35,-0.05,4.42
2022-11-20 11:53:45.4280,-7.18,5.43,0.34,9.0
2022-11-20 11:53:45.4410,-6.18,7.47,-0.64,9.71
2022-11-20 11:53:45.4420,-1.72,5.46,-1.19,5.84
2022-11-20 11:53:45.4560,0.71,2.74,-2.16,3.56
2022-11-20 11:53:45.4620,1.59,0.43,-3.9,4.23
2022-11-20 11:53:45.4730,2.27,-1.76,-6.21,6.84
2022-11-20 11:53:45.5060,3.58,-3.2,-6.97,8.46
2022-11-20 11:53:45.5070,4.82,-3.29,-6.69,8.87
2022-11-20 11:53:45.5080,4.97,-2.22,-6.31,8.33
2022-11-20 11:53:45.5270,3.77,-0.79,-6.05,7.17
2022-11-20 11:53:45.5270,1.91,0.4,-4.59,4.98
2022-11-20 11:53:45.5410,0.61,1.24,-1.93,2.37
2022-11-20 11:53:45.5410,-0.02,1.72,0.83,1.9
2022-11-20 11:53:45.5560,-0.51,1.8,2.91,3.45
2022-11-20 11:53:45.5610,-1.33,1.59,4.2,4.68
2022-11-20 11:53:45.5720,-2.25,1.0,4.33,4.98
2022-11-20 11:53:45.6100,-2.7,-0.04,4.07,4.88
2022-11-20 11:53:45.6110,-2.61,-1.18,4.18,5.06
2022-11-20 11:53:45.6120,-2.27,-2.09,4.02,5.06
2022-11-20 11:53:45.6250,-1.77,-2.48,3.7,4.79
2022-11-20 11:53:45.6260,-1.11,-2.17,3.43,4.2
2022-11-20 11:53:45.6400,-0.51,-1.36,3.25,3.55
2022-11-20 11:53:45.6410,-0.14,-0.18,2.97,2.97
2022-11-20 11:53:45.6560,-0.06,0.73,1.98,2.11
2022-11-20 11:53:45.6600,-0.13,0.56,0.55,0.79
2022-11-20 11:53:45.6720,-0.17,-0.71,-0.02,0.73
2022-11-20 11:53:45.7100,0.35,-2.38,0.99,2.6
2022-11-20 11:53:45.7110,1.24,-3.06,2.43,4.09
2022-11-20 11:53:45.7120,1.45,-1.85,2.2,3.21
2022-11-20 11:53:45.7250,0.86,-0.34,1.53,1.78
2022-11-20 11:53:45.7260,0.11,0.16,1.33,1.34
2022-11-20 11:53:45.7400,-0.57,-0.45,1.17,1.37
2022-11-20 11:53:45.7410,-1.17,-1.4,1.19,2.17
2022-11-20 11:53:45.7560,-1.47,-1.41,0.66,2.14
2022-11-20 11:53:45.7600,-1.47,-0.86,-0.02,1.7
2022-11-20 11:53:45.7720,-1.14,-0.49,0.46,1.32
2022-11-20 11:53:45.8080,-0.58,-0.25,1.02,1.19
2022-11-20 11:53:45.8090,-0.05,-0.36,0.16,0.39
2022-11-20 11:53:45.8090,0.54,-0.9,-0.48,1.15
2022-11-20 11:53:45.8250,0.89,-1.6,-0.2,1.84
2022-11-20 11:53:45.8260,0.68,-2.08,0.11,2.19
2022-11-20 11:53:45.8400,-0.06,-1.71,-0.06,1.71
2022-11-20 11:53:45.8410,-0.71,-0.59,0.25,0.95
2022-11-20 11:53:45.8550,-0.76,0.71,0.49,1.14
2022-11-20 11:53:45.8590,-0.29,1.93,0.31,1.97
2022-11-20 11:53:45.8720,0.49,3.15,0.4,3.21
2022-11-20 11:53:45.9070,0.93,4.4,0.19,4.5
2022-11-20 11:53:45.9080,0.79,5.52,-0.75,5.62
2022-11-20 11:53:45.9090,0.57,6.46,-2.03,6.79
2022-11-20 11:53:45.9250,0.29,7.36,-2.58,7.8
2022-11-20 11:53:45.9250,-0.37,8.75,-2.77,9.18
2022-11-20 11:53:45.9390,-1.27,10.59,-3.57,11.24
2022-11-20 11:53:45.9400,-1.51,11.97,-3.75,12.63
2022-11-20 11:53:45.9550,-1.2,12.53,-2.95,12.92
2022-11-20 11:53:45.9580,-1.16,12.6,-2.17,12.83
2022-11-20 11:53:45.9720,-0.95,11.61,-1.08,11.69
2022-11-20 11:53:45.9780,-0.09,9.99,-0.01,9.99
2022-11-20 11:53:46.0180,1.68,7.96,0.18,8.13
2022-11-20 11:53:46.0190,3.32,5.88,0.81,6.8
2022-11-20 11:53:46.0200,4.28,3.74,1.7,5.93
2022-11-20 11:53:46.0420,4.86,0.76,2.36,5.45
2022-11-20 11:53:46.0430,4.33,-3.61,2.04,5.99
2022-11-20 11:53:46.0560,2.84,-7.46,0.53,7.99
2022-11-20 11:53:46.0570,1.23,-9.44,-0.35,9.52
2022-11-20 11:53:46.0710,-0.36,-8.72,1.49,8.85
2022-11-20 11:53:46.0710,-2.25,-4.73,5.98,7.94
2022-11-20 11:53:46.0880,-3.5,-1.19,10.05,10.7
2022-11-20 11:53:46.1180,-3.57,0.46,9.53,10.18
2022-11-20 11:53:46.1190,-3.28,0.02,6.75,7.5
2022-11-20 11:53:46.1420,-3.37,-2.0,4.75,6.15
2022-11-20 11:53:46.1430,-3.01,-4.42,2.98,6.12
2022-11-20 11:53:46.1560,-1.63,-6.35,1.9,6.82
2022-11-20 11:53:46.1570,0.67,-7.09,1.3,7.23
2022-11-20 11:53:46.1710,2.76,-6.45,0.31,7.02
2022-11-20 11:53:46.1720,3.87,-5.12,-0.91,6.48
2022-11-20 11:53:46.1860,4.26,-3.96,-1.81,6.09
2022-11-20 11:53:46.1870,4.17,-3.51,-2.33,5.92
2022-11-20 11:53:46.2170,4.01,-3.75,-2.91,6.21
2022-11-20 11:53:46.2170,4.0,-4.45,-3.28,6.82
2022-11-20 11:53:46.2210,3.82,-5.46,-3.73,7.63
2022-11-20 11:53:46.2380,3.28,-6.15,-4.19,8.13
2022-11-20 11:53:46.2390,2.87,-6.27,-4.49,8.22
2022-11-20 11:53:46.2550,2.75,-5.75,-5.47,8.39
2022-11-20 11:53:46.2550,2.6,-4.56,-6.07,8.02
2022-11-20 11:53:46.2700,2.8,-2.59,-6.13,7.21
2022-11-20 11:53:46.2710,3.1,-0.55,-6.11,6.87
2022-11-20 11:53:46.2880,2.49,0.45,-6.09,6.59
2022-11-20 11:53:46.3170,1.28,0.51,-5.54,5.7
2022-11-20 11:53:46.3180,-0.02,0.52,-4.46,4.49
2022-11-20 11:53:46.3380,-1.14,0.37,-2.9,3.13
2022-11-20 11:53:46.3380,-1.85,-0.02,-2.01,2.73
2022-11-20 11:53:46.3540,-1.85,-0.26,-2.0,2.73
2022-11-20 11:53:46.3540,-1.22,-0.14,-1.84,2.21
2022-11-20 11:53:46.3700,-0.48,0.29,-1.08,1.21
2022-11-20 11:53:46.3710,0.08,0.11,-0.06,0.14
2022-11-20 11:53:46.3860,0.08,-0.53,1.21,1.32
2022-11-20 11:53:46.3870,-0.55,-0.81,1.97,2.19
2022-11-20 11:53:46.4160,-1.16,-0.89,2.51,2.9
2022-11-20 11:53:46.4160,-1.15,-1.2,3.05,3.47
2022-11-20 11:53:46.4200,-1.41,-1.68,-0.55,2.26
2022-11-20 11:53:46.4370,-4.96,-2.56,-6.27,8.39
2022-11-20 11:53:46.4380,-10.62,-3.8,-5.75,12.66
2022-11-20 11:53:46.4530,-7.32,-0.52,-1.09,7.41
2022-11-20 11:53:46.4540,13.0,10.42,3.59,17.04
2022-11-20 11:53:46.4690,21.89,18.2,9.17,29.9
2022-11-20 11:53:46.4700,9.51,17.2,1.8,19.73
2022-11-20 11:53:46.4850,0.95,11.62,-1.77,11.79
2022-11-20 11:53:46.5150,-1.98,6.35,6.01,8.96
2022-11-20 11:53:46.5150,-8.15,3.85,4.34,10.0
2022-11-20 11:53:46.5200,-9.82,6.68,1.27,11.94
2022-11-20 11:53:46.5210,-4.72,8.22,1.17,9.55
2022-11-20 11:53:46.5390,-0.04,5.38,0.93,5.45
2022-11-20 11:53:46.5390,2.7,2.3,0.55,3.58
2022-11-20 11:53:46.5520,4.41,-1.22,-2.56,5.24
2022-11-20 11:53:46.5540,4.67,-4.1,-6.41,8.92
2022-11-20 11:53:46.5710,3.93,-5.26,-8.28,10.56
2022-11-20 11:53:46.5750,3.57,-4.9,-8.45,10.39
2022-11-20 11:53:46.6150,4.09,-3.18,-7.75,9.32
2022-11-20 11:53:46.6160,4.19,-0.03,-7.14,8.27
2022-11-20 11:53:46.6170,3.25,3.51,-5.64,7.39
2022-11-20 11:53:46.6190,1.73,5.75,-3.2,6.8
2022-11-20 11:53:46.6380,0.1,5.42,-0.8,5.47
2022-11-20 11:53:46.6380,-1.04,2.89,0.37,3.09
2022-11-20 11:53:46.6530,-1.82,0.19,0.93,2.05
2022-11-20 11:53:46.6540,-2.56,-1.58,1.13,3.21
2022-11-20 11:53:46.6700,-3.18,-2.45,1.24,4.2
2022-11-20 11:53:46.6740,-3.29,-2.7,1.56,4.53
2022-11-20 11:53:46.7160,-2.04,-1.94,1.76,3.32
2022-11-20 11:53:46.7170,-0.2,-0.46,1.95,2.01
2022-11-20 11:53:46.7180,1.2,0.92,1.56,2.17
2022-11-20 11:53:46.7190,1.79,1.52,0.17,2.35
2022-11-20 11:53:46.7230,1.75,1.02,-0.78,2.17
2022-11-20 11:53:46.7330,1.48,-0.18,-0.97,1.77
2022-11-20 11:53:46.7430,1.2,-1.17,-0.58,1.77
2022-11-20 11:53:46.7530,1.09,-1.58,-0.02,1.91
2022-11-20 11:53:46.7630,1.42,-1.29,0.4,1.95
2022-11-20 11:53:46.7730,1.64,-0.41,0.58,1.78
2022-11-20 11:53:46.7830,1.46,0.6,0.3,1.6
2022-11-20 11:53:46.8170,1.01,1.13,-0.33,1.55
2022-11-20 11:53:46.8170,0.56,1.08,-0.55,1.33
2022-11-20 11:53:46.8180,0.09,0.69,-0.56,0.89
2022-11-20 11:53:46.8390,-0.38,0.11,-0.16,0.42
2022-11-20 11:53:46.8400,-0.58,-0.39,0.27,0.74
2022-11-20 11:53:46.8540,-0.38,-0.47,-0.06,0.6
2022-11-20 11:53:46.8540,-0.02,-0.15,0.01,0.15
2022-11-20 11:53:46.8690,0.19,0.24,0.14,0.33
2022-11-20 11:53:46.8730,0.26,0.28,0.27,0.46
2022-11-20 11:53:46.8860,0.48,0.23,0.52,0.74
2022-11-20 11:53:46.9170,0.73,0.21,0.82,1.11
2022-11-20 11:53:46.9180,0.59,0.06,1.46,1.57
2022-11-20 11:53:46.9190,0.43,-0.3,1.86,1.93
2022-11-20 11:53:46.9390,0.55,-0.65,2.37,2.51
2022-11-20 11:53:46.9400,0.8,-0.68,2.98,3.15
2022-11-20 11:53:46.9540,0.75,-0.45,3.45,3.55
2022-11-20 11:53:46.9540,0.59,-0.19,3.76,3.81
2022-11-20 11:53:46.9690,0.72,-0.02,4.14,4.2
2022-11-20 11:53:46.9720,0.75,-0.02,4.04,4.1
2022-11-20 11:53:46.9860,0.32,-0.11,3.93,3.94
2022-11-20 11:53:47.0180,-0.16,-0.3,4.63,4.64
2022-11-20 11:53:47.0190,-0.44,-0.65,5.68,5.73
2022-11-20 11:53:47.0190,-0.19,-0.77,7.01,7.05
2022-11-20 11:53:47.0390,0.64,-0.15,8.31,8.33
2022-11-20 11:53:47.0400,0.96,0.83,8.79,8.88
2022-11-20 11:53:47.0550,0.02,1.86,9.4,9.58
2022-11-20 11:53:47.0560,-0.73,2.88,10.84,11.23
2022-11-20 11:53:47.0690,0.29,4.1,10.98,11.72
2022-11-20 11:53:47.0710,2.18,5.88,9.34,11.24
2022-11-20 11:53:47.0860,3.24,8.13,6.39,10.83
2022-11-20 11:53:47.1160,3.82,10.22,3.46,11.44
2022-11-20 11:53:47.1170,5.29,10.94,-0.14,12.15
2022-11-20 11:53:47.1180,7.38,10.06,-2.67,12.75
2022-11-20 11:53:47.1390,9.79,8.14,-3.51,13.2
2022-11-20 11:53:47.1390,11.9,5.44,-6.31,14.52
2022-11-20 11:53:47.1530,13.05,3.78,-8.21,15.87
2022-11-20 11:53:47.1540,13.74,3.26,-10.25,17.44
2022-11-20 11:53:47.1690,13.47,3.18,-10.84,17.58
2022-11-20 11:53:47.1710,12.27,3.22,-9.69,15.96
2022-11-20 11:53:47.1850,9.71,3.5,-8.76,13.53
2022-11-20 11:53:47.2210,7.05,3.85,-7.86,11.23
2022-11-20 11:53:47.2220,5.26,3.93,-6.16,9.0
2022-11-20 11:53:47.2220,4.19,3.34,-4.31,6.87
2022-11-20 11:53:47.2390,3.52,1.92,-2.98,4.99
2022-11-20 11:53:47.2400,3.23,0.11,-2.22,3.92
2022-11-20 11:53:47.2530,3.56,-1.48,-1.6,4.17
2022-11-20 11:53:47.2540,4.3,-2.47,-1.22,5.1
2022-11-20 11:53:47.2680,5.04,-3.03,-1.21,6.0
2022-11-20 11:53:47.2700,5.67,-3.19,-1.31,6.63
2022-11-20 11:53:47.2850,6.15,-2.96,-1.12,6.91
2022-11-20 11:53:47.3190,6.36,-2.69,-0.56,6.92
2022-11-20 11:53:47.3200,6.34,-2.71,0.15,6.89
2022-11-20 11:53:47.3210,6.05,-3.05,0.58,6.8
2022-11-20 11:53:47.3380,5.85,-3.94,0.9,7.11
2022-11-20 11:53:47.3390,5.67,-5.22,0.78,7.74
2022-11-20 11:53:47.3530,4.97,-6.3,0.39,8.03
2022-11-20 11:53:47.3540,3.88,-6.85,0.08,7.87
2022-11-20 11:53:47.3680,2.75,-6.96,-0.01,7.48
2022-11-20 11:53:47.3690,1.95,-7.05,0.11,7.31
2022-11-20 11:53:47.3850,1.68,-7.31,0.48,7.51
2022-11-20 11:53:47.4180,1.46,-7.52,0.61,7.68
2022-11-20 11:53:47.4190,0.91,-7.8,0.5,7.86
2022-11-20 11:53:47.4200,0.51,-8.06,0.64,8.1
2022-11-20 11:53:47.4380,0.17,-7.94,1.01,8.0
2022-11-20 11:53:47.4390,-0.21,-7.47,1.21,7.57
2022-11-20 11:53:47.4530,-0.35,-6.94,1.68,7.14
2022-11-20 11:53:47.4530,-0.38,-6.58,1.58,6.77
2022-11-20 11:53:47.4680,-0.58,-6.53,0.77,6.6
2022-11-20 11:53:47.4690,-0.64,-6.7,-0.29,6.73
2022-11-20 11:53:47.4840,-0.19,-6.92,-1.68,7.12
2022-11-20 11:53:47.5180,0.76,-6.95,-2.88,7.56
2022-11-20 11:53:47.5190,1.65,-6.48,-3.34,7.47
2022-11-20 11:53:47.5200,2.06,-5.72,-3.49,7.01
2022-11-20 11:53:47.5380,1.96,-5.37,-3.89,6.91
2022-11-20 11:53:47.5380,1.59,-5.41,-3.81,6.8
2022-11-20 11:53:47.5520,1.0,-5.52,-3.32,6.51
2022-11-20 11:53:47.5530,0.54,-5.66,-2.82,6.34
2022-11-20 11:53:47.5680,0.15,-5.84,-2.19,6.23
2022-11-20 11:53:47.5690,-0.37,-6.39,-1.51,6.57
2022-11-20 11:53:47.5840,-0.42,-6.96,-0.39,6.98
2022-11-20 11:53:47.5880,3.26,-2.21,0.02,3.93
2022-11-20 11:53:47.6310,4.79,16.9,-11.42,20.95
2022-11-20 11:53:47.6320,-7.01,32.72,-14.54,36.48
2022-11-20 11:53:47.6330,-13.41,17.75,-0.3,22.24
2022-11-20 11:53:47.6550,-4.95,-1.32,6.78,8.49
2022-11-20 11:53:47.6550,-0.45,-5.36,0.79,5.43
2022-11-20 11:53:47.6680,-0.63,-6.88,-3.29,7.65
2022-11-20 11:53:47.6690,-1.82,-8.43,-5.66,10.31
2022-11-20 11:53:47.6840,-2.24,-8.73,-7.96,12.02
2022-11-20 11:53:47.6850,-0.75,-5.98,-8.09,10.08
2022-11-20 11:53:47.7010,1.78,-0.98,-4.56,4.99
2022-11-20 11:53:47.7310,2.48,5.54,0.25,6.07
2022-11-20 11:53:47.7320,-0.53,10.74,2.07,10.95
2022-11-20 11:53:47.7540,-3.51,8.79,0.12,9.46
2022-11-20 11:53:47.7550,-2.78,2.53,-0.81,3.84
2022-11-20 11:53:47.7680,-0.9,-1.72,-1.3,2.33
2022-11-20 11:53:47.7690,0.47,-3.71,-2.35,4.41
2022-11-20 11:53:47.7840,1.21,-3.7,-2.62,4.69
2022-11-20 11:53:47.7850,1.35,-2.2,-2.56,3.63
2022-11-20 11:53:47.8000,1.26,-0.26,-2.51,2.82
2022-11-20 11:53:47.8010,1.37,1.33,-2.38,3.05
2022-11-20 11:53:47.8310,1.91,2.12,-2.22,3.61
2022-11-20 11:53:47.8320,2.37,1.97,-1.89,3.61
2022-11-20 11:53:47.8540,2.31,1.02,-1.73,3.06
2022-11-20 11:53:47.8550,1.98,-0.21,-1.63,2.57
2022-11-20 11:53:47.8680,1.59,-1.1,-1.35,2.35
2022-11-20 11:53:47.8690,1.21,-1.43,-0.65,1.98
2022-11-20 11:53:47.8840,0.84,-1.35,0.11,1.59
2022-11-20 11:53:47.8840,0.41,-1.06,0.54,1.25
2022-11-20 11:53:47.9000,0.07,-0.49,0.88,1.0
2022-11-20 11:53:47.9010,-0.09,0.31,0.81,0.87
2022-11-20 11:53:47.9300,-0.06,0.78,0.49,0.92
2022-11-20 11:53:47.9310,0.12,0.58,0.63,0.86
2022-11-20 11:53:47.9540,0.39,-0.11,0.36,0.54
2022-11-20 11:53:47.9550,0.85,-0.81,0.15,1.18
2022-11-20 11:53:47.9680,1.18,-0.92,0.12,1.5
2022-11-20 11:53:47.9690,0.75,-0.47,-0.48,1.0
2022-11-20 11:53:47.9830,-0.19,-0.27,-0.06,0.33
2022-11-20 11:53:47.9840,-0.54,-0.3,1.22,1.36
2022-11-20 11:53:48.0000,-0.23,-0.07,1.5,1.51
2022-11-20 11:53:48.0010,-0.08,0.27,1.98,1.99
2022-11-20 11:53:48.0300,-0.31,0.38,1.87,1.93
2022-11-20 11:53:48.0310,-0.76,0.1,1.09,1.33
2022-11-20 11:53:48.0540,-1.04,-0.22,1.62,1.93
2022-11-20 11:53:48.0550,-1.05,-0.3,2.39,2.62
2022-11-20 11:53:48.0690,-0.93,-0.08,2.26,2.44
2022-11-20 11:53:48.0700,-0.91,0.28,1.96,2.17
2022-11-20 11:53:48.0840,-1.0,0.29,2.26,2.48
2022-11-20 11:53:48.0840,-0.79,-0.04,2.64,2.75
2022-11-20 11:53:48.1000,-0.13,-0.12,3.06,3.06
2022-11-20 11:53:48.1010,0.33,0.25,2.96,2.98
2022-11-20 11:53:48.1310,0.35,0.88,2.77,2.92
2022-11-20 11:53:48.1320,-0.12,1.59,1.82,2.41
2022-11-20 11:53:48.1530,-0.65,2.19,0.86,2.44
2022-11-20 11:53:48.1540,-1.1,2.32,0.47,2.61
2022-11-20 11:53:48.1670,-1.5,2.08,0.88,2.71
2022-11-20 11:53:48.1680,-1.57,2.06,1.39,2.93
2022-11-20 11:53:48.1830,-1.04,2.65,0.82,2.96
2022-11-20 11:53:48.1840,-0.45,3.24,-0.36,3.29
2022-11-20 11:53:48.1990,-0.19,3.38,-0.78,3.47
2022-11-20 11:53:48.2000,-0.12,3.3,-0.66,3.36
2022-11-20 11:53:48.2290,-0.27,3.46,-0.59,3.52
2022-11-20 11:53:48.2300,-0.63,3.93,-0.17,3.98
2022-11-20 11:53:48.2530,-1.36,4.14,0.92,4.45
2022-11-20 11:53:48.2540,-2.32,3.93,2.04,4.99
2022-11-20 11:53:48.2680,-2.53,3.02,3.56,5.3
2022-11-20 11:53:48.2680,-1.28,2.55,5.38,6.08
2022-11-20 11:53:48.2830,-1.01,4.08,5.84,7.19
2022-11-20 11:53:48.2840,-1.94,5.69,7.23,9.4
2022-11-20 11:53:48.2990,-1.89,4.47,8.78,10.03
2022-11-20 11:53:48.3000,-1.07,1.84,8.58,8.84
2022-11-20 11:53:48.3300,0.67,0.56,8.17,8.21
2022-11-20 11:53:48.3310,2.52,1.19,8.56,9.0
2022-11-20 11:53:48.3530,2.95,2.42,7.62,8.52
2022-11-20 11:53:48.3530,2.34,3.39,6.68,7.84
2022-11-20 11:53:48.3670,1.36,4.55,3.98,6.19
2022-11-20 11:53:48.3680,0.3,5.37,0.34,5.38
2022-11-20 11:53:48.3820,-1.56,6.2,-1.16,6.49
2022-11-20 11:53:48.3830,-2.9,7.67,-0.76,8.23
2022-11-20 11:53:48.3990,-2.19,9.12,-1.93,9.57
2022-11-20 11:53:48.4000,-1.49,8.95,-2.6,9.43
2022-11-20 11:53:48.4160,-0.23,7.53,-3.79,8.43
2022-11-20 11:53:48.4470,2.07,5.54,-4.11,7.2
2022-11-20 11:53:48.4480,3.81,4.01,-4.02,6.83
2022-11-20 11:53:48.4700,4.09,3.89,-4.44,7.18
2022-11-20 11:53:48.4700,3.13,4.37,-4.51,7.01
2022-11-20 11:53:48.4830,1.58,4.87,-3.31,6.09
2022-11-20 11:53:48.4840,0.95,4.71,-2.2,5.28
2022-11-20 11:53:48.4990,1.15,3.49,-2.1,4.23
2022-11-20 11:53:48.5000,1.24,2.25,-1.35,2.9
2022-11-20 11:53:48.5150,1.1,1.38,0.42,1.81
2022-11-20 11:53:48.5160,0.76,0.83,2.24,2.5
2022-11-20 11:53:48.5480,0.21,0.68,3.4,3.47
2022-11-20 11:53:48.5480,-0.53,0.68,3.83,3.92
2022-11-20 11:53:48.5690,-1.4,0.36,4.12,4.36
2022-11-20 11:53:48.5700,-2.24,-0.48,4.59,5.12
2022-11-20 11:53:48.5830,-2.92,-1.97,5.07,6.17
2022-11-20 11:53:48.5840,-3.52,-3.41,5.63,7.46
2022-11-20 11:53:48.5990,-3.8,-4.44,5.72,8.17
2022-11-20 11:53:48.6000,-3.61,-5.26,5.73,8.57
2022-11-20 11:53:48.6150,-3.09,-5.77,5.38,8.47
2022-11-20 11:53:48.6160,-2.27,-6.41,4.96,8.41
2022-11-20 11:53:48.6470,-1.42,-7.31,4.45,8.67
2022-11-20 11:53:48.6480,-1.01,-8.3,3.94,9.24
2022-11-20 11:53:48.6660,-0.91,-9.42,3.75,10.17
2022-11-20 11:53:48.6670,-1.12,-10.25,3.49,10.88
2022-11-20 11:53:48.6830,-1.46,-10.55,2.92,11.04
2022-11-20 11:53:48.6840,-1.49,-10.44,2.0,10.73
2022-11-20 11:53:48.6980,-0.81,-10.06,1.14,10.15
2022-11-20 11:53:48.6990,0.25,-9.65,0.33,9.65
2022-11-20 11:53:48.7150,1.38,-9.38,-1.09,9.54
2022-11-20 11:53:48.7160,2.36,-9.08,-2.52,9.71
2022-11-20 11:53:48.7460,3.14,-8.73,-3.74,10.0
2022-11-20 11:53:48.7470,3.95,-8.28,-4.78,10.34
2022-11-20 11:53:48.7690,4.81,-7.67,-5.55,10.61
2022-11-20 11:53:48.7690,5.62,-6.99,-5.94,10.75
2022-11-20 11:53:48.7830,6.28,-6.52,-5.92,10.81
2022-11-20 11:53:48.7840,6.7,-6.39,-7.15,11.69
2022-11-20 11:53:48.7980,8.08,-5.56,-16.75,19.41
2022-11-20 11:53:48.7990,10.32,-1.89,-13.28,16.92
2022-11-20 11:53:48.8140,6.53,6.02,-7.21,11.43
2022-11-20 11:53:48.8150,-5.53,18.17,6.72,20.14
2022-11-20 11:53:48.8460,-9.26,20.67,0.37,22.65
2022-11-20 11:53:48.8470,-2.98,10.43,-2.65,11.16
2022-11-20 11:53:48.8680,-1.9,0.08,-1.64,2.51
2022-11-20 11:53:48.8690,-2.31,-4.7,-1.23,5.37
2022-11-20 11:53:48.8820,-3.58,-8.26,-2.77,9.41
2022-11-20 11:53:48.8830,-4.45,-11.26,-5.03,13.11
2022-11-20 11:53:48.8980,-3.83,-9.5,-4.19,11.06
2022-11-20 11:53:48.8980,-2.46,-2.73,-1.04,3.81
2022-11-20 11:53:48.9140,-1.99,4.43,1.48,5.07
2022-11-20 11:53:48.9150,-1.56,8.37,1.52,8.64
2022-11-20 11:53:48.9460,-0.12,6.67,-1.47,6.83
2022-11-20 11:53:48.9470,1.91,2.73,-4.54,5.63
2022-11-20 11:53:48.9680,3.76,-0.47,-5.53,6.7
2022-11-20 11:53:48.9690,4.7,-2.08,-4.81,7.03
2022-11-20 11:53:48.9820,4.39,-1.89,-3.17,5.73
2022-11-20 11:53:48.9830,2.96,-0.8,-1.89,3.6
2022-11-20 11:53:48.9980,1.21,0.11,-1.6,2.0
2022-11-20 11:53:48.9980,-0.11,0.58,-1.32,1.44
2022-11-20 11:53:49.0140,-1.24,0.73,-1.01,1.75
2022-11-20 11:53:49.0150,-2.09,0.57,-0.43,2.2
2022-11-20 11:53:49.0450,-2.48,0.09,0.71,2.58
2022-11-20 11:53:49.0460,-2.63,-0.43,1.35,2.98
2022-11-20 11:53:49.0670,-2.72,-0.53,1.53,3.16
2022-11-20 11:53:49.0680,-2.62,-0.68,1.71,3.2
2022-11-20 11:53:49.0820,-1.96,-0.43,1.28,2.38
2022-11-20 11:53:49.0830,-0.63,-0.27,0.69,0.97
2022-11-20 11:53:49.0970,0.93,-0.4,0.75,1.25
2022-11-20 11:53:49.0980,1.91,-0.58,0.56,2.07
2022-11-20 11:53:49.1150,2.28,-0.39,0.28,2.33
2022-11-20 11:53:49.1160,2.52,0.09,-0.17,2.52
2022-11-20 11:53:49.1480,2.6,0.14,-0.23,2.61
2022-11-20 11:53:49.1480,1.97,-0.23,-0.03,1.98
2022-11-20 11:53:49.1670,0.81,-0.55,0.01,0.97
2022-11-20 11:53:49.1680,-0.32,-0.74,0.51,0.95
2022-11-20 11:53:49.1820,-1.27,-0.82,1.46,2.1
2022-11-20 11:53:49.1820,-1.99,-0.63,2.12,2.97
2022-11-20 11:53:49.1970,-2.15,-0.06,2.4,3.22
2022-11-20 11:53:49.1980,-1.88,0.5,2.14,2.89
2022-11-20 11:53:49.2140,-1.44,0.49,1.88,2.41
2022-11-20 11:53:49.2150,-0.98,0.05,1.3,1.62
2022-11-20 11:53:49.2300,-0.58,-0.28,1.52,1.65
2022-11-20 11:53:49.2630,-0.51,-0.52,1.93,2.06
2022-11-20 11:53:49.2640,-0.51,-0.51,2.66,2.75
2022-11-20 11:53:49.2840,-0.28,0.13,2.8,2.81
2022-11-20 11:53:49.2850,-0.12,0.95,2.2,2.39
2022-11-20 11:53:49.2980,-0.28,1.3,1.53,2.02
2022-11-20 11:53:49.2980,-0.43,1.16,1.11,1.66
2022-11-20 11:53:49.3140,-0.29,0.58,1.5,1.63
2022-11-20 11:53:49.3150,0.24,0.35,2.09,2.13
2022-11-20 11:53:49.3300,0.42,1.08,1.79,2.13
2022-11-20 11:53:49.3310,0.07,2.46,0.35,2.48
2022-11-20 11:53:49.3620,-0.46,3.42,-1.0,3.59
2022-11-20 11:53:49.3620,-0.57,3.51,-1.25,3.76
2022-11-20 11:53:49.3830,-0.86,3.2,-0.56,3.36
2022-11-20 11:53:49.3840,-1.41,3.48,-0.79,3.83
2022-11-20 11:53:49.3980,-1.86,4.02,-0.54,4.46
2022-11-20 11:53:49.3980,-1.95,4.51,0.23,4.91
2022-11-20 11:53:49.4130,-1.74,4.42,0.56,4.78
2022-11-20 11:53:49.4140,-1.24,3.9,1.21,4.26
2022-11-20 11:53:49.4300,0.23,3.88,1.62,4.21
2022-11-20 11:53:49.4310,0.76,4.78,1.76,5.15
2022-11-20 11:53:49.4610,-0.24,5.38,2.38,5.88
2022-11-20 11:53:49.4620,-1.0,4.84,4.38,6.6
2022-11-20 11:53:49.4840,-1.36,3.95,6.48,7.7
2022-11-20 11:53:49.4840,-2.02,2.92,7.25,8.07
2022-11-20 11:53:49.4970,-2.04,1.64,7.06,7.52
2022-11-20 11:53:49.4980,-0.62,1.0,6.33,6.43
2022-11-20 11:53:49.5130,1.0,1.56,5.94,6.22
2022-11-20 11:53:49.5140,2.11,2.17,6.22,6.91
2022-11-20 11:53:49.5290,3.01,1.94,6.86,7.73
2022-11-20 11:53:49.5300,3.07,1.55,6.54,7.38
2022-11-20 11:53:49.5610,1.79,1.95,5.54,6.13
2022-11-20 11:53:49.5620,0.19,2.42,3.45,4.21
2022-11-20 11:53:49.5830,-1.55,3.13,1.7,3.88
2022-11-20 11:53:49.5840,-2.76,4.78,0.37,5.53
2022-11-20 11:53:49.5970,-2.6,6.96,-0.63,7.45
2022-11-20 11:53:49.5980,-2.75,8.46,0.12,8.89
2022-11-20 11:53:49.6130,-2.54,8.03,-0.83,8.46
2022-11-20 11:53:49.6140,-0.89,6.3,-1.91,6.64
2022-11-20 11:53:49.6290,0.77,4.46,-1.94,4.92
2022-11-20 11:53:49.6300,1.55,3.57,-1.91,4.33
2022-11-20 11:53:49.6610,1.63,3.69,-2.05,4.52
2022-11-20 11:53:49.6620,0.89,3.88,-2.05,4.47
2022-11-20 11:53:49.6830,-0.2,4.2,-1.76,4.55
2022-11-20 11:53:49.6840,-0.63,4.39,-1.42,4.65
2022-11-20 11:53:49.6970,-0.47,3.68,-1.1,3.86
2022-11-20 11:53:49.6980,-0.2,2.35,-0.64,2.44
2022-11-20 11:53:49.7130,-0.1,1.13,0.28,1.16
2022-11-20 11:53:49.7130,-0.11,0.42,1.37,1.43
2022-11-20 11:53:49.7290,-0.09,0.06,2.13,2.13
2022-11-20 11:53:49.7300,-0.07,-0.28,2.47,2.48
2022-11-20 11:53:49.7610,-0.22,-0.75,2.4,2.52
2022-11-20 11:53:49.7620,-0.49,-1.39,2.5,2.9
2022-11-20 11:53:49.7830,-0.95,-2.23,2.86,3.74
2022-11-20 11:53:49.7830,-1.45,-3.07,3.07,4.57
2022-11-20 11:53:49.7970,-1.83,-3.74,3.24,5.27
2022-11-20 11:53:49.7980,-2.11,-4.23,3.42,5.83
2022-11-20 11:53:49.8120,-2.14,-4.75,3.48,6.26
2022-11-20 11:53:49.8130,-2.04,-5.55,3.43,6.83
2022-11-20 11:53:49.8290,-1.74,-6.59,3.51,7.66
2022-11-20 11:53:49.8300,-1.4,-7.59,3.38,8.42
2022-11-20 11:53:49.8610,-1.25,-8.46,2.65,8.95
2022-11-20 11:53:49.8620,-1.21,-9.37,2.32,9.72
2022-11-20 11:53:49.8820,-1.18,-9.62,2.46,9.99
2022-11-20 11:53:49.8830,-0.97,-9.11,2.67,9.54
2022-11-20 11:53:49.8960,-0.44,-8.45,2.63,8.86
2022-11-20 11:53:49.8970,0.37,-8.2,1.73,8.38
2022-11-20 11:53:49.9120,1.28,-8.25,0.46,8.36
2022-11-20 11:53:49.9130,2.1,-8.36,-0.91,8.66
2022-11-20 11:53:49.9280,2.81,-8.54,-2.24,9.26
2022-11-20 11:53:49.9290,3.35,-8.73,-3.39,9.94
2022-11-20 11:53:49.9610,3.58,-8.88,-4.12,10.42
2022-11-20 11:53:49.9620,3.57,-9.01,-4.19,10.55
2022-11-20 11:53:49.9830,3.39,-9.02,-4.07,10.46
2022-11-20 11:53:49.9830,3.25,-9.0,-3.92,10.34
2022-11-20 11:53:49.9960,3.37,-9.18,-3.41,10.35
2022-11-20 11:53:49.9960,3.88,-9.37,-3.55,10.74
2022-11-20 11:53:50.0120,6.72,-6.02,-14.99,17.49
2022-11-20 11:53:50.0130,9.23,8.33,-14.05,18.76
2022-11-20 11:53:50.0280,1.35,24.39,-12.35,27.37
2022-11-20 11:53:50.0290,-11.27,25.36,10.3,29.6
2022-11-20 11:53:50.0450,-3.08,11.83,1.58,12.32
2022-11-20 11:53:50.0800,2.89,0.16,-3.76,4.74
2022-11-20 11:53:50.0810,0.79,-4.13,-2.79,5.04
2022-11-20 11:53:50.0980,-1.06,-6.48,-3.09,7.25
2022-11-20 11:53:50.0990,-2.47,-9.35,-4.95,10.86
2022-11-20 11:53:50.1130,-3.48,-11.17,-6.36,13.31
2022-11-20 11:53:50.1140,-3.16,-6.91,-4.36,8.76
2022-11-20 11:53:50.1280,-2.57,0.57,-0.08,2.63
2022-11-20 11:53:50.1290,-2.78,6.86,1.8,7.61
2022-11-20 11:53:50.1460,-2.62,8.64,0.69,9.05
2022-11-20 11:53:50.1470,-1.17,5.14,-2.06,5.65
2022-11-20 11:53:50.1790,0.87,1.17,-3.9,4.16
2022-11-20 11:53:50.1800,2.58,-1.33,-4.67,5.49
2022-11-20 11:53:50.1980,3.41,-2.16,-4.14,5.78
2022-11-20 11:53:50.1990,3.13,-1.27,-2.28,4.07
2022-11-20 11:53:50.2120,1.92,0.39,-1.0,2.19
2022-11-20 11:53:50.2130,0.93,1.46,-0.76,1.89
2022-11-20 11:53:50.2280,0.75,1.28,-0.93,1.75
2022-11-20 11:53:50.2290,0.77,0.34,-0.66,1.06
2022-11-20 11:53:50.2440,0.64,-0.49,-0.31,0.86
2022-11-20 11:53:50.2450,0.68,-0.9,-0.25,1.15
2022-11-20 11:53:50.2770,0.9,-0.85,-0.06,1.23
2022-11-20 11:53:50.2780,0.75,-0.55,0.26,0.96
2022-11-20 11:53:50.2980,0.33,-0.08,0.44,0.55
2022-11-20 11:53:50.2990,-0.13,0.24,0.37,0.45
2022-11-20 11:53:50.3120,-0.38,0.24,0.54,0.7
2022-11-20 11:53:50.3130,-0.45,-0.02,0.25,0.51
2022-11-20 11:53:50.3270,-0.44,-0.5,0.21,0.69
2022-11-20 11:53:50.3280,-0.37,-0.95,0.51,1.13
2022-11-20 11:53:50.3440,-0.28,-1.1,0.96,1.48
2022-11-20 11:53:50.3450,-0.02,-0.74,1.58,1.74
2022-11-20 11:53:50.3770,0.44,-0.07,1.51,1.57
2022-11-20 11:53:50.3780,0.66,0.29,1.36,1.53
2022-11-20 11:53:50.3980,0.37,0.17,1.42,1.47
2022-11-20 11:53:50.3980,-0.22,-0.1,1.5,1.51
2022-11-20 11:53:50.4120,-0.92,-0.13,1.37,1.65
2022-11-20 11:53:50.4130,-1.65,-0.12,1.29,2.09
2022-11-20 11:53:50.4270,-2.01,-0.22,1.58,2.56
2022-11-20 11:53:50.4280,-1.63,-0.35,1.79,2.44
2022-11-20 11:53:50.4440,-0.68,-0.36,1.84,1.99
2022-11-20 11:53:50.4450,0.2,-0.23,1.32,1.35
2022-11-20 11:53:50.4760,0.58,-0.11,0.91,1.08
2022-11-20 11:53:50.4770,0.5,0.04,1.23,1.32
2022-11-20 11:53:50.4970,-0.11,0.21,1.82,1.83
2022-11-20 11:53:50.4980,-1.09,0.34,2.19,2.46
2022-11-20 11:53:50.5120,-1.6,0.35,2.51,2.99
2022-11-20 11:53:50.5120,-0.94,0.36,2.57,2.76
2022-11-20 11:53:50.5270,0.22,0.65,2.27,2.37
2022-11-20 11:53:50.5280,0.66,1.04,1.45,1.9
2022-11-20 11:53:50.5440,0.21,1.09,1.14,1.59
2022-11-20 11:53:50.5440,-0.25,1.07,1.03,1.5
2022-11-20 11:53:50.5750,-0.45,1.5,0.24,1.58
2022-11-20 11:53:50.5750,-0.6,2.33,-1.07,2.63
2022-11-20 11:53:50.5980,-0.82,2.84,-0.89,3.08
2022-11-20 11:53:50.5980,-0.98,2.86,-0.4,3.04
2022-11-20 11:53:50.6110,-1.15,3.04,0.76,3.33
2022-11-20 11:53:50.6120,-1.54,3.89,-0.48,4.21
2022-11-20 11:53:50.6270,-1.79,4.41,-1.43,4.96
2022-11-20 11:53:50.6280,-1.58,4.4,-0.55,4.7
2022-11-20 11:53:50.6430,-1.16,4.29,0.04,4.44
2022-11-20 11:53:50.6440,-0.39,3.64,0.95,3.78
2022-11-20 11:53:50.6750,0.75,3.39,2.73,4.41
2022-11-20 11:53:50.6760,0.37,4.81,3.4,5.9
2022-11-20 11:53:50.6970,-1.17,6.34,4.78,8.02
2022-11-20 11:53:50.6980,-2.19,5.86,7.2,9.53
2022-11-20 11:53:50.7110,-2.79,3.45,8.73,9.79
2022-11-20 11:53:50.7120,-3.09,0.81,8.74,9.3
2022-11-20 11:53:50.7270,-2.05,-0.21,7.98,8.24
2022-11-20 11:53:50.7270,0.28,1.34,7.11,7.24
2022-11-20 11:53:50.7430,2.25,3.4,6.73,7.86
2022-11-20 11:53:50.7440,2.88,3.6,6.12,7.66
2022-11-20 11:53:50.7760,2.63,2.81,5.18,6.45
2022-11-20 11:53:50.7770,1.55,2.7,4.22,5.24
2022-11-20 11:53:50.7970,0.11,3.18,2.62,4.12
2022-11-20 11:53:50.7980,-1.36,3.69,0.98,4.05
2022-11-20 11:53:50.8110,-2.64,4.71,0.32,5.4
2022-11-20 11:53:50.8120,-2.67,6.25,-0.26,6.8
2022-11-20 11:53:50.8260,-2.91,7.73,0.19,8.26
2022-11-20 11:53:50.8270,-3.29,8.22,0.1,8.85
2022-11-20 11:53:50.8430,-2.08,7.4,-1.48,7.82
2022-11-20 11:53:50.8440,-0.02,5.39,-2.67,6.01
2022-11-20 11:53:50.8600,1.42,3.82,-2.86,4.97
2022-11-20 11:53:50.8940,1.75,3.35,-2.84,4.72
2022-11-20 11:53:50.8950,0.94,3.48,-2.59,4.43
2022-11-20 11:53:50.9140,0.06,4.15,-2.26,4.72
2022-11-20 11:53:50.9140,-0.29,4.79,-2.16,5.26
2022-11-20 11:53:50.9270,-0.25,4.37,-2.12,4.86
2022-11-20 11:53:50.9280,-0.01,3.01,-1.97,3.59
2022-11-20 11:53:50.9430,0.13,1.68,-0.95,1.93
2022-11-20 11:53:50.9440,0.09,0.89,0.53,1.03
2022-11-20 11:53:50.9590,0.01,0.28,1.71,1.73
2022-11-20 11:53:50.9600,-0.13,-0.15,2.49,2.49
2022-11-20 11:53:50.9920,-0.42,-0.58,2.79,2.88
2022-11-20 11:53:50.9930,-0.92,-0.91,3.0,3.26
2022-11-20 11:53:51.0120,-1.81,-1.47,3.44,4.15
2022-11-20 11:53:51.0130,-2.64,-2.35,3.99,5.33
2022-11-20 11:53:51.0270,-3.07,-3.3,4.51,6.37
2022-11-20 11:53:51.0280,-3.13,-4.29,4.92,7.23
2022-11-20 11:53:51.0420,-3.02,-5.34,4.88,7.83
2022-11-20 11:53:51.0430,-2.69,-6.5,4.5,8.35
2022-11-20 11:53:51.0590,-2.29,-7.68,3.77,8.85
2022-11-20 11:53:51.0600,-2.05,-8.51,3.02,9.25
2022-11-20 11:53:51.0900,-1.98,-8.91,2.6,9.49
2022-11-20 11:53:51.0910,-1.97,-9.0,2.83,9.63
2022-11-20 11:53:51.1130,-1.9,-8.93,3.07,9.63
2022-11-20 11:53:51.1130,-1.76,-9.06,2.75,9.63
2022-11-20 11:53:51.1270,-1.62,-9.48,1.86,9.79
2022-11-20 11:53:51.1270,-1.35,-9.88,0.67,9.99
2022-11-20 11:53:51.1420,-0.69,-10.12,-0.65,10.16
2022-11-20 11:53:51.1430,0.32,-10.21,-2.04,10.41
2022-11-20 11:53:51.1600,1.28,-10.17,-3.31,10.77
2022-11-20 11:53:51.1600,1.99,-10.02,-4.38,11.11
2022-11-20 11:53:51.1910,2.48,-9.67,-5.42,11.35
2022-11-20 11:53:51.1920,2.79,-9.12,-6.07,11.3
2022-11-20 11:53:51.2120,2.89,-8.51,-6.25,10.94
2022-11-20 11:53:51.2130,2.82,-8.14,-6.59,10.84
2022-11-20 11:53:51.2270,2.61,-8.32,-6.62,10.94
2022-11-20 11:53:51.2280,2.42,-8.96,-6.4,11.27
2022-11-20 11:53:51.2420,3.92,-7.34,-9.13,12.35
2022-11-20 11:53:51.2430,7.48,16.3,-14.62,23.13
2022-11-20 11:53:51.2580,-4.19,40.85,-7.19,41.68
2022-11-20 11:53:51.2590,-9.96,20.55,9.44,24.71
2022-11-20 11:53:51.2900,-0.45,1.86,-2.25,2.95
2022-11-20 11:53:51.2900,3.3,-2.86,-3.54,5.62
2022-11-20 11:53:51.3130,2.04,-5.43,-3.56,6.8
2022-11-20 11:53:51.3130,0.25,-8.36,-1.03,8.42
2022-11-20 11:53:51.3270,-1.86,-11.49,1.48,11.73
2022-11-20 11:53:51.3270,-2.65,-10.4,-1.02,10.78
2022-11-20 11:53:51.3410,-2.72,-3.44,-3.23,5.44
2022-11-20 11:53:51.3420,-3.62,5.43,-3.37,7.34
2022-11-20 11:53:51.3580,-3.73,10.74,-1.93,11.53
2022-11-20 11:53:51.3590,-1.76,8.51,0.75,8.72
2022-11-20 11:53:51.3900,0.65,3.31,-0.24,3.38
2022-11-20 11:53:51.3910,2.45,-0.14,-3.47,4.25
2022-11-20 11:53:51.4110,3.58,-2.68,-5.62,7.18
2022-11-20 11:53:51.4120,3.61,-3.65,-6.08,7.95
2022-11-20 11:53:51.4260,2.85,-2.59,-4.67,6.05
2022-11-20 11:53:51.4270,1.79,-0.65,-2.88,3.45
2022-11-20 11:53:51.4420,0.64,0.99,-1.73,2.09
2022-11-20 11:53:51.4420,-0.69,1.97,-0.99,2.31
2022-11-20 11:53:51.4580,-1.88,2.03,0.03,2.76
2022-11-20 11:53:51.4590,-2.31,1.11,0.88,2.7
2022-11-20 11:53:51.4900,-1.78,-0.03,0.8,1.95
2022-11-20 11:53:51.4910,-1.06,-0.79,0.47,1.4
2022-11-20 11:53:51.5110,-0.76,-1.01,0.39,1.32
2022-11-20 11:53:51.5120,-0.62,-0.9,0.79,1.34
2022-11-20 11:53:51.5260,-0.26,-0.65,1.03,1.24
2022-11-20 11:53:51.5270,0.34,-0.34,0.74,0.88
2022-11-20 11:53:51.5410,0.94,0.12,0.95,1.34
2022-11-20 11:53:51.5420,1.46,0.44,0.42,1.58
2022-11-20 11:53:51.5580,1.73,0.28,0.35,1.78
2022-11-20 11:53:51.5580,1.79,-0.09,0.78,1.95
2022-11-20 11:53:51.5890,1.54,-0.54,0.74,1.79
2022-11-20 11:53:51.5900,1.08,-0.78,1.16,1.76
2022-11-20 11:53:51.6110,0.47,-0.76,1.44,1.69
2022-11-20 11:53:51.6120,-0.19,-0.59,1.46,1.58
2022-11-20 11:53:51.6260,-0.54,-0.33,1.76,1.87
2022-11-20 11:53:51.6270,-0.67,-0.15,1.62,1.75
2022-11-20 11:53:51.6410,-0.74,-0.08,1.29,1.48
2022-11-20 11:53:51.6420,-0.88,-0.12,0.98,1.32
2022-11-20 11:53:51.6570,-1.09,-0.31,0.98,1.49
2022-11-20 11:53:51.6580,-1.3,-0.47,0.92,1.66
2022-11-20 11:53:51.6740,-1.25,-0.44,0.98,1.64
2022-11-20 11:53:51.7080,-1.01,-0.2,1.11,1.51
2022-11-20 11:53:51.7090,-0.87,0.2,1.01,1.34
2022-11-20 11:53:51.7270,-0.78,0.5,0.95,1.32
2022-11-20 11:53:51.7280,-0.87,0.38,1.0,1.37
2022-11-20 11:53:51.7420,-1.1,0.01,1.17,1.6
2022-11-20 11:53:51.7430,-0.88,-0.25,1.62,1.86
2022-11-20 11:53:51.7570,-0.37,-0.28,1.78,1.83
2022-11-20 11:53:51.7580,0.04,0.02,0.7,0.7
2022-11-20 11:53:51.7740,0.18,0.32,-0.11,0.38
2022-11-20 11:53:51.7750,-0.08,0.24,-0.55,0.6
2022-11-20 11:53:51.8060,-0.37,-0.2,-0.67,0.79
2022-11-20 11:53:51.8070,-0.41,-0.65,-0.6,0.97
2022-11-20 11:53:51.8280,-0.25,-0.79,-0.33,0.89
2022-11-20 11:53:51.8280,-0.03,-0.41,-0.06,0.41
2022-11-20 11:53:51.8410,0.09,0.2,-0.24,0.32
2022-11-20 11:53:51.8420,0.06,0.62,-0.14,0.63
2022-11-20 11:53:51.8570,-0.12,0.66,0.32,0.74
2022-11-20 11:53:51.8580,-0.2,0.5,0.53,0.75
2022-11-20 11:53:51.8740,-0.18,0.4,0.4,0.59
2022-11-20 11:53:51.8750,-0.16,0.27,0.37,0.48
2022-11-20 11:53:51.9060,-0.2,-0.04,0.5,0.54
2022-11-20 11:53:51.9060,-0.16,-0.34,0.74,0.82
2022-11-20 11:53:51.9260,-0.07,-0.33,1.1,1.15
2022-11-20 11:53:51.9270,-0.19,-0.1,1.39,1.4
2022-11-20 11:53:51.9410,-0.51,0.06,1.77,1.84
2022-11-20 11:53:51.9420,-0.91,0.01,2.49,2.65
2022-11-20 11:53:51.9570,-1.29,-0.06,3.12,3.37
2022-11-20 11:53:51.9570,-2.17,0.15,2.99,3.69
2022-11-20 11:53:51.9730,-3.49,0.74,3.46,4.96
2022-11-20 11:53:51.9740,-4.39,1.98,3.0,5.67
2022-11-20 11:53:52.0050,-4.63,3.38,2.12,6.11
2022-11-20 11:53:52.0060,-5.04,4.55,2.41,7.2
2022-11-20 11:53:52.0270,-6.2,5.04,2.39,8.33
2022-11-20 11:53:52.0280,-8.09,4.35,1.98,9.39
2022-11-20 11:53:52.0410,-9.24,3.38,1.65,9.97
2022-11-20 11:53:52.0420,-8.61,2.76,0.86,9.08
2022-11-20 11:53:52.0570,-6.32,2.65,-0.13,6.85
2022-11-20 11:53:52.0570,-3.88,2.56,-1.73,4.95
2022-11-20 11:53:52.0730,-1.79,2.16,-3.55,4.52
2022-11-20 11:53:52.0740,-0.43,1.23,-5.12,5.28
2022-11-20 11:53:52.1040,0.44,0.16,-6.18,6.19
2022-11-20 11:53:52.1050,1.3,-0.44,-6.57,6.71
2022-11-20 11:53:52.1270,1.88,-0.9,-6.73,7.04
2022-11-20 11:53:52.1280,1.62,-1.8,-6.15,6.6
2022-11-20 11:53:52.1410,0.03,-2.74,-4.52,5.28
2022-11-20 11:53:52.1420,-1.41,-3.5,-3.36,5.05
2022-11-20 11:53:52.1560,-1.41,-4.69,-2.81,5.64
2022-11-20 11:53:52.1570,-1.97,-5.54,-2.13,6.25
2022-11-20 11:53:52.1730,-2.53,-5.65,-1.69,6.41
2022-11-20 11:53:52.1740,-2.53,-5.27,-2.11,6.21
2022-11-20 11:53:52.2040,-2.56,-4.97,-2.52,6.13
2022-11-20 11:53:52.2040,-2.46,-4.89,-2.55,6.03
2022-11-20 11:53:52.2280,-2.19,-4.69,-2.54,5.76
2022-11-20 11:53:52.2290,-1.8,-4.49,-2.91,5.64
2022-11-20 11:53:52.2410,-1.6,-4.34,-3.06,5.54
2022-11-20 11:53:52.2410,-1.3,-4.06,-3.02,5.22
2022-11-20 11:53:52.2560,-1.03,-3.49,-3.13,4.79
2022-11-20 11:53:52.2570,-0.99,-2.68,-3.17,4.26
2022-11-20 11:53:52.2720,-1.24,-1.8,-2.62,3.41
2022-11-20 11:53:52.2730,-1.67,-1.11,-2.15,2.93
2022-11-20 11:53:52.3050,-2.12,-0.76,-2.07,3.05
2022-11-20 11:53:52.3060,-2.63,-0.69,-1.96,3.35
2022-11-20 11:53:52.3260,-2.76,-0.81,-2.22,3.63
2022-11-20 11:53:52.3270,-2.29,-0.99,-3.07,3.95
2022-11-20 11:53:52.3410,-1.33,-0.76,-3.76,4.06
2022-11-20 11:53:52.3420,-0.13,-0.1,-4.15,4.15
2022-11-20 11:53:52.3560,0.96,0.14,-3.97,4.08
2022-11-20 11:53:52.3570,2.12,-0.42,-3.93,4.48
2022-11-20 11:53:52.3720,3.21,-1.42,-4.45,5.66
2022-11-20 11:53:52.3730,4.36,-1.86,-4.7,6.67
2022-11-20 11:53:52.4050,5.18,-1.86,-5.42,7.72
2022-11-20 11:53:52.4060,5.47,-2.4,-4.57,7.52
2022-11-20 11:53:52.4260,7.25,-2.83,-1.78,7.98
2022-11-20 11:53:52.4270,10.39,-0.9,1.09,10.48
2022-11-20 11:53:52.4400,11.3,3.51,0.24,11.83
2022-11-20 11:53:52.4410,5.35,5.52,-5.68,9.55
2022-11-20 11:53:52.4560,-2.0,5.23,-5.7,7.99
2022-11-20 11:53:52.4570,-6.24,4.25,-1.07,7.62
2022-11-20 11:53:52.4720,-7.38,2.14,4.55,8.93
2022-11-20 11:53:52.4730,-7.42,-0.3,8.19,11.05
2022-11-20 11:53:52.4890,-7.68,-2.53,7.62,11.11
2022-11-20 11:53:52.5200,-7.97,-4.13,3.29,9.56
2022-11-20 11:53:52.5210,-6.76,-4.19,-1.67,8.12
2022-11-20 11:53:52.5430,-3.52,-2.1,-3.05,5.1
2022-11-20 11:53:52.5440,-0.28,0.5,-1.05,1.19
2022-11-20 11:53:52.5570,2.11,2.19,-0.05,3.04
2022-11-20 11:53:52.5570,2.4,2.52,-1.22,3.68
2022-11-20 11:53:52.5720,1.08,2.06,-2.73,3.58
2022-11-20 11:53:52.5730,0.6,1.23,-3.86,4.09
2022-11-20 11:53:52.5890,1.87,0.08,-4.14,4.54
2022-11-20 11:53:52.5890,3.73,-1.0,-3.66,5.32
2022-11-20 11:53:52.6200,4.46,-1.33,-2.65,5.35
2022-11-20 11:53:52.6210,3.55,-0.62,-1.26,3.81
2022-11-20 11:53:52.6420,1.48,0.5,0.14,1.56
2022-11-20 11:53:52.6430,-0.84,1.46,1.56,2.29
2022-11-20 11:53:52.6560,-2.43,1.85,2.39,3.87
2022-11-20 11:53:52.6570,-3.03,1.12,2.01,3.8
2022-11-20 11:53:52.6720,-2.52,-0.32,0.83,2.67
2022-11-20 11:53:52.6730,-1.06,-1.18,-0.08,1.58
2022-11-20 11:53:52.6880,0.65,-1.07,-0.39,1.31
2022-11-20 11:53:52.6890,1.71,-0.62,-0.42,1.86
2022-11-20 11:53:52.7190,1.95,-0.04,-0.41,1.99
2022-11-20 11:53:52.7200,1.91,0.39,-0.11,1.95
2022-11-20 11:53:52.7410,1.73,0.37,0.44,1.82
2022-11-20 11:53:52.7420,1.25,-0.02,1.09,1.65
2022-11-20 11:53:52.7560,0.55,-0.34,1.9,2.0
2022-11-20 11:53:52.7570,-0.35,-0.33,2.74,2.78
2022-11-20 11:53:52.7720,-1.35,-0.15,3.6,3.84
2022-11-20 11:53:52.7720,-1.96,0.0,3.53,4.03
2022-11-20 11:53:52.7880,-1.83,-0.15,3.38,3.84
2022-11-20 11:53:52.7890,-1.56,-0.75,3.48,3.88
2022-11-20 11:53:52.8180,-1.33,-1.46,3.78,4.26
2022-11-20 11:53:52.8190,-1.1,-1.79,4.61,5.06
2022-11-20 11:53:52.8420,-1.15,-1.59,5.31,5.66
2022-11-20 11:53:52.8420,-1.65,-1.0,5.3,5.64
2022-11-20 11:53:52.8560,-2.1,-0.48,3.66,4.24
2022-11-20 11:53:52.8570,-1.98,-0.4,2.5,3.21
2022-11-20 11:53:52.8710,-1.65,-0.79,2.01,2.71
2022-11-20 11:53:52.8720,-0.83,-1.44,1.25,2.07
2022-11-20 11:53:52.8880,0.57,-2.0,0.39,2.11
2022-11-20 11:53:52.8890,1.67,-2.32,-0.35,2.87
2022-11-20 11:53:52.9200,2.21,-2.38,0.04,3.24
2022-11-20 11:53:52.9200,2.04,-2.1,0.64,2.99
2022-11-20 11:53:52.9420,1.34,-1.32,1.08,2.16
2022-11-20 11:53:52.9430,0.62,-0.31,0.84,1.08
2022-11-20 11:53:52.9550,-0.28,0.38,-0.13,0.48
2022-11-20 11:53:52.9560,-1.05,0.6,-0.44,1.28
2022-11-20 11:53:52.9710,-2.0,0.28,-0.37,2.05
2022-11-20 11:53:52.9720,-2.52,-0.53,-0.2,2.58
2022-11-20 11:53:52.9870,-2.56,-1.4,0.03,2.91
2022-11-20 11:53:52.9880,-2.49,-1.71,1.07,3.2
2022-11-20 11:53:53.0200,-2.62,-1.19,1.28,3.14
2022-11-20 11:53:53.0210,-2.63,-0.59,0.76,2.8
2022-11-20 11:53:53.0420,-2.17,-0.55,0.43,2.27
2022-11-20 11:53:53.0420,-1.66,-0.8,0.23,1.85
2022-11-20 11:53:53.0550,-1.18,-0.84,-0.16,1.45
2022-11-20 11:53:53.0560,-0.59,-0.42,-0.65,0.97
2022-11-20 11:53:53.0710,0.21,0.38,-0.53,0.68
2022-11-20 11:53:53.0720,0.73,1.85,-0.42,2.03
2022-11-20 11:53:53.0870,0.75,4.26,-0.89,4.41
2022-11-20 11:53:53.0880,0.77,7.66,-1.81,7.9
2022-11-20 11:53:53.1180,0.44,11.93,-2.86,12.27
2022-11-20 11:53:53.1190,-0.8,15.46,-3.57,15.88
2022-11-20 11:53:53.1410,-2.08,15.81,-2.95,16.21
2022-11-20 11:53:53.1420,-2.18,12.86,-1.97,13.19
2022-11-20 11:53:53.1550,-1.55,10.15,-1.93,10.44
2022-11-20 11:53:53.1560,-0.31,8.69,-2.72,9.11
2022-11-20 11:53:53.1710,1.43,6.53,-3.11,7.37
2022-11-20 11:53:53.1720,2.6,3.81,-2.61,5.29
2022-11-20 11:53:53.1870,3.14,0.97,-2.51,4.13
2022-11-20 11:53:53.1880,3.11,-1.66,-1.88,3.99
2022-11-20 11:53:53.2190,2.69,-3.16,-0.5,4.17
2022-11-20 11:53:53.2200,2.18,-4.09,0.55,4.66
2022-11-20 11:53:53.2410,1.01,-5.75,0.1,5.83
2022-11-20 11:53:53.2410,-0.77,-7.37,-1.02,7.47
2022-11-20 11:53:53.2550,-2.41,-6.94,-0.13,7.34
2022-11-20 11:53:53.2560,-3.6,-4.25,2.89,6.27
2022-11-20 11:53:53.2700,-4.37,-1.57,6.39,7.89
2022-11-20 11:53:53.2710,-4.16,-0.3,7.1,8.23
2022-11-20 11:53:53.2870,-3.69,-0.85,4.81,6.12
2022-11-20 11:53:53.2880,-3.62,-1.96,3.13,5.17
2022-11-20 11:53:53.3030,-3.66,-2.97,2.03,5.13
2022-11-20 11:53:53.3350,-3.1,-3.93,1.58,5.24
2022-11-20 11:53:53.3350,-1.56,-4.64,0.46,4.91
2022-11-20 11:53:53.3560,-0.1,-4.8,-1.0,4.9
2022-11-20 11:53:53.3570,0.63,-4.46,-1.49,4.74
2022-11-20 11:53:53.3720,1.44,-4.38,-1.57,4.87
2022-11-20 11:53:53.3720,2.73,-4.91,-1.95,5.94
2022-11-20 11:53:53.3870,4.04,-5.6,-2.63,7.38
2022-11-20 11:53:53.3880,4.77,-5.89,-3.57,8.37
2022-11-20 11:53:53.4030,4.63,-5.82,-4.12,8.5
2022-11-20 11:53:53.4040,3.87,-5.81,-4.65,8.38
2022-11-20 11:53:53.4340,3.08,-5.95,-5.32,8.55
2022-11-20 11:53:53.4350,2.5,-6.29,-5.53,8.74
2022-11-20 11:53:53.4570,2.08,-6.47,-5.46,8.71
2022-11-20 11:53:53.4580,1.86,-6.12,-5.53,8.45
2022-11-20 11:53:53.4710,1.74,-5.31,-5.81,8.06
2022-11-20 11:53:53.4720,1.56,-4.74,-5.35,7.31
2022-11-20 11:53:53.4870,1.38,-4.21,-4.26,6.14
2022-11-20 11:53:53.4880,1.29,-3.19,-3.66,5.02
2022-11-20 11:53:53.5030,1.08,-1.68,-3.1,3.68
2022-11-20 11:53:53.5040,0.55,-0.14,-2.79,2.84
2022-11-20 11:53:53.5340,-0.1,0.98,-3.12,3.27
2022-11-20 11:53:53.5350,-0.71,1.59,-3.29,3.72
2022-11-20 11:53:53.5570,-1.15,1.98,-3.38,4.08
2022-11-20 11:53:53.5570,-1.13,1.63,-1.82,2.69
2022-11-20 11:53:53.5710,-0.62,0.4,-0.24,0.77
2022-11-20 11:53:53.5710,0.0,-0.99,0.2,1.01
2022-11-20 11:53:53.5860,0.66,-1.58,-0.21,1.72
2022-11-20 11:53:53.5870,1.43,-0.98,-0.3,1.75
2022-11-20 11:53:53.6030,2.14,0.58,-0.05,2.21
2022-11-20 11:53:53.6040,1.96,1.82,0.13,2.67
2022-11-20 11:53:53.6330,0.8,1.86,-0.94,2.23
2022-11-20 11:53:53.6340,-0.08,1.5,1.42,2.06
2022-11-20 11:53:53.6560,-0.34,1.66,0.74,1.84
2022-11-20 11:53:53.6570,-2.17,2.61,5.18,6.19
2022-11-20 11:53:53.6700,-1.06,7.45,11.59,13.81
2022-11-20 11:53:53.6710,3.19,14.23,11.46,18.54
2022-11-20 11:53:53.6860,5.07,14.32,6.42,16.49
2022-11-20 11:53:53.6870,2.56,7.69,2.05,8.36
2022-11-20 11:53:53.7020,0.61,2.0,0.58,2.16
2022-11-20 11:53:53.7030,-1.78,-1.56,-0.01,2.36
2022-11-20 11:53:53.7330,-4.65,-3.23,-4.87,7.46
2022-11-20 11:53:53.7330,-4.53,-3.28,-3.04,6.36
2022-11-20 11:53:53.7570,-1.66,3.61,3.85,5.53
2022-11-20 11:53:53.7570,-1.29,13.02,2.09,13.24
2022-11-20 11:53:53.7700,-2.61,13.92,-0.89,14.19
2022-11-20 11:53:53.7710,-1.93,7.11,-0.38,7.37
2022-11-20 11:53:53.7860,0.1,0.07,-1.32,1.32
2022-11-20 11:53:53.7860,2.21,-4.4,-1.94,5.29
2022-11-20 11:53:53.8020,3.61,-6.36,-2.68,7.78
2022-11-20 11:53:53.8030,4.32,-5.4,-3.88,7.92
2022-11-20 11:53:53.8330,4.23,-3.42,-5.06,7.42
2022-11-20 11:53:53.8330,3.46,-1.34,-5.04,6.25
2022-11-20 11:53:53.8560,2.23,0.83,-3.63,4.34
2022-11-20 11:53:53.8570,0.75,2.67,-2.01,3.42
2022-11-20 11:53:53.8700,-0.22,3.33,-0.35,3.35
2022-11-20 11:53:53.8710,-0.6,2.54,1.33,2.92
2022-11-20 11:53:53.8850,-1.07,1.2,2.55,3.01
2022-11-20 11:53:53.8860,-1.83,0.18,3.12,3.62
2022-11-20 11:53:53.9020,-2.33,-0.68,3.0,3.85
2022-11-20 11:53:53.9030,-2.48,-1.47,2.99,4.15
2022-11-20 11:53:53.9320,-2.45,-2.01,3.24,4.53
2022-11-20 11:53:53.9330,-2.03,-1.94,3.7,4.64
2022-11-20 11:53:53.9560,-1.33,-1.17,4.33,4.67
2022-11-20 11:53:53.9570,-0.72,-0.42,4.29,4.37
2022-11-20 11:53:53.9700,-0.26,-0.36,2.39,2.43
2022-11-20 11:53:53.9710,0.11,-0.78,0.35,0.86
2022-11-20 11:53:53.9850,0.22,-1.09,-0.77,1.35
2022-11-20 11:53:53.9860,0.03,-1.06,-0.57,1.2
2022-11-20 11:53:54.0020,-0.06,-0.72,-0.08,0.72
2022-11-20 11:53:54.0030,0.33,-0.35,0.66,0.81
2022-11-20 11:53:54.0330,0.64,-0.03,3.04,3.1
2022-11-20 11:53:54.0340,0.02,0.35,4.1,4.11
2022-11-20 11:53:54.0550,-0.95,0.32,2.75,2.92
2022-11-20 11:53:54.0560,-1.04,-0.25,1.25,1.64
2022-11-20 11:53:54.0690,-0.75,-1.17,0.3,1.42
2022-11-20 11:53:54.0700,-0.68,-1.92,-0.54,2.1
2022-11-20 11:53:54.0850,-0.29,-1.88,-0.45,1.95
2022-11-20 11:53:54.0860,0.5,-0.65,1.09,1.36
2022-11-20 11:53:54.1020,0.83,1.26,2.01,2.51
2022-11-20 11:53:54.1020,0.32,2.47,1.02,2.69
2022-11-20 11:53:54.1180,-0.19,2.35,1.15,2.62
2022-11-20 11:53:54.1510,-0.59,1.11,0.96,1.58
2022-11-20 11:53:54.1530,-1.01,-0.38,0.06,1.08
2022-11-20 11:53:54.1690,-1.11,-1.39,-0.45,1.83
2022-11-20 11:53:54.1700,-0.76,-1.51,-0.29,1.71
2022-11-20 11:53:54.1860,-0.5,0.19,0.05,0.53
2022-11-20 11:53:54.1870,-0.71,2.97,-0.13,3.05
2022-11-20 11:53:54.2010,-0.87,5.89,0.07,5.95
2022-11-20 11:53:54.2020,-0.92,8.69,-0.23,8.74
2022-11-20 11:53:54.2180,-0.64,9.57,-1.24,9.67
2022-11-20 11:53:54.2190,0.27,8.03,-1.77,8.22
2022-11-20 11:53:54.2510,1.19,6.85,-2.7,7.45
2022-11-20 11:53:54.2520,1.52,8.61,-4.56,9.86
2022-11-20 11:53:54.2720,1.35,12.03,-5.97,13.49
2022-11-20 11:53:54.2730,0.91,14.93,-5.67,15.99
2022-11-20 11:53:54.2860,1.47,12.25,-1.35,12.41
2022-11-20 11:53:54.2870,1.39,8.25,0.18,8.36
2022-11-20 11:53:54.3010,1.33,5.92,0.51,6.08
2022-11-20 11:53:54.3020,1.46,3.04,-0.21,3.37
2022-11-20 11:53:54.3180,1.4,-0.45,-0.81,1.67
2022-11-20 11:53:54.3190,1.29,-4.04,-0.84,4.32
2022-11-20 11:53:54.3480,0.65,-7.6,-0.12,7.62
2022-11-20 11:53:54.3490,-0.5,-10.42,0.97,10.47
2022-11-20 11:53:54.3710,-1.42,-10.39,2.31,10.73
2022-11-20 11:53:54.3720,-2.1,-5.78,3.42,7.03
2022-11-20 11:53:54.3850,-3.13,-2.53,4.26,5.86
2022-11-20 11:53:54.3860,-3.8,-1.6,5.7,7.03
2022-11-20 11:53:54.4010,-3.92,-1.54,6.43,7.68
2022-11-20 11:53:54.4020,-4.01,-1.99,6.03,7.51
2022-11-20 11:53:54.4170,-3.8,-2.99,4.53,6.62
2022-11-20 11:53:54.4180,-3.01,-4.23,2.4,5.71
2022-11-20 11:53:54.4480,-1.76,-5.17,0.7,5.5
2022-11-20 11:53:54.4490,-0.53,-5.72,-0.84,5.8
2022-11-20 11:53:54.4710,0.68,-6.07,-1.69,6.33
2022-11-20 11:53:54.4720,1.86,-6.19,-2.15,6.81
2022-11-20 11:53:54.4850,3.16,-5.81,-2.01,6.91
2022-11-20 11:53:54.4860,4.46,-4.57,-2.19,6.75
2022-11-20 11:53:54.5010,5.69,-2.92,-2.89,7.01
2022-11-20 11:53:54.5010,6.26,-1.84,-3.88,7.59
2022-11-20 11:53:54.5170,5.83,-1.84,-5.09,7.95
2022-11-20 11:53:54.5180,5.0,-2.74,-5.83,8.15
2022-11-20 11:53:54.5480,4.36,-4.0,-6.24,8.59
2022-11-20 11:53:54.5490,3.9,-4.91,-6.29,8.88
2022-11-20 11:53:54.5710,3.47,-5.13,-6.0,8.62
2022-11-20 11:53:54.5720,3.29,-4.82,-5.46,7.99
2022-11-20 11:53:54.5850,3.22,-4.13,-4.55,6.93
2022-11-20 11:53:54.5860,2.4,-2.57,-2.68,4.42
2022-11-20 11:53:54.6010,1.1,-0.35,-1.29,1.73
2022-11-20 11:53:54.6010,-0.45,0.9,-1.16,1.53
2022-11-20 11:53:54.6170,-2.37,0.4,-1.26,2.71
2022-11-20 11:53:54.6180,-3.92,-1.13,-1.18,4.24
2022-11-20 11:53:54.6480,-4.37,-3.09,-0.95,5.43
2022-11-20 11:53:54.6490,-3.61,-4.34,-1.84,5.93
2022-11-20 11:53:54.6700,-1.9,-4.24,-2.88,5.46
2022-11-20 11:53:54.6710,0.29,-2.3,-3.29,4.02
2022-11-20 11:53:54.6850,1.7,-0.56,-3.03,3.51
2022-11-20 11:53:54.6850,2.27,0.16,-2.79,3.6
2022-11-20 11:53:54.7000,2.09,0.13,-2.31,3.11
2022-11-20 11:53:54.7010,1.38,-0.36,-1.47,2.04
2022-11-20 11:53:54.7170,0.53,-1.0,-0.48,1.22
2022-11-20 11:53:54.7180,-0.77,-1.07,0.53,1.42
2022-11-20 11:53:54.7480,-2.15,0.08,1.64,2.7
2022-11-20 11:53:54.7480,-3.19,1.86,1.39,3.94
2022-11-20 11:53:54.7700,-3.31,2.84,1.65,4.66
2022-11-20 11:53:54.7710,-1.65,2.83,1.45,3.58
2022-11-20 11:53:54.7840,-0.34,1.99,-1.12,2.3
2022-11-20 11:53:54.7850,2.08,4.33,6.31,7.93
2022-11-20 11:53:54.8000,3.84,9.69,5.75,11.9
2022-11-20 11:53:54.8010,5.32,13.66,2.32,14.84
2022-11-20 11:53:54.8160,3.82,10.32,0.98,11.04
2022-11-20 11:53:54.8170,0.34,4.89,-0.33,4.91
2022-11-20 11:53:54.8470,-2.29,0.54,2.49,3.42
2022-11-20 11:53:54.8480,-4.4,-2.29,3.41,6.01
2022-11-20 11:53:54.8700,-4.0,-1.84,1.0,4.51
2022-11-20 11:53:54.8710,-1.66,2.3,1.77,3.34
2022-11-20 11:53:54.8840,-0.52,6.73,1.42,6.89
2022-11-20 11:53:54.8850,-1.88,9.11,0.53,9.31
2022-11-20 11:53:54.8990,-2.74,7.66,-0.96,8.19
2022-11-20 11:53:54.9000,-0.78,3.22,-3.38,4.73
2022-11-20 11:53:54.9160,2.02,-0.35,-4.53,4.97
2022-11-20 11:53:54.9170,4.33,-2.66,-4.06,6.5
2022-11-20 11:53:54.9330,5.61,-4.03,-2.97,7.51
2022-11-20 11:53:54.9640,5.34,-4.11,-2.29,7.11
2022-11-20 11:53:54.9650,3.74,-2.79,-2.87,5.47
2022-11-20 11:53:54.9860,1.85,-0.81,-3.34,3.9
2022-11-20 11:53:54.9870,0.57,1.25,-2.23,2.61
2022-11-20 11:53:55.0010,-0.21,2.93,-0.21,2.94
2022-11-20 11:53:55.0020,-0.58,3.45,1.26,3.71
2022-11-20 11:53:55.0170,-0.64,2.33,1.58,2.88
2022-11-20 11:53:55.0170,-0.81,0.5,1.8,2.03
2022-11-20 11:53:55.0330,-1.51,-0.7,2.44,2.95
2022-11-20 11:53:55.0340,-2.4,-1.04,3.78,4.59
2022-11-20 11:53:55.0640,-2.69,-0.85,4.49,5.3
2022-11-20 11:53:55.0650,-2.11,-0.76,3.66,4.29
2022-11-20 11:53:55.0860,-1.46,-0.86,2.34,2.88
2022-11-20 11:53:55.0870,-1.17,-1.03,1.33,2.04
2022-11-20 11:53:55.1000,-1.0,-1.18,0.56,1.64
2022-11-20 11:53:55.1010,-0.8,-1.21,0.29,1.47
2022-11-20 11:53:55.1160,-0.71,-1.19,-0.22,1.4
2022-11-20 11:53:55.1170,-0.65,-1.1,0.45,1.35
2022-11-20 11:53:55.1320,-0.69,-0.63,1.81,2.03
2022-11-20 11:53:55.1330,-1.37,0.18,1.64,2.14
2022-11-20 11:53:55.1630,-1.41,0.34,1.2,1.88
2022-11-20 11:53:55.1640,-0.97,-0.08,0.81,1.26
2022-11-20 11:53:55.1860,-0.77,-0.59,0.37,1.03
2022-11-20 11:53:55.1860,-0.67,-0.84,0.84,1.36
2022-11-20 11:53:55.2000,-0.48,-0.72,1.27,1.53
2022-11-20 11:53:55.2010,-0.23,-0.33,1.22,1.28
2022-11-20 11:53:55.2150,-0.06,-0.18,1.59,1.6
2022-11-20 11:53:55.2160,-0.61,-0.05,1.5,1.62
2022-11-20 11:53:55.2320,-1.34,0.26,0.64,1.5
2022-11-20 11:53:55.2330,-1.09,0.21,0.2,1.12
2022-11-20 11:53:55.2630,-0.23,-0.1,0.16,0.29
2022-11-20 11:53:55.2640,0.5,0.12,0.5,0.71
2022-11-20 11:53:55.2850,0.86,1.19,1.02,1.78
2022-11-20 11:53:55.2860,0.42,2.03,-0.06,2.07
2022-11-20 11:53:55.3020,-0.05,1.54,-0.59,1.64
2022-11-20 11:53:55.3030,-0.27,0.88,-0.11,0.92
2022-11-20 11:53:55.3160,-1.14,1.81,-0.92,2.32
2022-11-20 11:53:55.3170,-2.46,3.59,-1.55,4.61
2022-11-20 11:53:55.3320,-3.21,5.28,-1.32,6.31
2022-11-20 11:53:55.3330,-3.55,7.11,-1.23,8.04
2022-11-20 11:53:55.3620,-3.52,9.16,-1.76,9.96
2022-11-20 11:53:55.3630,-2.86,11.17,-2.2,11.73
2022-11-20 11:53:55.3850,-1.73,12.29,-1.7,12.52
2022-11-20 11:53:55.3860,-0.89,12.12,-1.2,12.21
2022-11-20 11:53:55.3990,0.39,10.14,-1.44,10.24
2022-11-20 11:53:55.4000,1.67,8.09,-1.85,8.46
2022-11-20 11:53:55.4150,2.34,6.26,-3.05,7.34
2022-11-20 11:53:55.4160,3.37,4.16,-3.87,6.6
2022-11-20 11:53:55.4320,4.44,1.43,-2.93,5.5
2022-11-20 11:53:55.4330,4.85,-1.51,-1.55,5.31
2022-11-20 11:53:55.4620,3.89,-3.2,-1.34,5.21
2022-11-20 11:53:55.4630,2.45,-3.66,-1.5,4.65
2022-11-20 11:53:55.4850,1.55,-4.57,-0.22,4.83
2022-11-20 11:53:55.4860,0.11,-5.65,1.23,5.78
2022-11-20 11:53:55.4990,-2.13,-4.87,1.7,5.58
2022-11-20 11:53:55.5000,-3.71,-4.2,2.4,6.09
2022-11-20 11:53:55.5150,-4.75,-4.19,3.91,7.44
2022-11-20 11:53:55.5160,-5.37,-3.54,6.5,9.14
2022-11-20 11:53:55.5310,-5.15,-2.37,8.34,10.08
2022-11-20 11:53:55.5320,-4.11,-1.63,7.41,8.62
2022-11-20 11:53:55.5630,-3.59,-1.96,5.11,6.54
2022-11-20 11:53:55.5640,-3.16,-2.98,3.24,5.41
2022-11-20 11:53:55.5850,-2.31,-4.13,1.51,4.96
2022-11-20 11:53:55.5860,-0.91,-4.91,0.61,5.03
2022-11-20 11:53:55.5990,0.86,-5.09,-0.03,5.16
2022-11-20 11:53:55.6000,2.22,-4.68,-0.95,5.26
2022-11-20 11:53:55.6140,2.58,-3.94,-1.33,4.89
2022-11-20 11:53:55.6150,2.26,-3.35,-1.24,4.22
2022-11-20 11:53:55.6310,2.04,-3.14,-1.47,4.02
2022-11-20 11:53:55.6320,2.22,-3.34,-2.15,4.55
2022-11-20 11:53:55.6630,2.39,-4.09,-2.74,5.47
2022-11-20 11:53:55.6640,2.5,-5.07,-3.68,6.74
2022-11-20 11:53:55.6840,2.63,-6.01,-4.34,7.86
2022-11-20 11:53:55.6850,2.78,-6.19,-4.37,8.07
2022-11-20 11:53:55.6990,3.17,-5.21,-4.51,7.58
2022-11-20 11:53:55.7000,3.44,-3.43,-4.6,6.69
2022-11-20 11:53:55.7140,3.07,-1.62,-5.04,6.11
2022-11-20 11:53:55.7150,2.24,-0.56,-5.35,5.82
2022-11-20 11:53:55.7310,1.57,-0.65,-5.27,5.53
2022-11-20 11:53:55.7320,1.07,-1.29,-4.5,4.8
2022-11-20 11:53:55.7470,0.31,-1.58,-3.95,4.26
2022-11-20 11:53:55.7790,-0.51,-1.1,-3.9,4.08
2022-11-20 11:53:55.7800,-0.85,-0.3,-4.1,4.19
2022-11-20 11:53:55.8010,-0.3,0.1,-3.17,3.18
2022-11-20 11:53:55.8020,0.58,0.34,-1.97,2.08
2022-11-20 11:53:55.8150,0.87,0.25,-0.91,1.28
2022-11-20 11:53:55.8160,0.4,-0.18,-0.37,0.57
2022-11-20 11:53:55.8310,-0.45,-0.83,0.37,1.01
2022-11-20 11:53:55.8320,-0.95,-1.58,1.26,2.23
2022-11-20 11:53:55.8460,-0.73,-2.19,1.45,2.72
2022-11-20 11:53:55.8470,0.41,-2.36,1.1,2.63
2022-11-20 11:53:55.8770,1.67,-1.62,0.17,2.33
2022-11-20 11:53:55.8780,2.14,-0.47,-0.46,2.23
2022-11-20 11:53:55.9000,1.42,0.28,-0.93,1.72
2022-11-20 11:53:55.9010,-0.14,0.59,-0.47,0.76
2022-11-20 11:53:55.9150,0.6,1.49,2.35,2.84
2022-11-20 11:53:55.9160,0.91,1.13,-4.47,4.69
2022-11-20 11:53:55.9300,-0.72,1.81,1.94,2.74
2022-11-20 11:53:55.9310,-2.29,6.43,8.55,10.94
2022-11-20 11:53:55.9470,-1.92,13.87,5.51,15.04
2022-11-20 11:53:55.9480,1.0,15.3,5.78,16.38
2022-11-20 11:53:55.9780,1.8,8.75,2.83,9.37
2022-11-20 11:53:55.9790,1.03,2.4,1.22,2.88
2022-11-20 11:53:56.0000,-0.24,-1.83,0.04,1.84
2022-11-20 11:53:56.0010,-1.57,-4.0,-4.11,5.94
2022-11-20 11:53:56.0150,-1.91,-4.14,-2.86,5.38
2022-11-20 11:53:56.0150,-1.03,1.19,2.11,2.63
2022-11-20 11:53:56.0300,-2.22,12.79,2.64,13.24
2022-11-20 11:53:56.0310,-4.54,19.65,-1.66,20.23
2022-11-20 11:53:56.0470,-3.32,12.0,-2.57,12.71
2022-11-20 11:53:56.0480,-0.71,1.71,-1.81,2.58
2022-11-20 11:53:56.0780,1.55,-4.04,-1.2,4.49
2022-11-20 11:53:56.0790,3.25,-6.82,-2.14,7.85
2022-11-20 11:53:56.1000,3.8,-6.26,-4.13,8.4
2022-11-20 11:53:56.1010,3.06,-4.13,-5.26,7.35
2022-11-20 11:53:56.1150,1.54,-2.22,-5.73,6.33
2022-11-20 11:53:56.1150,0.88,-0.75,-4.49,4.63
2022-11-20 11:53:56.1300,1.35,0.65,-1.69,2.25
2022-11-20 11:53:56.1310,1.6,2.1,-0.1,2.64
2022-11-20 11:53:56.1460,0.98,3.02,0.88,3.29
2022-11-20 11:53:56.1470,-0.33,3.08,1.11,3.29
2022-11-20 11:53:56.1770,-1.53,2.22,1.38,3.02
2022-11-20 11:53:56.1780,-1.97,0.65,2.29,3.08
2022-11-20 11:53:56.2000,-1.76,-1.15,2.53,3.28
2022-11-20 11:53:56.2010,-1.27,-2.57,1.8,3.38
2022-11-20 11:53:56.2140,-0.82,-3.19,1.4,3.57
2022-11-20 11:53:56.2150,-0.52,-3.02,1.66,3.48
2022-11-20 11:53:56.2300,-0.3,-2.47,2.11,3.26
2022-11-20 11:53:56.2300,-0.02,-1.78,2.75,3.27
2022-11-20 11:53:56.2460,0.3,-0.83,3.77,3.87
2022-11-20 11:53:56.2470,0.25,0.46,3.88,3.91
2022-11-20 11:53:56.2780,-0.07,1.62,3.39,3.75
2022-11-20 11:53:56.2790,-0.32,2.02,2.66,3.35
2022-11-20 11:53:56.3000,-0.2,1.11,2.09,2.37
2022-11-20 11:53:56.3010,0.15,-0.66,1.59,1.72
2022-11-20 11:53:56.3150,0.57,-2.39,1.16,2.71
2022-11-20 11:53:56.3160,0.9,-3.41,0.98,3.66
2022-11-20 11:53:56.3300,0.81,-2.94,0.82,3.15
2022-11-20 11:53:56.3300,0.19,-1.17,0.34,1.23
2022-11-20 11:53:56.3460,-0.69,0.44,0.5,0.95
2022-11-20 11:53:56.3470,-0.99,1.02,1.26,1.89
2022-11-20 11:53:56.3770,-0.99,0.71,0.83,1.47
2022-11-20 11:53:56.3780,-0.98,0.18,0.23,1.02
2022-11-20 11:53:56.4000,-0.9,-0.21,0.2,0.94
2022-11-20 11:53:56.4010,-0.66,-0.4,1.14,1.37
2022-11-20 11:53:56.4140,-0.36,-0.4,1.51,1.6
2022-11-20 11:53:56.4140,0.12,-0.5,1.47,1.55
2022-11-20 11:53:56.4290,1.0,-0.63,1.7,2.07
2022-11-20 11:53:56.4300,1.42,-0.52,0.75,1.68
2022-11-20 11:53:56.4460,1.21,-0.14,-0.31,1.25
2022-11-20 11:53:56.4470,0.9,0.48,0.01,1.02
2022-11-20 11:53:56.4770,0.43,1.45,0.32,1.54
2022-11-20 11:53:56.4780,-0.53,2.27,-0.72,2.43
2022-11-20 11:53:56.4990,-1.06,2.54,-0.68,2.83
2022-11-20 11:53:56.5000,-1.37,3.26,0.19,3.54
2022-11-20 11:53:56.5140,-2.02,4.97,0.09,5.36
2022-11-20 11:53:56.5140,-2.99,7.49,-0.68,8.09
2022-11-20 11:53:56.5290,-3.34,9.73,-0.62,10.3
2022-11-20 11:53:56.5300,-3.39,10.05,-0.64,10.62
2022-11-20 11:53:56.5460,-3.26,9.77,-1.03,10.35
2022-11-20 11:53:56.5470,-2.7,9.85,-2.28,10.46
2022-11-20 11:53:56.5620,-1.52,11.27,-2.27,11.59
2022-11-20 11:53:56.5950,0.47,11.68,-0.85,11.72
2022-11-20 11:53:56.5960,2.38,10.97,-0.27,11.22
2022-11-20 11:53:56.6150,4.19,8.53,-0.23,9.5
2022-11-20 11:53:56.6160,5.39,5.64,0.39,7.81
2022-11-20 11:53:56.6300,5.84,1.94,0.62,6.18
2022-11-20 11:53:56.6310,6.42,-1.68,0.62,6.66
2022-11-20 11:53:56.6450,6.83,-5.63,0.04,8.85
2022-11-20 11:53:56.6460,6.94,-10.16,-1.18,12.36
2022-11-20 11:53:56.6620,6.39,-13.07,-1.78,14.65
2022-11-20 11:53:56.6630,4.57,-12.89,-0.15,13.67
2022-11-20 11:53:56.6930,1.03,-7.33,2.47,7.8
2022-11-20 11:53:56.6930,-1.95,-2.92,5.19,6.26
2022-11-20 11:53:56.7150,-3.24,-1.16,6.77,7.59
2022-11-20 11:53:56.7160,-3.11,-1.19,7.05,7.79
2022-11-20 11:53:56.7290,-2.96,-2.32,6.02,7.09
2022-11-20 11:53:56.7300,-2.74,-4.18,3.91,6.34
2022-11-20 11:53:56.7450,-1.9,-6.14,1.16,6.53
2022-11-20 11:53:56.7460,-0.39,-7.29,-0.84,7.34
2022-11-20 11:53:56.7610,1.57,-6.65,-2.11,7.15
2022-11-20 11:53:56.7620,3.16,-4.4,-3.14,6.26
2022-11-20 11:53:56.7920,4.17,-1.74,-3.86,5.94
2022-11-20 11:53:56.7930,4.9,0.05,-4.61,6.72
2022-11-20 11:53:56.8150,5.31,0.08,-5.71,7.79
2022-11-20 11:53:56.8160,5.34,-1.56,-6.75,8.74
2022-11-20 11:53:56.8290,5.38,-3.75,-7.59,10.03
2022-11-20 11:53:56.8300,5.43,-5.36,-8.08,11.11
2022-11-20 11:53:56.8450,5.02,-5.85,-8.04,11.13
2022-11-20 11:53:56.8460,4.31,-5.28,-7.73,10.3
2022-11-20 11:53:56.8610,3.32,-4.02,-7.41,9.06
2022-11-20 11:53:56.8620,1.91,-2.25,-6.57,7.2
2022-11-20 11:53:56.8920,0.11,-0.26,-5.44,5.44
2022-11-20 11:53:56.8930,-1.44,1.73,-4.48,5.01
2022-11-20 11:53:56.9150,-2.06,3.29,-3.52,5.24
2022-11-20 11:53:56.9150,-2.37,4.1,-2.83,5.51
2022-11-20 11:53:56.9290,-2.44,4.24,-1.49,5.11
2022-11-20 11:53:56.9300,-1.81,4.01,-0.14,4.4
2022-11-20 11:53:56.9440,-0.86,3.52,1.15,3.8
2022-11-20 11:53:56.9450,-0.41,2.86,2.0,3.51
2022-11-20 11:53:56.9610,-0.64,2.15,2.57,3.41
2022-11-20 11:53:56.9620,-1.08,1.01,1.07,1.82
2022-11-20 11:53:56.9910,-1.19,-0.42,-0.77,1.47
2022-11-20 11:53:56.9920,-1.77,-1.63,-0.47,2.45
