time,ax,ay,az,atotal
2022-11-13 14:8:54.8690,-5.78,-1.32,-0.34,5.93
2022-11-13 14:8:54.8700,-5.87,-1.12,-0.38,5.98
2022-11-13 14:8:54.8860,-5.81,-0.99,-0.33,5.9
2022-11-13 14:8:54.8870,-5.66,-0.95,-0.07,5.73
2022-11-13 14:8:54.9020,-5.4,-0.92,0.37,5.49
2022-11-13 14:8:54.9030,-5.12,-0.8,0.65,5.22
2022-11-13 14:8:54.9180,-4.89,-0.78,0.26,4.95
2022-11-13 14:8:54.9190,-4.58,-0.94,-0.68,4.72
2022-11-13 14:8:54.9350,-4.04,-1.21,-1.94,4.64
2022-11-13 14:8:54.9360,-3.32,-1.52,-3.19,4.84
2022-11-13 14:8:55.0020,-2.52,-1.86,-3.96,5.04
2022-11-13 14:8:55.0030,-1.69,-2.06,-3.82,4.65
2022-11-13 14:8:55.0190,-0.83,-1.77,-3.08,3.64
2022-11-13 14:8:55.0200,-0.17,-1.01,-2.21,2.43
2022-11-13 14:8:55.0360,0.1,-0.09,-1.8,1.8
2022-11-13 14:8:55.0360,-0.23,0.5,-2.09,2.16
2022-11-13 14:8:55.0520,-1.2,0.26,-2.85,3.1
2022-11-13 14:8:55.0530,-2.42,-1.07,-3.81,4.63
2022-11-13 14:8:55.0680,-3.06,-3.03,-4.28,6.07
2022-11-13 14:8:55.0690,-3.21,-4.91,-3.97,7.08
2022-11-13 14:8:55.1350,-3.06,-6.2,-3.41,7.7
2022-11-13 14:8:55.1360,-2.66,-6.39,-3.1,7.58
2022-11-13 14:8:55.1540,-2.42,-5.53,-2.91,6.7
2022-11-13 14:8:55.1540,-2.53,-4.22,-2.57,5.55
2022-11-13 14:8:55.1690,-2.67,-2.87,-1.86,4.33
2022-11-13 14:8:55.1700,-2.68,-1.83,-0.98,3.38
2022-11-13 14:8:55.1850,-2.5,-1.4,-0.15,2.86
2022-11-13 14:8:55.1860,-2.1,-1.64,0.73,2.76
2022-11-13 14:8:55.2010,-1.67,-2.51,1.76,3.49
2022-11-13 14:8:55.2020,-1.15,-3.9,2.61,4.83
2022-11-13 14:8:55.2680,-0.53,-5.48,2.98,6.26
2022-11-13 14:8:55.2690,0.09,-6.8,2.99,7.42
2022-11-13 14:8:55.2860,0.68,-7.56,3.17,8.22
2022-11-13 14:8:55.2870,1.25,-7.39,3.58,8.3
2022-11-13 14:8:55.3030,1.72,-6.13,4.11,7.57
2022-11-13 14:8:55.3040,1.96,-3.83,4.47,6.2
2022-11-13 14:8:55.3180,1.94,-1.53,4.64,5.25
2022-11-13 14:8:55.3190,1.7,0.03,4.51,4.81
2022-11-13 14:8:55.3340,1.43,0.96,4.37,4.69
2022-11-13 14:8:55.3350,1.37,1.54,4.55,4.99
2022-11-13 14:8:55.4010,1.29,2.03,3.91,4.59
2022-11-13 14:8:55.4020,1.02,2.58,3.31,4.31
2022-11-13 14:8:55.4200,0.26,2.91,3.4,4.48
2022-11-13 14:8:55.4210,-1.11,2.34,4.45,5.14
2022-11-13 14:8:55.4360,-2.03,1.18,5.69,6.15
2022-11-13 14:8:55.4360,-2.6,0.39,5.42,6.02
2022-11-13 14:8:55.4510,-3.12,-0.15,4.7,5.64
2022-11-13 14:8:55.4520,-3.38,-0.02,4.0,5.23
2022-11-13 14:8:55.4680,-3.35,0.79,3.22,4.71
2022-11-13 14:8:55.4690,-2.95,1.87,2.91,4.54
2022-11-13 14:8:55.5350,-2.37,2.88,2.82,4.67
2022-11-13 14:8:55.5360,-1.7,3.6,2.91,4.93
2022-11-13 14:8:55.5530,-0.96,3.93,3.19,5.15
2022-11-13 14:8:55.5540,-0.21,4.0,3.47,5.29
2022-11-13 14:8:55.5690,0.59,4.05,3.55,5.41
2022-11-13 14:8:55.5700,1.5,4.06,3.34,5.46
2022-11-13 14:8:55.5840,2.45,4.08,3.07,5.66
2022-11-13 14:8:55.5850,3.39,4.11,2.97,6.09
2022-11-13 14:8:55.6010,4.29,4.11,2.9,6.61
2022-11-13 14:8:55.6020,4.99,4.19,2.84,7.1
2022-11-13 14:8:55.6670,5.24,4.13,2.71,7.2
2022-11-13 14:8:55.6680,4.63,3.81,2.53,6.5
2022-11-13 14:8:55.6860,2.83,3.2,2.21,4.8
2022-11-13 14:8:55.6870,1.48,2.79,1.72,3.59
2022-11-13 14:8:55.7020,0.62,2.17,1.23,2.57
2022-11-13 14:8:55.7030,-0.13,1.14,0.61,1.29
2022-11-13 14:8:55.7180,-0.8,-0.26,-0.3,0.89
2022-11-13 14:8:55.7190,-1.32,-2.0,-1.51,2.83
2022-11-13 14:8:55.7350,-1.57,-3.73,-3.14,5.12
2022-11-13 14:8:55.7350,-1.16,-4.97,-4.76,6.97
2022-11-13 14:8:55.8020,-0.39,-5.08,-5.89,7.78
2022-11-13 14:8:55.8020,0.1,-3.84,-6.51,7.55
2022-11-13 14:8:55.8200,-0.01,-2.26,-6.63,7.0
2022-11-13 14:8:55.8210,-0.32,-1.23,-6.23,6.35
2022-11-13 14:8:55.8360,-0.3,-0.67,-5.37,5.41
2022-11-13 14:8:55.8370,-0.12,-0.43,-4.2,4.22
2022-11-13 14:8:55.8510,-0.13,-0.15,-2.19,2.19
2022-11-13 14:8:55.8520,-0.74,0.26,0.32,0.84
2022-11-13 14:8:55.8680,-1.98,1.58,1.15,2.78
2022-11-13 14:8:55.8690,-2.61,3.7,1.93,4.92
2022-11-13 14:8:55.9370,-1.97,4.38,4.95,6.89
2022-11-13 14:8:55.9370,-1.34,2.75,7.51,8.1
2022-11-13 14:8:55.9530,-0.01,0.02,7.12,7.12
2022-11-13 14:8:55.9540,1.24,-3.51,4.54,5.87
2022-11-13 14:8:55.9690,3.49,-8.27,-2.62,9.35
2022-11-13 14:8:55.9700,6.25,-10.7,-6.4,13.94
2022-11-13 14:8:55.9850,7.57,-8.37,-0.7,11.3
2022-11-13 14:8:55.9850,7.94,-4.45,3.43,9.72
2022-11-13 14:8:56.0010,7.39,-1.66,4.67,8.89
2022-11-13 14:8:56.0020,5.97,0.24,4.64,7.56
2022-11-13 14:8:56.0700,4.29,1.63,4.27,6.26
2022-11-13 14:8:56.0700,2.91,2.87,3.81,5.58
2022-11-13 14:8:56.0870,1.96,3.84,3.52,5.56
2022-11-13 14:8:56.0870,1.27,4.46,3.34,5.71
2022-11-13 14:8:56.1030,0.6,4.9,3.04,5.79
2022-11-13 14:8:56.1030,-0.06,5.1,2.66,5.75
2022-11-13 14:8:56.1180,-0.55,4.73,2.46,5.35
2022-11-13 14:8:56.1190,-0.96,4.01,2.23,4.68
2022-11-13 14:8:56.1350,-1.28,2.86,2.02,3.72
2022-11-13 14:8:56.1360,-1.47,1.41,2.19,2.99
2022-11-13 14:8:56.2030,-1.55,-0.19,2.35,2.82
2022-11-13 14:8:56.2040,-1.65,-1.7,2.14,3.19
2022-11-13 14:8:56.2200,-1.79,-3.01,1.15,3.68
2022-11-13 14:8:56.2210,-2.06,-3.71,-0.19,4.24
2022-11-13 14:8:56.2360,-2.41,-3.44,-1.03,4.32
2022-11-13 14:8:56.2370,-2.57,-2.62,-1.07,3.82
2022-11-13 14:8:56.2510,-2.43,-1.84,-0.15,3.05
2022-11-13 14:8:56.2520,-2.27,-1.23,0.94,2.74
2022-11-13 14:8:56.2680,-2.43,-0.82,1.49,2.96
2022-11-13 14:8:56.2690,-2.84,-0.42,1.32,3.15
2022-11-13 14:8:56.3350,-3.09,0.05,0.74,3.17
2022-11-13 14:8:56.3360,-2.99,0.58,-0.06,3.04
2022-11-13 14:8:56.3530,-2.44,0.95,-0.95,2.78
2022-11-13 14:8:56.3540,-1.75,0.88,-1.91,2.73
2022-11-13 14:8:56.3690,-1.27,0.41,-2.68,2.99
2022-11-13 14:8:56.3700,-0.97,-0.25,-2.9,3.06
2022-11-13 14:8:56.3850,-0.8,-0.79,-2.62,2.85
2022-11-13 14:8:56.3850,-0.7,-1.09,-2.06,2.43
2022-11-13 14:8:56.4010,-0.65,-1.14,-1.46,1.96
2022-11-13 14:8:56.4020,-0.55,-0.91,-0.99,1.45
2022-11-13 14:8:56.4690,-0.39,-0.44,-0.59,0.83
2022-11-13 14:8:56.4700,-0.25,0.16,-0.1,0.31
2022-11-13 14:8:56.4870,-0.06,0.75,0.2,0.77
2022-11-13 14:8:56.4870,0.12,1.12,0.28,1.16
2022-11-13 14:8:56.5030,0.31,1.21,-0.03,1.24
2022-11-13 14:8:56.5030,0.54,1.04,-0.8,1.41
2022-11-13 14:8:56.5180,0.8,0.69,-2.05,2.3
2022-11-13 14:8:56.5190,0.89,0.35,-2.97,3.12
2022-11-13 14:8:56.5350,0.69,0.13,-3.26,3.33
2022-11-13 14:8:56.5360,0.12,-0.05,-3.12,3.12
2022-11-13 14:8:56.6020,-0.53,-0.37,-2.81,2.88
2022-11-13 14:8:56.6030,-1.04,-0.94,-2.45,2.82
2022-11-13 14:8:56.6200,-1.22,-1.59,-2.04,2.85
2022-11-13 14:8:56.6210,-1.34,-2.08,-1.59,2.94
2022-11-13 14:8:56.6360,-1.62,-2.29,-1.26,3.07
2022-11-13 14:8:56.6370,-1.93,-2.18,-1.38,3.22
2022-11-13 14:8:56.6520,-2.23,-2.02,-1.9,3.55
2022-11-13 14:8:56.6520,-2.51,-2.0,-2.27,3.93
2022-11-13 14:8:56.6680,-2.7,-2.07,-2.3,4.1
2022-11-13 14:8:56.6690,-2.76,-2.11,-2.24,4.13
2022-11-13 14:8:56.7350,-2.73,-2.06,-2.26,4.09
2022-11-13 14:8:56.7350,-2.75,-1.99,-2.4,4.15
2022-11-13 14:8:56.7540,-2.91,-1.93,-2.44,4.25
2022-11-13 14:8:56.7540,-3.26,-2.02,-2.22,4.43
2022-11-13 14:8:56.7690,-3.67,-2.63,-1.79,4.85
2022-11-13 14:8:56.7700,-3.72,-3.93,-1.55,5.62
2022-11-13 14:8:56.7850,-3.45,-5.13,-1.86,6.45
2022-11-13 14:8:56.7850,-2.98,-6.03,-2.57,7.2
2022-11-13 14:8:56.8010,-2.48,-6.54,-3.26,7.71
2022-11-13 14:8:56.8020,-2.03,-6.44,-3.4,7.56
2022-11-13 14:8:56.8680,-1.48,-5.3,-2.98,6.25
2022-11-13 14:8:56.8680,-0.93,-3.56,-2.49,4.44
2022-11-13 14:8:56.8870,-0.66,-2.07,-2.12,3.03
2022-11-13 14:8:56.8880,-0.43,-0.96,-1.88,2.15
2022-11-13 14:8:56.9020,-0.14,-0.25,-1.41,1.43
2022-11-13 14:8:56.9030,0.24,-0.15,-0.56,0.62
2022-11-13 14:8:56.9180,0.62,-0.47,0.54,0.94
2022-11-13 14:8:56.9190,0.85,-0.67,1.72,2.03
2022-11-13 14:8:56.9350,1.29,-1.0,2.67,3.12
2022-11-13 14:8:56.9350,1.84,-1.7,3.48,4.28
2022-11-13 14:8:57.0010,2.4,-2.6,4.33,5.59
2022-11-13 14:8:57.0020,2.8,-3.19,4.33,6.06
2022-11-13 14:8:57.0200,3.28,-3.92,3.45,6.16
2022-11-13 14:8:57.0200,3.87,-4.79,4.34,7.53
2022-11-13 14:8:57.0350,3.41,-4.82,5.17,7.84
2022-11-13 14:8:57.0360,2.35,-3.79,5.5,7.08
2022-11-13 14:8:57.0500,0.82,-2.19,3.28,4.02
2022-11-13 14:8:57.0510,-1.22,-1.09,2.61,3.08
2022-11-13 14:8:57.0680,-2.42,-0.36,1.21,2.72
2022-11-13 14:8:57.0690,-2.89,0.04,-0.03,2.89
2022-11-13 14:8:57.1350,-2.99,0.52,0.23,3.04
2022-11-13 14:8:57.1350,-2.82,0.98,1.4,3.29
2022-11-13 14:8:57.1530,-2.49,1.57,2.69,3.98
2022-11-13 14:8:57.1540,-2.3,2.19,3.4,4.65
2022-11-13 14:8:57.1690,-2.2,2.65,4.25,5.47
2022-11-13 14:8:57.1700,-2.15,3.11,5.03,6.29
2022-11-13 14:8:57.1840,-2.01,3.74,5.34,6.82
2022-11-13 14:8:57.1850,-1.87,4.39,5.41,7.21
2022-11-13 14:8:57.2010,-1.48,4.8,5.42,7.38
2022-11-13 14:8:57.2020,-0.81,4.99,5.2,7.25
2022-11-13 14:8:57.2680,0.12,5.04,4.62,6.83
2022-11-13 14:8:57.2690,1.11,5.01,4.06,6.54
2022-11-13 14:8:57.2860,1.95,4.93,3.66,6.44
2022-11-13 14:8:57.2870,2.46,4.74,3.37,6.31
2022-11-13 14:8:57.3020,2.59,4.54,3.1,6.07
2022-11-13 14:8:57.3030,2.18,4.37,2.91,5.68
2022-11-13 14:8:57.3180,1.0,4.06,2.57,4.9
2022-11-13 14:8:57.3190,0.03,3.75,1.83,4.17
2022-11-13 14:8:57.3340,-0.54,3.4,0.82,3.53
2022-11-13 14:8:57.3350,-1.09,2.74,-0.39,2.97
2022-11-13 14:8:57.4000,-1.52,1.67,-1.7,2.82
2022-11-13 14:8:57.4010,-1.82,0.09,-3.17,3.65
2022-11-13 14:8:57.4200,-1.86,-2.13,-4.88,5.64
2022-11-13 14:8:57.4200,-1.45,-4.69,-6.49,8.13
2022-11-13 14:8:57.4360,-0.75,-6.72,-7.78,10.3
2022-11-13 14:8:57.4370,-0.16,-7.31,-8.38,11.12
2022-11-13 14:8:57.4510,0.22,-5.99,-7.74,9.78
2022-11-13 14:8:57.4520,0.32,-3.92,-6.19,7.33
2022-11-13 14:8:57.4680,0.11,-2.31,-4.31,4.89
2022-11-13 14:8:57.4690,-0.27,-1.02,-2.37,2.59
2022-11-13 14:8:57.5340,-0.65,-0.39,-0.38,0.84
2022-11-13 14:8:57.5350,-1.05,-0.85,0.1,1.35
2022-11-13 14:8:57.5530,-2.21,-2.34,-2.63,4.15
2022-11-13 14:8:57.5540,-3.42,-4.3,-2.26,5.94
2022-11-13 14:8:57.5690,-2.06,-5.44,5.12,7.74
2022-11-13 14:8:57.5700,-0.18,-4.51,9.14,10.19
2022-11-13 14:8:57.5850,1.44,-1.98,9.62,9.92
2022-11-13 14:8:57.5850,3.83,-0.02,9.1,9.87
2022-11-13 14:8:57.6010,6.32,1.09,7.09,9.56
2022-11-13 14:8:57.6020,9.04,2.12,-0.1,9.28
2022-11-13 14:8:57.6690,10.06,2.57,-4.9,11.48
2022-11-13 14:8:57.6700,7.18,2.22,1.92,7.75
2022-11-13 14:8:57.6870,5.62,2.68,4.22,7.52
2022-11-13 14:8:57.6880,4.3,3.38,5.32,7.62
2022-11-13 14:8:57.7030,3.22,4.02,5.17,7.29
2022-11-13 14:8:57.7030,2.45,4.19,4.53,6.63
2022-11-13 14:8:57.7180,1.9,3.96,3.91,5.88
2022-11-13 14:8:57.7190,1.63,3.37,3.34,5.01
2022-11-13 14:8:57.7350,1.57,2.18,2.89,3.94
2022-11-13 14:8:57.7360,1.31,0.68,2.78,3.14
2022-11-13 14:8:57.8010,0.86,-0.74,3.0,3.2
2022-11-13 14:8:57.8020,0.26,-1.94,2.56,3.22
2022-11-13 14:8:57.8200,-0.46,-2.98,1.27,3.27
2022-11-13 14:8:57.8200,-1.31,-3.69,0.02,3.91
2022-11-13 14:8:57.8360,-2.4,-3.86,-1.05,4.66
2022-11-13 14:8:57.8370,-3.6,-3.4,-1.65,5.21
2022-11-13 14:8:57.8510,-4.44,-2.49,-1.37,5.27
2022-11-13 14:8:57.8520,-4.72,-1.77,-0.15,5.04
2022-11-13 14:8:57.8680,-4.78,-1.31,1.38,5.14
2022-11-13 14:8:57.8690,-4.88,-0.75,2.41,5.49
2022-11-13 14:8:57.9350,-4.88,-0.12,2.96,5.7
2022-11-13 14:8:57.9360,-4.59,0.68,2.94,5.49
2022-11-13 14:8:57.9530,-4.09,1.7,2.33,5.0
2022-11-13 14:8:57.9540,-3.58,2.68,1.39,4.68
2022-11-13 14:8:57.9690,-3.08,3.39,0.0,4.58
2022-11-13 14:8:57.9690,-2.54,3.68,-1.86,4.84
2022-11-13 14:8:57.9840,-1.87,3.25,-4.0,5.48
2022-11-13 14:8:57.9850,-1.25,1.95,-5.62,6.07
2022-11-13 14:8:58.0010,-0.81,0.31,-6.18,6.24
2022-11-13 14:8:58.0020,-0.25,-0.95,-5.78,5.86
2022-11-13 14:8:58.0700,0.2,-1.71,-4.41,4.73
2022-11-13 14:8:58.0710,0.55,-2.01,-2.5,3.25
2022-11-13 14:8:58.0870,1.08,-1.92,-0.65,2.29
2022-11-13 14:8:58.0880,1.96,-1.39,0.52,2.45
2022-11-13 14:8:58.1020,2.74,-0.57,0.45,2.83
2022-11-13 14:8:58.1030,2.92,0.25,-0.9,3.06
2022-11-13 14:8:58.1180,2.0,0.65,-3.13,3.77
2022-11-13 14:8:58.1190,0.11,0.39,-4.28,4.29
2022-11-13 14:8:58.1350,-1.59,-0.21,-3.75,4.07
2022-11-13 14:8:58.1360,-2.62,-0.88,-2.68,3.84
2022-11-13 14:8:58.2010,-3.19,-1.58,-1.74,3.96
2022-11-13 14:8:58.2020,-3.53,-2.11,-0.94,4.21
2022-11-13 14:8:58.2200,-3.83,-2.4,-0.31,4.53
2022-11-13 14:8:58.2200,-4.18,-2.54,0.15,4.89
2022-11-13 14:8:58.2350,-4.59,-2.69,0.11,5.32
2022-11-13 14:8:58.2360,-4.95,-2.9,-0.62,5.77
2022-11-13 14:8:58.2520,-5.01,-2.97,-1.64,6.05
2022-11-13 14:8:58.2520,-4.64,-2.8,-2.4,5.92
2022-11-13 14:8:58.2680,-3.78,-2.38,-2.69,5.21
2022-11-13 14:8:58.2690,-3.09,-2.07,-2.56,4.51
2022-11-13 14:8:58.3350,-2.76,-1.92,-2.44,4.15
2022-11-13 14:8:58.3360,-2.58,-2.02,-2.5,4.12
2022-11-13 14:8:58.3560,-2.48,-2.96,-2.35,4.52
2022-11-13 14:8:58.3570,-2.34,-4.6,-1.47,5.36
2022-11-13 14:8:58.3680,-1.92,-5.72,-0.28,6.04
2022-11-13 14:8:58.3690,-1.28,-6.0,0.17,6.13
2022-11-13 14:8:58.3840,-0.79,-5.8,-0.38,5.86
2022-11-13 14:8:58.3850,-0.43,-5.41,-1.45,5.61
2022-11-13 14:8:58.4010,-0.2,-4.76,-2.37,5.32
2022-11-13 14:8:58.4020,-0.21,-3.97,-2.58,4.73
2022-11-13 14:8:58.4680,-0.3,-3.15,-2.11,3.8
2022-11-13 14:8:58.4690,-0.28,-2.19,-1.29,2.55
2022-11-13 14:8:58.4870,-0.15,-1.17,-0.31,1.21
2022-11-13 14:8:58.4880,-0.09,-0.33,0.53,0.63
2022-11-13 14:8:58.5020,0.11,0.08,1.08,1.08
2022-11-13 14:8:58.5030,0.27,0.29,1.68,1.72
2022-11-13 14:8:58.5180,0.26,0.35,2.44,2.47
2022-11-13 14:8:58.5190,0.33,0.13,3.04,3.06
2022-11-13 14:8:58.5340,0.58,-0.36,3.47,3.53
2022-11-13 14:8:58.5350,1.02,-1.16,3.86,4.15
2022-11-13 14:8:58.6010,1.73,-2.26,4.18,5.05
2022-11-13 14:8:58.6020,2.63,-3.52,4.2,6.07
2022-11-13 14:8:58.6190,3.31,-4.77,3.1,6.58
2022-11-13 14:8:58.6200,3.93,-6.07,1.34,7.35
2022-11-13 14:8:58.6360,3.79,-6.51,0.63,7.55
2022-11-13 14:8:58.6360,2.56,-5.25,1.41,6.0
2022-11-13 14:8:58.6510,0.54,-3.17,2.15,3.86
2022-11-13 14:8:58.6520,-1.4,-1.35,4.04,4.48
2022-11-13 14:8:58.6680,-2.25,-0.72,4.38,4.97
2022-11-13 14:8:58.6690,-2.57,-0.6,3.18,4.13
2022-11-13 14:8:58.7340,-2.73,-0.35,3.09,4.13
2022-11-13 14:8:58.7340,-2.75,0.33,4.06,4.91
2022-11-13 14:8:58.7530,-2.44,1.5,5.11,5.85
2022-11-13 14:8:58.7530,-1.79,2.71,5.66,6.52
2022-11-13 14:8:58.7690,-1.23,3.85,5.51,6.83
2022-11-13 14:8:58.7690,-0.87,4.71,4.93,6.87
2022-11-13 14:8:58.7840,-0.4,5.2,4.2,6.69
2022-11-13 14:8:58.7850,0.3,5.5,3.58,6.56
2022-11-13 14:8:58.8010,1.14,5.76,3.11,6.64
2022-11-13 14:8:58.8020,2.07,5.86,2.67,6.76
2022-11-13 14:8:58.8670,3.02,5.81,2.43,6.98
2022-11-13 14:8:58.8680,3.72,5.58,2.56,7.17
2022-11-13 14:8:58.8860,3.97,5.24,2.8,7.14
2022-11-13 14:8:58.8870,3.55,4.85,3.0,6.71
2022-11-13 14:8:58.9020,2.15,4.23,3.2,5.72
2022-11-13 14:8:58.9030,0.65,3.56,3.39,4.95
2022-11-13 14:8:58.9180,-0.29,2.98,3.68,4.74
2022-11-13 14:8:58.9190,-1.03,2.26,4.01,4.71
2022-11-13 14:8:58.9340,-1.62,1.45,4.2,4.72
2022-11-13 14:8:58.9350,-2.04,0.6,4.01,4.53
2022-11-13 14:8:58.9990,-2.3,-0.23,3.45,4.15
2022-11-13 14:8:59.0000,-2.38,-1.05,2.31,3.47
2022-11-13 14:8:59.0200,-2.24,-1.71,0.33,2.83
2022-11-13 14:8:59.0200,-1.78,-2.17,-2.15,3.53
2022-11-13 14:8:59.0360,-0.92,-2.47,-4.37,5.1
2022-11-13 14:8:59.0370,0.03,-2.58,-5.55,6.12
2022-11-13 14:8:59.0510,0.79,-2.53,-5.87,6.44
2022-11-13 14:8:59.0520,1.4,-2.34,-5.68,6.3
2022-11-13 14:8:59.0670,1.78,-1.82,-5.45,6.01
2022-11-13 14:8:59.0680,2.0,-0.92,-5.24,5.68
2022-11-13 14:8:59.1370,2.19,-0.29,-4.8,5.28
2022-11-13 14:8:59.1370,2.27,-0.17,-3.91,4.52
2022-11-13 14:8:59.1520,2.33,0.01,-2.76,3.61
2022-11-13 14:8:59.1520,2.34,0.41,-1.59,2.85
2022-11-13 14:8:59.1690,2.27,0.93,-0.66,2.54
2022-11-13 14:8:59.1690,1.82,1.4,0.04,2.29
2022-11-13 14:8:59.1850,0.95,2.0,0.6,2.29
2022-11-13 14:8:59.1850,0.55,2.81,0.01,2.86
2022-11-13 14:8:59.2010,0.7,2.67,-1.08,2.96
2022-11-13 14:8:59.2020,-0.12,0.3,-1.42,1.45
2022-11-13 14:8:59.2680,-1.45,-3.63,-2.37,4.57
2022-11-13 14:8:59.2680,-1.2,-7.88,-3.42,8.67
2022-11-13 14:8:59.2870,-0.91,-10.69,-0.13,10.72
2022-11-13 14:8:59.2870,-0.22,-10.47,4.96,11.58
2022-11-13 14:8:59.3020,1.68,-7.69,7.47,10.85
2022-11-13 14:8:59.3030,3.99,-4.71,7.91,10.03
2022-11-13 14:8:59.3180,5.96,-1.97,7.35,9.66
2022-11-13 14:8:59.3190,6.75,0.6,5.9,8.98
2022-11-13 14:8:59.3340,5.98,2.67,4.37,7.87
2022-11-13 14:8:59.3350,4.23,4.08,2.28,6.3
2022-11-13 14:8:59.4020,2.7,4.85,1.27,5.69
2022-11-13 14:8:59.4030,1.89,5.28,1.83,5.89
2022-11-13 14:8:59.4160,1.46,5.42,2.61,6.19
2022-11-13 14:8:59.4170,1.13,5.43,3.06,6.33
2022-11-13 14:8:59.4330,0.68,4.8,3.34,5.88
2022-11-13 14:8:59.4340,0.22,3.47,3.4,4.86
2022-11-13 14:8:59.4500,0.05,2.0,3.24,3.8
2022-11-13 14:8:59.4510,0.15,0.47,3.29,3.32
2022-11-13 14:8:59.4680,0.53,-0.86,3.65,3.78
2022-11-13 14:8:59.4690,0.73,-1.45,3.75,4.08
2022-11-13 14:8:59.5370,0.58,-2.31,4.25,4.87
2022-11-13 14:8:59.5380,0.15,-3.08,3.25,4.48
2022-11-13 14:8:59.5530,-0.44,-3.08,1.3,3.37
2022-11-13 14:8:59.5540,-1.62,-2.8,-0.76,3.32
2022-11-13 14:8:59.5690,-2.48,-1.88,-1.68,3.53
2022-11-13 14:8:59.5690,-2.65,-1.09,-0.43,2.89
2022-11-13 14:8:59.5840,-2.42,-0.54,1.13,2.72
2022-11-13 14:8:59.5850,-2.33,-0.07,2.02,3.08
2022-11-13 14:8:59.6010,-2.38,0.27,1.89,3.05
2022-11-13 14:8:59.6020,-2.29,0.72,1.24,2.7
2022-11-13 14:8:59.6690,-1.88,1.24,0.52,2.31
2022-11-13 14:8:59.6700,-1.15,1.58,-0.42,1.99
2022-11-13 14:8:59.6860,-0.39,1.33,-1.4,1.97
2022-11-13 14:8:59.6870,0.27,0.62,-2.2,2.3
2022-11-13 14:8:59.7020,0.85,-0.3,-2.65,2.79
2022-11-13 14:8:59.7030,1.4,-0.37,-2.58,2.95
2022-11-13 14:8:59.7180,1.57,-0.26,-1.93,2.5
2022-11-13 14:8:59.7190,1.2,-0.41,-1.02,1.62
2022-11-13 14:8:59.7330,0.49,-0.95,-0.22,1.09
2022-11-13 14:8:59.7340,0.03,-1.31,0.46,1.38
2022-11-13 14:8:59.8000,0.04,-1.33,0.96,1.64
2022-11-13 14:8:59.8010,0.03,-0.86,1.12,1.41
2022-11-13 14:8:59.8200,-0.04,0.0,1.03,1.03
2022-11-13 14:8:59.8210,-0.13,1.04,0.8,1.31
2022-11-13 14:8:59.8350,-0.14,1.77,0.63,1.88
2022-11-13 14:8:59.8360,-0.73,0.94,0.25,1.21
2022-11-13 14:8:59.8510,-1.4,0.3,-0.4,1.48
2022-11-13 14:8:59.8520,-1.73,0.15,-0.94,1.97
2022-11-13 14:8:59.8680,-1.79,0.29,-1.49,2.34
2022-11-13 14:8:59.8680,-1.71,0.51,-1.78,2.52
2022-11-13 14:8:59.9360,-1.39,0.58,-1.64,2.22
2022-11-13 14:8:59.9370,-0.89,0.51,-1.13,1.52
2022-11-13 14:8:59.9530,-0.61,0.32,-0.56,0.88
2022-11-13 14:8:59.9530,-0.72,0.07,-0.27,0.77
2022-11-13 14:8:59.9690,-1.0,-0.34,0.01,1.05
2022-11-13 14:8:59.9700,-1.13,-0.5,0.34,1.28
2022-11-13 14:8:59.9840,-1.23,-0.74,0.49,1.51
2022-11-13 14:8:59.9850,-1.37,-0.97,0.75,1.83
2022-11-13 14:9:00.0010,-1.52,-0.88,0.91,1.97
2022-11-13 14:9:00.0020,-1.54,-1.18,0.96,2.16
2022-11-13 14:9:00.0690,-1.24,-1.67,1.01,2.31
2022-11-13 14:9:00.0690,-0.63,-2.11,1.12,2.47
2022-11-13 14:9:00.0860,0.16,-2.75,1.32,3.05
2022-11-13 14:9:00.0870,0.92,-3.4,1.49,3.82
2022-11-13 14:9:00.1020,1.42,-3.65,1.49,4.19
2022-11-13 14:9:00.1020,1.77,-3.45,1.43,4.13
2022-11-13 14:9:00.1180,2.03,-3.02,1.25,3.84
2022-11-13 14:9:00.1180,2.07,-2.82,1.01,3.64
2022-11-13 14:9:00.1340,1.86,-2.85,0.76,3.48
2022-11-13 14:9:00.1350,1.65,-2.87,0.48,3.34
2022-11-13 14:9:00.2040,1.68,-2.67,0.27,3.16
2022-11-13 14:9:00.2050,1.87,-2.05,0.13,2.77
2022-11-13 14:9:00.2190,2.1,-1.13,0.1,2.38
2022-11-13 14:9:00.2200,2.28,-0.13,0.21,2.29
2022-11-13 14:9:00.2350,2.37,0.86,0.36,2.54
2022-11-13 14:9:00.2360,2.44,1.57,0.56,2.95
2022-11-13 14:9:00.2490,2.51,1.89,0.85,3.25
2022-11-13 14:9:00.2500,2.71,1.98,1.27,3.58
2022-11-13 14:9:00.2670,2.93,2.01,1.78,3.97
2022-11-13 14:9:00.2680,3.25,2.06,2.26,4.46
2022-11-13 14:9:00.3340,3.57,2.2,2.64,4.95
2022-11-13 14:9:00.3350,3.78,2.36,2.87,5.3
2022-11-13 14:9:00.3530,4.06,2.46,2.89,5.55
2022-11-13 14:9:00.3530,4.34,2.39,2.99,5.78
2022-11-13 14:9:00.3690,4.58,2.15,3.12,5.94
2022-11-13 14:9:00.3690,4.88,1.87,3.21,6.13
2022-11-13 14:9:00.3830,4.56,1.49,3.09,5.7
2022-11-13 14:9:00.3840,3.65,1.03,3.14,4.92
2022-11-13 14:9:00.3990,2.05,1.11,4.43,5.0
2022-11-13 14:9:00.4000,0.75,1.64,4.84,5.16
2022-11-13 14:9:00.4670,-1.29,2.79,4.34,5.31
2022-11-13 14:9:00.4680,-2.19,3.59,3.45,5.43
2022-11-13 14:9:00.4860,-1.51,3.23,3.74,5.16
2022-11-13 14:9:00.4870,-1.14,2.43,3.77,4.62
2022-11-13 14:9:00.5020,-0.5,0.96,3.41,3.57
2022-11-13 14:9:00.5030,0.73,-1.07,2.0,2.38
2022-11-13 14:9:00.5180,1.45,-3.19,-1.47,3.79
2022-11-13 14:9:00.5190,0.88,-3.75,-3.05,4.91
2022-11-13 14:9:00.5340,0.37,-1.99,-2.04,2.87
2022-11-13 14:9:00.5350,-0.05,0.43,-0.95,1.04
2022-11-13 14:9:00.6030,-0.57,2.31,0.13,2.38
2022-11-13 14:9:00.6040,-0.95,3.4,1.21,3.73
2022-11-13 14:9:00.6200,-1.5,3.74,1.99,4.49
2022-11-13 14:9:00.6200,-2.24,3.71,2.48,4.99
2022-11-13 14:9:00.6350,-2.92,3.34,3.02,5.36
2022-11-13 14:9:00.6360,-2.98,2.44,3.6,5.27
2022-11-13 14:9:00.6510,-2.62,1.52,3.91,4.94
2022-11-13 14:9:00.6520,-1.79,0.87,3.67,4.17
2022-11-13 14:9:00.6670,-0.89,0.74,2.3,2.57
2022-11-13 14:9:00.6680,-0.23,0.84,-1.03,1.34
2022-11-13 14:9:00.7330,-0.19,0.73,-2.96,3.05
2022-11-13 14:9:00.7340,-0.56,0.47,-3.88,3.94
2022-11-13 14:9:00.7530,-0.82,0.17,-4.96,5.03
2022-11-13 14:9:00.7540,-1.01,-0.1,-5.95,6.03
2022-11-13 14:9:00.7680,-1.25,-0.4,-6.1,6.23
2022-11-13 14:9:00.7690,-1.59,-0.77,-5.22,5.51
2022-11-13 14:9:00.7840,-1.81,-1.15,-3.42,4.03
2022-11-13 14:9:00.7850,-1.64,-1.27,-1.26,2.42
2022-11-13 14:9:00.8010,-1.03,-1.21,0.22,1.6
2022-11-13 14:9:00.8670,-0.48,-1.39,0.82,1.68
2022-11-13 14:9:00.8680,-0.27,-2.06,0.99,2.3
2022-11-13 14:9:00.8860,-0.05,-2.72,1.15,2.95
2022-11-13 14:9:00.8870,0.4,-2.78,1.55,3.2
2022-11-13 14:9:00.9020,1.18,-2.34,1.76,3.15
2022-11-13 14:9:00.9020,2.05,-1.94,1.77,3.33
2022-11-13 14:9:00.9180,2.68,-1.62,1.8,3.61
2022-11-13 14:9:00.9190,3.02,-1.12,1.79,3.68
2022-11-13 14:9:00.9340,3.11,-0.83,1.78,3.67
2022-11-13 14:9:00.9350,3.06,-0.64,1.8,3.6
2022-11-13 14:9:01.0020,2.9,-0.52,1.74,3.42
2022-11-13 14:9:01.0030,2.66,-0.1,1.53,3.07
2022-11-13 14:9:01.0190,2.78,0.55,1.36,3.14
2022-11-13 14:9:01.0200,2.98,0.95,1.22,3.35
2022-11-13 14:9:01.0350,3.11,1.25,0.91,3.47
2022-11-13 14:9:01.0360,3.19,1.64,0.66,3.64
2022-11-13 14:9:01.0500,3.26,1.95,0.96,3.91
2022-11-13 14:9:01.0510,3.31,2.22,1.7,4.33
2022-11-13 14:9:01.0660,2.95,1.95,1.88,4.0
2022-11-13 14:9:01.0670,2.25,1.37,2.49,3.62
2022-11-13 14:9:01.1310,1.81,0.47,3.1,3.62
2022-11-13 14:9:01.1320,1.85,-0.62,4.02,4.46
2022-11-13 14:9:01.1530,2.02,-1.48,4.34,5.01
2022-11-13 14:9:01.1540,1.59,-1.97,4.22,4.92
2022-11-13 14:9:01.1690,1.08,-2.78,4.93,5.76
2022-11-13 14:9:01.1700,0.64,-3.77,6.0,7.11
2022-11-13 14:9:01.1850,-0.26,-4.38,6.02,7.44
2022-11-13 14:9:01.1860,-1.51,-4.25,5.18,6.86
2022-11-13 14:9:01.2020,-2.96,-3.42,4.05,6.07
2022-11-13 14:9:01.2030,-4.11,-2.54,2.87,5.61
2022-11-13 14:9:01.2690,-6.26,-1.85,1.05,6.61
2022-11-13 14:9:01.2690,-8.04,-1.22,-0.09,8.13
2022-11-13 14:9:01.2850,-7.04,-0.98,0.86,7.15
2022-11-13 14:9:01.2860,-5.41,-0.94,1.54,5.7
2022-11-13 14:9:01.3020,-4.03,-0.53,1.37,4.28
2022-11-13 14:9:01.3030,-3.44,-0.13,0.51,3.48
2022-11-13 14:9:01.3180,-3.52,0.43,-1.46,3.83
2022-11-13 14:9:01.3190,-3.88,0.99,-3.96,5.63
2022-11-13 14:9:01.3350,-4.31,1.52,-4.29,6.26
2022-11-13 14:9:01.3360,-4.52,1.69,-1.76,5.13
2022-11-13 14:9:01.4010,-3.17,1.44,-0.56,3.52
2022-11-13 14:9:01.4020,-1.93,1.16,-0.52,2.31
2022-11-13 14:9:01.4190,-0.96,1.0,-0.8,1.6
2022-11-13 14:9:01.4200,-0.08,1.25,-0.78,1.47
2022-11-13 14:9:01.4350,0.6,1.67,-0.97,2.02
2022-11-13 14:9:01.4360,0.82,1.85,-1.37,2.44
2022-11-13 14:9:01.4510,0.43,1.68,-1.58,2.34
2022-11-13 14:9:01.4510,-0.05,1.63,0.64,1.75
2022-11-13 14:9:01.4670,-0.4,1.93,1.98,2.79
2022-11-13 14:9:01.4680,-1.31,1.58,1.46,2.51
2022-11-13 14:9:01.5320,-2.23,0.88,0.41,2.43
2022-11-13 14:9:01.5330,-2.48,0.24,-0.45,2.53
2022-11-13 14:9:01.5530,-2.08,-0.18,-1.73,2.71
2022-11-13 14:9:01.5540,-1.66,1.58,-4.38,4.94
2022-11-13 14:9:01.5680,-1.02,2.52,-4.51,5.26
2022-11-13 14:9:01.5680,-0.2,0.81,-3.05,3.16
2022-11-13 14:9:01.5840,0.46,-0.3,-2.3,2.36
2022-11-13 14:9:01.5850,0.9,-0.88,-0.17,1.27
2022-11-13 14:9:01.6010,0.22,-1.23,6.41,6.53
2022-11-13 14:9:01.6020,-1.92,-2.23,11.34,11.71
2022-11-13 14:9:01.6670,-2.59,-3.77,3.62,5.83
2022-11-13 14:9:01.6680,0.54,-4.87,-0.69,4.94
2022-11-13 14:9:01.6860,1.91,-5.31,0.8,5.69
2022-11-13 14:9:01.6870,1.66,-4.69,3.55,6.11
2022-11-13 14:9:01.7020,2.53,-2.81,4.63,5.97
2022-11-13 14:9:01.7030,1.94,-1.82,3.47,4.37
2022-11-13 14:9:01.7170,0.52,-1.49,2.16,2.67
2022-11-13 14:9:01.7180,-0.17,-0.76,1.42,1.61
2022-11-13 14:9:01.7340,-0.99,-0.3,2.17,2.4
2022-11-13 14:9:01.7350,-1.89,-0.04,2.02,2.76
2022-11-13 14:9:01.8000,-2.3,-0.07,1.39,2.68
2022-11-13 14:9:01.8010,-2.53,-0.43,0.55,2.62
2022-11-13 14:9:01.8200,-2.31,-0.83,-0.03,2.45
2022-11-13 14:9:01.8210,-1.76,-1.75,-0.8,2.6
2022-11-13 14:9:01.8350,-1.47,-2.3,-1.63,3.17
2022-11-13 14:9:01.8360,-1.58,-1.59,-2.06,3.04
2022-11-13 14:9:01.8510,-2.01,-0.43,-2.28,3.06
2022-11-13 14:9:01.8520,-2.18,0.38,-2.06,3.02
2022-11-13 14:9:01.8670,-2.1,0.82,-1.73,2.84
2022-11-13 14:9:01.8680,-1.96,0.82,-1.77,2.76
2022-11-13 14:9:01.9340,-1.84,0.67,-2.2,2.94
2022-11-13 14:9:01.9340,-1.92,0.45,-2.89,3.49
2022-11-13 14:9:01.9530,-1.33,0.36,-3.51,3.77
2022-11-13 14:9:01.9530,-0.91,0.37,-3.51,3.64
2022-11-13 14:9:01.9680,-0.78,0.65,-2.79,2.96
2022-11-13 14:9:01.9690,-0.85,0.76,-1.62,1.98
2022-11-13 14:9:01.9840,-0.75,0.56,-0.35,0.99
2022-11-13 14:9:01.9850,-0.03,0.5,-0.66,0.82
2022-11-13 14:9:02.0010,0.17,0.52,-0.66,0.85
2022-11-13 14:9:02.0010,0.11,0.71,0.11,0.72
2022-11-13 14:9:02.0670,0.34,0.22,0.82,0.91
2022-11-13 14:9:02.0670,0.16,-0.31,1.27,1.31
2022-11-13 14:9:02.0860,0.13,-0.3,1.53,1.56
2022-11-13 14:9:02.0870,0.19,0.02,1.67,1.68
2022-11-13 14:9:02.1350,0.08,0.33,1.61,1.64
2022-11-13 14:9:02.1360,-0.07,0.57,1.24,1.36
2022-11-13 14:9:02.1510,-0.17,0.69,0.79,1.06
2022-11-13 14:9:02.1520,-0.26,0.65,0.4,0.8
2022-11-13 14:9:02.1680,-0.41,0.63,-0.16,0.76
2022-11-13 14:9:02.1690,-0.62,0.73,-0.8,1.24
2022-11-13 14:9:02.2390,-0.47,0.62,-1.54,1.72
2022-11-13 14:9:02.2400,-0.29,0.57,-1.96,2.06
2022-11-13 14:9:02.2520,-0.29,0.52,-1.91,2.0
2022-11-13 14:9:02.2530,-0.21,0.35,-1.55,1.6
2022-11-13 14:9:02.2680,-0.07,-0.21,-1.27,1.28
2022-11-13 14:9:02.2690,-0.02,-0.63,-1.14,1.3
2022-11-13 14:9:02.2840,0.01,-0.97,-1.05,1.42
2022-11-13 14:9:02.2850,0.01,-1.22,-0.79,1.45
2022-11-13 14:9:02.3000,-0.05,-1.42,-0.6,1.54
2022-11-13 14:9:02.3010,-0.27,-1.54,-0.57,1.66
2022-11-13 14:9:02.3640,-0.44,-1.64,-0.59,1.79
2022-11-13 14:9:02.3650,-0.32,-1.58,-0.8,1.79
2022-11-13 14:9:02.3860,-0.19,-1.43,-0.74,1.62
2022-11-13 14:9:02.3870,-0.29,-1.28,-0.94,1.61
2022-11-13 14:9:02.4020,-0.27,-1.33,-1.43,1.97
2022-11-13 14:9:02.4020,-0.14,-1.87,-1.78,2.58
2022-11-13 14:9:02.4170,-0.02,-2.55,-1.5,2.95
2022-11-13 14:9:02.4180,0.22,-3.21,-0.97,3.36
2022-11-13 14:9:02.4340,0.24,-3.5,-0.35,3.52
2022-11-13 14:9:02.4350,-0.02,-2.67,0.61,2.73
2022-11-13 14:9:02.4980,-0.53,-1.47,1.29,2.02
2022-11-13 14:9:02.4990,-0.89,-0.44,1.83,2.08
2022-11-13 14:9:02.5190,-0.47,0.32,2.36,2.42
2022-11-13 14:9:02.5200,0.1,0.82,2.15,2.3
2022-11-13 14:9:02.5350,0.46,1.0,1.84,2.14
2022-11-13 14:9:02.5360,1.04,1.39,1.59,2.35
2022-11-13 14:9:02.5510,1.85,2.0,0.87,2.85
2022-11-13 14:9:02.5510,2.16,2.18,0.24,3.07
2022-11-13 14:9:02.5670,2.48,2.75,0.22,3.7
2022-11-13 14:9:02.5680,2.79,2.53,-0.21,3.77
2022-11-13 14:9:02.6320,2.57,2.22,-0.52,3.43
2022-11-13 14:9:02.6330,2.34,2.2,-0.97,3.35
2022-11-13 14:9:02.6530,1.8,2.03,-1.13,2.93
2022-11-13 14:9:02.6540,0.99,1.86,-0.92,2.29
2022-11-13 14:9:02.6680,0.34,1.79,-0.67,1.94
2022-11-13 14:9:02.6690,-0.2,1.34,-0.49,1.44
2022-11-13 14:9:02.6840,-0.45,0.77,-0.15,0.9
2022-11-13 14:9:02.6850,-0.35,0.1,-0.02,0.36
2022-11-13 14:9:02.7010,-0.35,-0.17,-0.2,0.43
2022-11-13 14:9:02.7020,-0.21,-0.13,-0.67,0.71
2022-11-13 14:9:02.7650,-0.11,-0.02,-1.07,1.07
2022-11-13 14:9:02.7660,-0.19,0.11,-1.29,1.3
2022-11-13 14:9:02.7860,-0.27,0.1,-1.31,1.34
2022-11-13 14:9:02.7870,-0.17,-0.14,-0.99,1.01
2022-11-13 14:9:02.8020,-0.05,-0.51,-0.51,0.72
2022-11-13 14:9:02.8030,0.0,-0.64,-0.07,0.64
2022-11-13 14:9:02.8170,0.28,-0.54,0.22,0.64
2022-11-13 14:9:02.8180,0.37,-0.41,0.36,0.65
2022-11-13 14:9:02.8340,0.27,-0.49,0.31,0.63
2022-11-13 14:9:02.8350,-0.03,-0.8,0.35,0.87
2022-11-13 14:9:02.8980,-0.8,-1.66,0.13,1.84
2022-11-13 14:9:02.8990,-1.01,-2.19,0.02,2.41
2022-11-13 14:9:02.9190,-0.05,-1.55,-0.56,1.64
2022-11-13 14:9:02.9200,0.16,-1.35,-0.99,1.68
2022-11-13 14:9:02.9350,0.71,-1.49,-0.38,1.69
2022-11-13 14:9:02.9360,0.38,-1.45,-0.1,1.5
2022-11-13 14:9:02.9510,1.3,-0.84,0.96,1.82
2022-11-13 14:9:02.9510,2.72,0.72,2.92,4.05
2022-11-13 14:9:02.9670,1.05,0.55,-0.15,1.19
2022-11-13 14:9:02.9680,0.28,0.08,-1.39,1.42
2022-11-13 14:9:03.0330,0.06,-0.66,-2.0,2.1
2022-11-13 14:9:03.0330,-0.17,-1.09,-1.88,2.17
2022-11-13 14:9:03.0530,0.24,-1.1,-0.95,1.47
2022-11-13 14:9:03.0530,0.61,-0.92,0.29,1.14
2022-11-13 14:9:03.0680,0.77,-0.88,1.06,1.57
2022-11-13 14:9:03.0690,0.56,-0.98,1.11,1.58
2022-11-13 14:9:03.0840,0.04,-1.05,0.92,1.39
2022-11-13 14:9:03.0850,0.03,-0.46,0.3,0.55
2022-11-13 14:9:03.1000,-0.13,-0.23,-0.34,0.43
2022-11-13 14:9:03.1010,-0.47,-0.14,-0.84,0.97
2022-11-13 14:9:03.1630,-0.6,-0.46,-0.71,1.03
2022-11-13 14:9:03.1640,-0.75,-1.09,0.06,1.32
2022-11-13 14:9:03.1660,-1.12,-1.66,0.54,2.07
2022-11-13 14:9:03.2000,-1.24,-2.03,0.5,2.43
2022-11-13 14:9:03.2010,-1.18,-2.21,0.17,2.51
2022-11-13 14:9:03.2170,-1.07,-2.1,-0.41,2.39
2022-11-13 14:9:03.2180,-0.9,-2.02,-1.08,2.46
2022-11-13 14:9:03.2340,-0.68,-2.12,-1.18,2.51
2022-11-13 14:9:03.2350,-1.02,-2.28,-0.88,2.64
2022-11-13 14:9:03.2510,-1.62,-2.35,-0.75,2.95
2022-11-13 14:9:03.3160,-2.16,-2.31,-0.63,3.22
2022-11-13 14:9:03.3170,-2.62,-1.88,-0.13,3.22
2022-11-13 14:9:03.3360,-3.2,-1.45,0.44,3.54
2022-11-13 14:9:03.3370,-3.34,-1.16,0.48,3.56
2022-11-13 14:9:03.3520,-2.92,-0.87,0.24,3.05
2022-11-13 14:9:03.3520,-2.68,-0.56,0.19,2.74
2022-11-13 14:9:03.3670,-2.51,-0.01,0.45,2.55
2022-11-13 14:9:03.3680,-2.49,0.35,1.22,2.79
2022-11-13 14:9:03.3840,-3.04,0.65,2.28,3.85
2022-11-13 14:9:03.3850,-3.76,1.4,2.68,4.82
2022-11-13 14:9:03.4470,-3.97,2.6,2.46,5.34
2022-11-13 14:9:03.4480,-3.92,3.57,2.67,5.93
2022-11-13 14:9:03.4690,-3.54,4.03,3.33,6.31
2022-11-13 14:9:03.4700,-2.88,4.08,3.55,6.12
2022-11-13 14:9:03.4850,-2.33,3.87,3.08,5.46
2022-11-13 14:9:03.4860,-1.74,3.66,2.42,4.72
2022-11-13 14:9:03.5010,-1.02,3.77,1.84,4.31
2022-11-13 14:9:03.5020,-0.38,4.07,1.54,4.36
2022-11-13 14:9:03.5170,0.11,3.99,1.59,4.29
2022-11-13 14:9:03.5180,0.54,3.67,1.88,4.15
2022-11-13 14:9:03.5820,1.01,3.89,1.99,4.48
2022-11-13 14:9:03.5830,1.38,4.24,1.54,4.71
2022-11-13 14:9:03.6030,1.35,3.76,1.04,4.12
2022-11-13 14:9:03.6030,1.48,2.92,0.73,3.35
2022-11-13 14:9:03.6180,2.01,2.61,0.42,3.32
2022-11-13 14:9:03.6190,2.26,2.6,-0.51,3.48
2022-11-13 14:9:03.6340,2.18,2.51,-1.43,3.61
2022-11-13 14:9:03.6350,1.7,1.84,-2.06,3.24
2022-11-13 14:9:03.6510,1.01,0.96,-2.27,2.66
2022-11-13 14:9:03.6520,0.1,0.29,-2.43,2.44
2022-11-13 14:9:03.7140,-1.01,0.62,-3.0,3.22
2022-11-13 14:9:03.7140,-0.79,1.34,-3.75,4.05
2022-11-13 14:9:03.7370,0.4,1.96,-4.5,4.92
2022-11-13 14:9:03.7380,1.02,2.28,-5.16,5.73
2022-11-13 14:9:03.7520,1.33,1.24,-4.78,5.11
2022-11-13 14:9:03.7530,1.5,-0.96,-2.86,3.36
2022-11-13 14:9:03.7680,1.15,-2.19,-0.83,2.6
2022-11-13 14:9:03.7680,0.45,-2.32,0.85,2.51
2022-11-13 14:9:03.7840,-0.29,-2.12,1.79,2.78
2022-11-13 14:9:03.7850,-0.96,-2.02,1.83,2.88
2022-11-13 14:9:03.8520,-1.5,-1.81,1.4,2.73
2022-11-13 14:9:03.8530,-1.1,-1.15,1.3,2.05
2022-11-13 14:9:03.8690,0.06,-0.45,1.47,1.53
2022-11-13 14:9:03.8700,0.83,-0.34,0.79,1.19
2022-11-13 14:9:03.8850,0.94,-0.72,-0.29,1.21
2022-11-13 14:9:03.8860,0.94,-0.98,-0.51,1.45
2022-11-13 14:9:03.9000,0.69,-1.3,-0.61,1.59
2022-11-13 14:9:03.9010,0.38,-2.24,-0.74,2.38
2022-11-13 14:9:03.9170,0.01,-2.95,-0.58,3.0
2022-11-13 14:9:03.9180,-0.29,-2.48,0.43,2.53
2022-11-13 14:9:03.9840,-0.32,-2.62,1.96,3.28
2022-11-13 14:9:03.9840,-0.07,-3.41,2.39,4.16
2022-11-13 14:9:04.0030,-0.01,-3.6,2.17,4.2
2022-11-13 14:9:04.0040,-0.21,-3.47,2.09,4.05
2022-11-13 14:9:04.0180,-0.31,-3.62,1.89,4.09
2022-11-13 14:9:04.0190,-0.16,-3.79,1.35,4.02
2022-11-13 14:9:04.0340,-0.07,-3.81,0.7,3.87
2022-11-13 14:9:04.0350,-0.11,-3.65,-0.16,3.65
2022-11-13 14:9:04.0510,-0.37,-3.4,-0.91,3.53
2022-11-13 14:9:04.0510,-0.87,-3.24,-1.23,3.57
2022-11-13 14:9:04.1170,-1.23,-3.17,-1.65,3.77
2022-11-13 14:9:04.1180,-1.25,-2.81,-1.9,3.61
2022-11-13 14:9:04.1360,-1.07,-2.49,-2.03,3.38
2022-11-13 14:9:04.1370,-1.12,-2.34,-1.58,3.03
2022-11-13 14:9:04.1510,-1.37,-2.13,-0.85,2.67
2022-11-13 14:9:04.1520,-1.16,-1.89,-0.61,2.29
2022-11-13 14:9:04.1670,-0.36,-1.76,-0.49,1.86
2022-11-13 14:9:04.1680,-0.58,-2.06,-0.24,2.15
2022-11-13 14:9:04.1840,-1.33,-2.36,-0.11,2.71
2022-11-13 14:9:04.1850,-1.54,-2.39,-0.36,2.86
2022-11-13 14:9:04.2500,-1.72,-1.9,-0.78,2.67
2022-11-13 14:9:04.2510,-1.86,-1.26,-1.32,2.6
2022-11-13 14:9:04.2690,-1.75,-0.69,-1.84,2.63
2022-11-13 14:9:04.2700,-1.85,-0.29,-1.95,2.7
2022-11-13 14:9:04.2850,-1.86,-0.01,-1.78,2.57
2022-11-13 14:9:04.2860,-1.81,0.14,-1.72,2.5
2022-11-13 14:9:04.3010,-1.75,0.25,-1.7,2.45
2022-11-13 14:9:04.3020,-1.59,0.45,-1.47,2.21
2022-11-13 14:9:04.3170,-1.45,0.28,-1.3,1.96
2022-11-13 14:9:04.3180,-1.05,-0.13,-1.24,1.63
2022-11-13 14:9:04.3830,-0.62,-0.31,-1.16,1.35
2022-11-13 14:9:04.3840,-0.66,-0.41,-0.89,1.18
2022-11-13 14:9:04.4030,-0.66,-0.32,-0.89,1.15
2022-11-13 14:9:04.4030,-0.77,-0.15,-1.23,1.45
2022-11-13 14:9:04.4180,-0.97,-0.05,-1.72,1.97
2022-11-13 14:9:04.4190,-0.89,0.01,-2.01,2.19
2022-11-13 14:9:04.4340,-0.69,-0.11,-1.98,2.09
2022-11-13 14:9:04.4350,-0.6,-0.4,-1.99,2.11
2022-11-13 14:9:04.4510,-0.75,-0.65,-1.94,2.17
2022-11-13 14:9:04.4520,-1.12,-0.89,-1.34,1.96
2022-11-13 14:9:04.5170,-0.9,-0.88,-0.61,1.39
2022-11-13 14:9:04.5170,-0.13,-0.58,-0.56,0.81
2022-11-13 14:9:04.5360,-0.21,-0.56,-0.59,0.84
2022-11-13 14:9:04.5370,-0.96,-0.6,-0.67,1.31
2022-11-13 14:9:04.5510,-0.68,-0.2,-0.59,0.92
2022-11-13 14:9:04.5520,-0.23,-0.08,-0.32,0.4
2022-11-13 14:9:04.5670,-0.41,-0.55,0.12,0.69
2022-11-13 14:9:04.5680,-0.94,-1.17,0.68,1.64
2022-11-13 14:9:04.5840,-1.41,-1.61,1.18,2.44
2022-11-13 14:9:04.5850,-1.64,-2.0,1.31,2.89
2022-11-13 14:9:04.6490,-1.44,-1.75,1.06,2.5
2022-11-13 14:9:04.6500,-0.9,-0.46,0.62,1.18
2022-11-13 14:9:04.6690,-0.15,1.76,0.03,1.76
2022-11-13 14:9:04.6700,0.74,2.85,-0.81,3.05
2022-11-13 14:9:04.6850,1.81,1.66,-0.5,2.5
2022-11-13 14:9:04.6860,1.55,0.1,-0.01,1.55
2022-11-13 14:9:04.7000,-0.26,-0.62,-0.04,0.67
2022-11-13 14:9:04.7010,-1.2,-0.77,0.28,1.45
2022-11-13 14:9:04.7170,-0.91,-1.22,0.93,1.78
2022-11-13 14:9:04.7180,-0.7,-1.46,1.29,2.07
2022-11-13 14:9:04.7830,-0.65,-1.35,1.22,1.93
2022-11-13 14:9:04.7830,-0.59,-1.33,1.75,2.27
2022-11-13 14:9:04.8030,-0.53,-1.57,2.97,3.4
2022-11-13 14:9:04.8030,-0.74,-1.22,2.94,3.26
2022-11-13 14:9:04.8180,-0.76,-0.73,2.75,2.94
2022-11-13 14:9:04.8190,-0.09,-0.02,2.05,2.05
2022-11-13 14:9:04.8340,0.82,0.82,1.02,1.54
2022-11-13 14:9:04.8350,1.32,1.6,-0.1,2.07
2022-11-13 14:9:04.8500,1.1,1.97,-0.72,2.36
2022-11-13 14:9:04.8510,0.51,1.82,-0.74,2.02
2022-11-13 14:9:04.9150,-0.15,1.3,-0.51,1.4
2022-11-13 14:9:04.9160,-0.65,0.6,-0.19,0.9
2022-11-13 14:9:04.9360,-0.76,-0.08,0.26,0.8
2022-11-13 14:9:04.9370,-0.58,-0.52,0.61,0.98
2022-11-13 14:9:04.9510,-0.54,-1.09,0.69,1.39
2022-11-13 14:9:04.9520,-1.3,-1.59,0.5,2.11
2022-11-13 14:9:04.9670,-2.46,-1.16,0.83,2.84
2022-11-13 14:9:04.9680,-2.24,-0.1,1.79,2.86
2022-11-13 14:9:04.9840,-1.08,0.68,1.61,2.05
2022-11-13 14:9:04.9850,-0.35,0.56,0.91,1.12
2022-11-13 14:9:05.0490,-0.14,0.23,0.9,0.93
2022-11-13 14:9:05.0500,-0.07,0.16,0.77,0.78
2022-11-13 14:9:05.0690,-0.51,-0.09,0.35,0.62
2022-11-13 14:9:05.0700,-0.76,-0.09,-0.29,0.81
2022-11-13 14:9:05.0850,-0.81,-0.01,-1.01,1.29
2022-11-13 14:9:05.0860,-0.66,-0.03,-1.4,1.54
2022-11-13 14:9:05.1010,-0.23,0.15,-1.39,1.41
2022-11-13 14:9:05.1010,0.28,0.35,-1.13,1.21
2022-11-13 14:9:05.1170,0.59,0.46,-0.57,0.94
2022-11-13 14:9:05.1180,0.6,0.47,-0.18,0.78
2022-11-13 14:9:05.1810,0.42,0.23,-0.28,0.55
2022-11-13 14:9:05.1820,0.11,-0.17,-0.46,0.5
2022-11-13 14:9:05.2030,-0.57,-0.58,0.07,0.81
2022-11-13 14:9:05.2040,-1.95,-1.4,2.76,3.65
2022-11-13 14:9:05.2180,-1.38,-1.24,1.65,2.48
2022-11-13 14:9:05.2190,-0.94,-0.67,2.08,2.37
2022-11-13 14:9:05.2320,-0.37,-0.25,1.75,1.8
2022-11-13 14:9:05.2330,0.22,0.1,1.18,1.2
2022-11-13 14:9:05.2490,0.51,0.3,0.54,0.8
2022-11-13 14:9:05.2500,0.5,0.36,0.07,0.62
2022-11-13 14:9:05.3120,0.36,0.29,-0.31,0.55
2022-11-13 14:9:05.3130,0.23,0.25,-0.61,0.69
2022-11-13 14:9:05.3160,0.17,0.24,-0.71,0.76
2022-11-13 14:9:05.3330,0.17,0.21,-0.64,0.69
2022-11-13 14:9:05.3340,0.09,0.2,-0.51,0.55
2022-11-13 14:9:05.3510,0.02,0.19,-0.42,0.46
2022-11-13 14:9:05.3510,0.06,0.11,-0.31,0.33
2022-11-13 14:9:05.3670,0.1,-0.01,-0.1,0.14
2022-11-13 14:9:05.3680,0.06,-0.12,0.05,0.14
2022-11-13 14:9:05.3840,-0.12,-0.24,0.07,0.27
2022-11-13 14:9:05.4470,-0.3,-0.28,-0.06,0.41
2022-11-13 14:9:05.4470,-0.33,-0.24,-0.02,0.4
2022-11-13 14:9:05.4690,-0.33,-0.09,0.3,0.45
2022-11-13 14:9:05.4700,-0.33,0.03,0.6,0.68
2022-11-13 14:9:05.4850,-0.34,0.04,0.85,0.91
2022-11-13 14:9:05.4850,-0.47,-0.09,0.88,1.0
2022-11-13 14:9:05.5000,-0.57,-0.21,0.63,0.87
2022-11-13 14:9:05.5010,-0.51,-0.17,0.21,0.57
2022-11-13 14:9:05.5170,-0.43,-0.02,-0.32,0.53
2022-11-13 14:9:05.5180,-0.38,0.14,-0.52,0.65
2022-11-13 14:9:05.5790,-0.59,0.08,-0.61,0.85
2022-11-13 14:9:05.5800,-0.54,-0.03,-0.77,0.94
2022-11-13 14:9:05.5840,-0.35,-0.15,-0.82,0.9
2022-11-13 14:9:05.6010,-0.11,-0.06,-0.5,0.51
2022-11-13 14:9:05.6020,-0.07,0.2,0.35,0.4
2022-11-13 14:9:05.6170,-0.34,0.31,1.37,1.44
2022-11-13 14:9:05.6180,-0.59,0.38,2.02,2.13
2022-11-13 14:9:05.6340,-0.77,0.42,1.81,2.01
2022-11-13 14:9:05.6350,-0.59,0.46,0.85,1.13
2022-11-13 14:9:05.6500,-0.22,0.46,-0.12,0.52
2022-11-13 14:9:05.7150,-0.13,0.27,-0.64,0.7
2022-11-13 14:9:05.7160,-0.18,-0.05,-0.97,0.98
2022-11-13 14:9:05.7360,-0.24,-0.26,-0.94,1.0
2022-11-13 14:9:05.7360,-0.23,-0.29,-0.69,0.78
2022-11-13 14:9:05.7510,-0.13,-0.27,-0.37,0.47
2022-11-13 14:9:05.7520,-0.07,-0.22,0.09,0.24
2022-11-13 14:9:05.7670,-0.03,-0.19,0.53,0.56
2022-11-13 14:9:05.7680,-0.12,-0.29,0.87,0.92
2022-11-13 14:9:05.7840,-0.23,-0.35,1.16,1.23
2022-11-13 14:9:05.7850,-0.25,-0.31,0.99,1.06
2022-11-13 14:9:05.8460,-0.13,-0.16,0.44,0.48
2022-11-13 14:9:05.8470,-0.04,-0.03,-0.02,0.05
2022-11-13 14:9:05.8490,0.04,0.02,-0.28,0.28
2022-11-13 14:9:05.8680,0.01,-0.05,-0.38,0.38
2022-11-13 14:9:05.8680,-0.02,-0.1,-0.35,0.36
2022-11-13 14:9:05.8840,-0.03,-0.13,-0.36,0.38
2022-11-13 14:9:05.8850,-0.08,-0.16,-0.28,0.33
2022-11-13 14:9:05.9000,-0.08,-0.16,-0.11,0.21
2022-11-13 14:9:05.9010,-0.16,-0.2,-0.03,0.25
2022-11-13 14:9:05.9170,-0.21,-0.26,-0.04,0.33
2022-11-13 14:9:05.9780,-0.11,-0.21,-0.04,0.24
2022-11-13 14:9:05.9780,-0.14,-0.14,-0.04,0.2
2022-11-13 14:9:05.9820,-0.17,-0.15,-0.1,0.24
2022-11-13 14:9:05.9830,-0.11,-0.15,-0.15,0.23
2022-11-13 14:9:06.0010,-0.12,-0.2,-0.11,0.25
2022-11-13 14:9:06.0020,-0.15,-0.25,-0.13,0.31
2022-11-13 14:9:06.0170,-0.11,-0.15,-0.18,0.25
2022-11-13 14:9:06.0180,-0.06,-0.02,-0.11,0.12
2022-11-13 14:9:06.0340,-0.02,0.02,0.05,0.05
2022-11-13 14:9:06.0350,-0.05,-0.13,0.13,0.19
2022-11-13 14:9:06.0930,-0.05,-0.24,0.18,0.3
2022-11-13 14:9:06.0930,-0.05,-0.21,0.26,0.33
2022-11-13 14:9:06.1020,-0.1,-0.15,0.33,0.37
2022-11-13 14:9:06.1020,-0.17,-0.09,0.26,0.32
2022-11-13 14:9:06.1180,-0.14,0.01,0.06,0.15
2022-11-13 14:9:06.1190,-0.07,0.09,-0.09,0.14
2022-11-13 14:9:06.1340,-0.06,0.01,-0.2,0.2
2022-11-13 14:9:06.1350,-0.04,-0.09,-0.2,0.22
2022-11-13 14:9:06.1500,-0.01,-0.09,-0.11,0.14
2022-11-13 14:9:06.1510,-0.03,-0.05,0.03,0.06
2022-11-13 14:9:06.2100,-0.11,-0.05,0.17,0.2
2022-11-13 14:9:06.2100,-0.1,-0.03,0.23,0.25
2022-11-13 14:9:06.2180,-0.08,-0.07,0.24,0.26
2022-11-13 14:9:06.2190,-0.05,-0.15,0.11,0.19
2022-11-13 14:9:06.2350,-0.01,-0.17,0.02,0.17
2022-11-13 14:9:06.2350,-0.08,-0.17,0.04,0.19
2022-11-13 14:9:06.2500,-0.13,-0.12,0.08,0.19
2022-11-13 14:9:06.2510,-0.08,-0.04,0.15,0.17
2022-11-13 14:9:06.2670,-0.12,-0.03,0.23,0.26
2022-11-13 14:9:06.2680,-0.14,-0.09,0.16,0.23
2022-11-13 14:9:06.3260,-0.08,-0.11,0.02,0.13
2022-11-13 14:9:06.3270,-0.02,-0.1,-0.11,0.15
2022-11-13 14:9:06.3350,-0.01,-0.09,-0.18,0.2
2022-11-13 14:9:06.3350,-0.05,-0.07,-0.15,0.17
2022-11-13 14:9:06.3510,-0.08,0.02,-0.05,0.09
2022-11-13 14:9:06.3520,-0.12,0.05,0.06,0.14
2022-11-13 14:9:06.3670,-0.14,0.05,0.14,0.2
2022-11-13 14:9:06.3680,-0.13,0.04,0.14,0.19
2022-11-13 14:9:06.3830,-0.13,-0.03,0.12,0.17
2022-11-13 14:9:06.3840,-0.12,-0.14,0.16,0.24
2022-11-13 14:9:06.4410,-0.14,-0.19,0.07,0.24
2022-11-13 14:9:06.4420,-0.12,-0.15,-0.09,0.21
2022-11-13 14:9:06.4520,-0.07,-0.08,-0.17,0.2
2022-11-13 14:9:06.4520,-0.09,-0.09,-0.13,0.18
2022-11-13 14:9:06.4680,-0.1,-0.12,-0.06,0.16
2022-11-13 14:9:06.4690,-0.08,-0.14,0.03,0.16
2022-11-13 14:9:06.4840,-0.16,-0.17,0.13,0.26
2022-11-13 14:9:06.4840,-0.18,-0.15,0.1,0.25
2022-11-13 14:9:06.5000,-0.19,-0.08,0.07,0.21
2022-11-13 14:9:06.5010,-0.19,-0.04,0.05,0.2
2022-11-13 14:9:06.5580,-0.21,-0.03,0.02,0.21
2022-11-13 14:9:06.5590,-0.2,0.0,-0.02,0.2
2022-11-13 14:9:06.5680,-0.17,0.04,-0.08,0.19
2022-11-13 14:9:06.5690,-0.22,0.1,-0.07,0.25
2022-11-13 14:9:06.5840,-0.2,0.18,-0.05,0.27
2022-11-13 14:9:06.5850,-0.18,0.2,-0.04,0.27
2022-11-13 14:9:06.6010,-0.12,0.15,0.06,0.2
2022-11-13 14:9:06.6010,-0.11,0.15,-0.1,0.21
2022-11-13 14:9:06.6170,-0.38,-0.07,0.27,0.47
2022-11-13 14:9:06.6180,-0.11,-0.23,0.36,0.44
2022-11-13 14:9:06.6750,-0.12,-0.28,0.19,0.35
2022-11-13 14:9:06.6760,-0.12,-0.22,0.09,0.26
2022-11-13 14:9:06.6850,-0.1,-0.13,0.06,0.17
2022-11-13 14:9:06.6860,-0.12,-0.06,0.04,0.13
2022-11-13 14:9:06.7010,-0.13,-0.01,-0.01,0.13
2022-11-13 14:9:06.7020,-0.12,0.08,-0.02,0.14
2022-11-13 14:9:06.7170,-0.12,0.1,0.0,0.15
2022-11-13 14:9:06.7180,-0.13,0.05,-0.07,0.15
2022-11-13 14:9:06.7330,-0.12,-0.05,-0.11,0.17
2022-11-13 14:9:06.7340,-0.12,-0.15,-0.04,0.19
2022-11-13 14:9:06.7900,-0.14,-0.18,0.02,0.22
2022-11-13 14:9:06.7910,-0.17,-0.12,0.14,0.25
2022-11-13 14:9:06.8020,-0.23,-0.06,0.27,0.35
2022-11-13 14:9:06.8020,-0.23,0.02,0.18,0.29
2022-11-13 14:9:06.8180,-0.17,0.07,0.02,0.18
2022-11-13 14:9:06.8190,-0.11,0.04,-0.08,0.14
2022-11-13 14:9:06.8340,-0.08,-0.05,-0.09,0.13
2022-11-13 14:9:06.8340,-0.1,-0.16,-0.03,0.19
2022-11-13 14:9:06.8500,-0.08,-0.23,0.06,0.25
2022-11-13 14:9:06.8510,-0.13,-0.23,0.11,0.28
2022-11-13 14:9:06.9060,-0.13,-0.17,0.1,0.23
2022-11-13 14:9:06.9070,-0.1,-0.1,0.07,0.15
2022-11-13 14:9:06.9190,-0.05,-0.03,0.05,0.07
2022-11-13 14:9:06.9200,-0.05,-0.01,0.05,0.07
2022-11-13 14:9:06.9340,-0.08,-0.02,0.11,0.13
2022-11-13 14:9:06.9350,-0.09,-0.04,0.1,0.14
2022-11-13 14:9:06.9500,-0.09,-0.05,0.05,0.11
2022-11-13 14:9:06.9510,-0.09,-0.06,-0.01,0.1
2022-11-13 14:9:06.9670,-0.09,-0.02,-0.07,0.11
2022-11-13 14:9:06.9680,-0.09,0.05,-0.04,0.11
2022-11-13 14:9:07.0220,-0.1,0.08,0.01,0.12
2022-11-13 14:9:07.0230,-0.1,0.04,0.01,0.1
2022-11-13 14:9:07.0350,-0.07,-0.03,0.02,0.07
2022-11-13 14:9:07.0360,-0.08,-0.1,0.05,0.13
2022-11-13 14:9:07.0500,-0.13,-0.13,0.11,0.21
2022-11-13 14:9:07.0510,-0.11,-0.06,0.11,0.16
2022-11-13 14:9:07.0670,-0.12,-0.01,0.06,0.13
2022-11-13 14:9:07.0680,-0.14,0.0,-0.04,0.14
2022-11-13 14:9:07.0830,-0.12,-0.01,-0.08,0.14
2022-11-13 14:9:07.0840,-0.13,-0.06,-0.05,0.15
2022-11-13 14:9:07.1390,-0.14,-0.12,0.01,0.18
2022-11-13 14:9:07.1400,-0.13,-0.18,0.04,0.22
2022-11-13 14:9:07.1520,-0.1,-0.18,0.01,0.2
2022-11-13 14:9:07.1530,-0.1,-0.15,-0.01,0.18
2022-11-13 14:9:07.1680,-0.09,-0.1,-0.01,0.13
2022-11-13 14:9:07.1680,-0.09,-0.07,0.02,0.11
2022-11-13 14:9:07.1830,-0.09,-0.05,0.01,0.1
2022-11-13 14:9:07.1840,-0.12,-0.02,0.06,0.13
2022-11-13 14:9:07.2000,-0.11,0.01,0.14,0.17
2022-11-13 14:9:07.2010,-0.04,0.01,0.15,0.15
2022-11-13 14:9:07.2560,-0.07,-0.08,0.13,0.16
2022-11-13 14:9:07.2570,-0.08,-0.12,0.09,0.17
2022-11-13 14:9:07.2680,-0.1,-0.1,0.05,0.15
2022-11-13 14:9:07.2690,-0.12,-0.08,0.01,0.14
2022-11-13 14:9:07.2840,-0.13,-0.02,-0.05,0.14
2022-11-13 14:9:07.2850,-0.08,0.07,-0.03,0.11
2022-11-13 14:9:07.3000,-0.06,0.08,-0.03,0.1
2022-11-13 14:9:07.3010,-0.04,0.04,-0.05,0.07
2022-11-13 14:9:07.3170,-0.03,0.0,0.06,0.06
2022-11-13 14:9:07.3180,-0.05,-0.06,0.24,0.25
2022-11-13 14:9:07.3710,-0.07,-0.15,0.3,0.34
2022-11-13 14:9:07.3710,-0.06,-0.16,0.2,0.26
2022-11-13 14:9:07.3850,-0.03,-0.11,0.04,0.12
2022-11-13 14:9:07.3860,-0.03,-0.08,-0.16,0.18
2022-11-13 14:9:07.4010,-0.01,-0.03,-0.24,0.24
2022-11-13 14:9:07.4020,-0.01,0.01,-0.23,0.23
2022-11-13 14:9:07.4170,-0.02,-0.03,-0.15,0.15
2022-11-13 14:9:07.4180,-0.06,-0.1,-0.01,0.11
2022-11-13 14:9:07.4340,-0.08,-0.08,0.14,0.18
2022-11-13 14:9:07.4350,-0.14,-0.05,0.25,0.29
2022-11-13 14:9:07.4880,-0.14,-0.01,0.28,0.31
2022-11-13 14:9:07.4890,-0.17,0.0,0.25,0.3
2022-11-13 14:9:07.5020,-0.15,0.0,0.11,0.18
2022-11-13 14:9:07.5030,-0.1,-0.03,-0.04,0.11
2022-11-13 14:9:07.5180,-0.07,-0.09,-0.05,0.12
2022-11-13 14:9:07.5190,-0.1,-0.14,0.05,0.17
2022-11-13 14:9:07.5340,-0.11,-0.17,0.13,0.24
2022-11-13 14:9:07.5340,-0.12,-0.16,0.16,0.25
2022-11-13 14:9:07.5500,-0.06,-0.11,0.14,0.18
2022-11-13 14:9:07.5510,-0.06,-0.09,0.05,0.11
2022-11-13 14:9:07.6050,-0.06,-0.07,-0.03,0.09
2022-11-13 14:9:07.6050,-0.09,-0.05,-0.08,0.13
2022-11-13 14:9:07.6190,-0.09,-0.03,-0.06,0.11
2022-11-13 14:9:07.6190,-0.12,0.03,0.07,0.14
2022-11-13 14:9:07.6340,-0.11,0.05,0.07,0.13
2022-11-13 14:9:07.6350,-0.1,0.04,0.0,0.1
2022-11-13 14:9:07.6510,-0.09,-0.01,-0.01,0.09
2022-11-13 14:9:07.6520,-0.06,-0.06,-0.03,0.09
2022-11-13 14:9:07.6670,-0.06,-0.1,0.0,0.11
2022-11-13 14:9:07.6680,-0.1,-0.1,0.15,0.2
2022-11-13 14:9:07.7200,-0.1,-0.08,0.23,0.26
2022-11-13 14:9:07.7210,-0.11,-0.03,0.13,0.17
2022-11-13 14:9:07.7340,-0.08,0.03,0.02,0.08
2022-11-13 14:9:07.7340,-0.09,0.01,0.03,0.09
2022-11-13 14:9:07.7500,-0.11,-0.05,0.08,0.14
2022-11-13 14:9:07.7500,-0.12,-0.12,0.04,0.17
2022-11-13 14:9:07.7660,-0.09,-0.09,0.0,0.12
2022-11-13 14:9:07.7670,-0.09,-0.05,-0.05,0.11
2022-11-13 14:9:07.7820,-0.08,-0.05,-0.1,0.13
2022-11-13 14:9:07.7830,-0.06,-0.03,-0.05,0.08
2022-11-13 14:9:07.8350,-0.06,-0.05,0.07,0.1
2022-11-13 14:9:07.8350,-0.07,-0.12,0.11,0.17
2022-11-13 14:9:07.8530,-0.09,-0.18,0.09,0.22
2022-11-13 14:9:07.8530,-0.09,-0.16,0.01,0.18
2022-11-13 14:9:07.8680,-0.09,-0.1,-0.12,0.18
2022-11-13 14:9:07.8680,-0.09,-0.05,-0.19,0.21
2022-11-13 14:9:07.8840,-0.09,-0.04,-0.13,0.16
2022-11-13 14:9:07.8840,-0.1,-0.05,-0.03,0.11
2022-11-13 14:9:07.9000,-0.09,-0.08,-0.03,0.12
2022-11-13 14:9:07.9010,-0.03,-0.07,-0.01,0.07
2022-11-13 14:9:07.9530,-0.05,-0.07,0.07,0.11
2022-11-13 14:9:07.9540,-0.09,-0.08,0.12,0.17
2022-11-13 14:9:07.9690,-0.08,-0.04,0.13,0.15
2022-11-13 14:9:07.9690,-0.1,0.01,0.15,0.18
2022-11-13 14:9:07.9840,-0.15,-0.02,0.09,0.17
2022-11-13 14:9:07.9850,-0.13,-0.05,-0.03,0.14
2022-11-13 14:9:08.0000,-0.09,0.0,-0.02,0.09
2022-11-13 14:9:08.0010,-0.1,0.03,0.06,0.12
2022-11-13 14:9:08.0170,-0.11,-0.01,-0.01,0.11
2022-11-13 14:9:08.0180,-0.07,-0.05,-0.05,0.09
2022-11-13 14:9:08.0690,-0.1,0.0,0.15,0.18
2022-11-13 14:9:08.0700,-0.12,0.02,0.19,0.22
2022-11-13 14:9:08.0850,-0.07,0.0,0.08,0.1
2022-11-13 14:9:08.0860,-0.07,-0.01,0.12,0.13
2022-11-13 14:9:08.1010,-0.09,-0.04,0.23,0.25
2022-11-13 14:9:08.1020,-0.08,-0.09,0.14,0.18
2022-11-13 14:9:08.1170,-0.04,-0.09,-0.03,0.1
2022-11-13 14:9:08.1180,0.01,-0.07,-0.07,0.09
2022-11-13 14:9:08.1340,-0.01,-0.08,-0.05,0.09
2022-11-13 14:9:08.1350,-0.03,-0.08,0.0,0.08
2022-11-13 14:9:08.1850,-0.04,-0.04,-0.02,0.06
2022-11-13 14:9:08.1860,-0.04,0.0,-0.05,0.06
2022-11-13 14:9:08.2020,-0.05,0.01,-0.02,0.05
2022-11-13 14:9:08.2020,-0.07,0.0,0.12,0.13
2022-11-13 14:9:08.2180,-0.1,-0.06,0.32,0.34
2022-11-13 14:9:08.2180,-0.16,-0.14,0.35,0.4
2022-11-13 14:9:08.2340,-0.12,-0.14,0.14,0.23
2022-11-13 14:9:08.2340,-0.07,-0.1,-0.05,0.13
2022-11-13 14:9:08.2500,-0.03,-0.07,-0.22,0.23
2022-11-13 14:9:08.2510,0.02,-0.04,-0.26,0.26
2022-11-13 14:9:08.3010,-0.03,-0.06,-0.1,0.12
2022-11-13 14:9:08.3010,-0.05,-0.05,-0.01,0.07
2022-11-13 14:9:08.3190,-0.06,-0.01,0.08,0.1
2022-11-13 14:9:08.3200,-0.08,-0.01,0.15,0.17
2022-11-13 14:9:08.3350,-0.08,-0.06,0.17,0.19
2022-11-13 14:9:08.3350,-0.14,-0.12,0.2,0.27
2022-11-13 14:9:08.3500,-0.14,-0.15,0.11,0.23
2022-11-13 14:9:08.3510,-0.1,-0.09,0.01,0.13
2022-11-13 14:9:08.3670,-0.09,-0.01,0.03,0.09
2022-11-13 14:9:08.3680,-0.09,0.0,-0.01,0.09
2022-11-13 14:9:08.4180,-0.07,-0.02,-0.23,0.24
2022-11-13 14:9:08.4190,-0.06,0.01,-0.35,0.35
2022-11-13 14:9:08.4350,-0.07,-0.1,-1.03,1.03
2022-11-13 14:9:08.4360,0.2,-0.05,-1.35,1.36
2022-11-13 14:9:08.4520,-0.03,-0.07,-0.14,0.15
2022-11-13 14:9:08.4520,-0.13,-0.14,0.55,0.58
2022-11-13 14:9:08.4670,-0.2,-0.14,1.08,1.1
2022-11-13 14:9:08.4680,-0.24,-0.05,1.05,1.07
2022-11-13 14:9:08.4840,-0.17,0.06,0.67,0.69
2022-11-13 14:9:08.4850,-0.14,0.13,0.41,0.45
2022-11-13 14:9:08.5330,-0.11,0.09,-0.01,0.14
2022-11-13 14:9:08.5340,-0.15,-0.15,-0.47,0.51
2022-11-13 14:9:08.5530,-0.04,-0.01,-0.44,0.44
2022-11-13 14:9:08.5530,-0.03,0.1,-0.37,0.38
2022-11-13 14:9:08.5680,-0.11,0.03,-0.44,0.45
2022-11-13 14:9:08.5690,-0.08,0.05,-0.25,0.26
2022-11-13 14:9:08.5840,-0.11,0.02,0.0,0.11
2022-11-13 14:9:08.5850,-0.15,-0.12,0.12,0.22
2022-11-13 14:9:08.6000,-0.14,-0.22,0.1,0.27
2022-11-13 14:9:08.6010,-0.11,-0.21,0.05,0.24
2022-11-13 14:9:08.6500,-0.08,-0.15,-0.09,0.19
2022-11-13 14:9:08.6510,-0.06,-0.01,-0.25,0.25
2022-11-13 14:9:08.6690,-0.1,0.17,-0.25,0.31
2022-11-13 14:9:08.6690,-0.2,0.29,-0.27,0.44
2022-11-13 14:9:08.6850,-0.18,0.3,-0.37,0.5
2022-11-13 14:9:08.6850,-0.12,0.22,-0.43,0.49
2022-11-13 14:9:08.7000,-0.13,0.07,-0.3,0.33
2022-11-13 14:9:08.7010,-0.2,-0.02,-0.11,0.22
2022-11-13 14:9:08.7170,-0.32,-0.06,0.1,0.34
2022-11-13 14:9:08.7180,-0.33,-0.03,0.18,0.37
2022-11-13 14:9:08.7650,-0.23,0.06,0.17,0.29
2022-11-13 14:9:08.7660,-0.19,0.08,0.13,0.24
2022-11-13 14:9:08.7850,-0.12,0.05,0.09,0.15
2022-11-13 14:9:08.7860,-0.08,0.01,0.07,0.1
2022-11-13 14:9:08.8010,-0.06,-0.06,0.02,0.08
2022-11-13 14:9:08.8020,-0.06,-0.1,-0.06,0.13
2022-11-13 14:9:08.8170,-0.07,-0.12,-0.11,0.17
2022-11-13 14:9:08.8180,-0.07,-0.09,-0.12,0.16
2022-11-13 14:9:08.8330,-0.03,-0.04,-0.14,0.14
2022-11-13 14:9:08.8340,0.0,-0.04,-0.28,0.28
2022-11-13 14:9:08.8820,0.04,-0.05,-0.32,0.32
2022-11-13 14:9:08.8830,0.07,-0.08,-0.24,0.26
2022-11-13 14:9:08.9020,0.05,-0.07,-0.13,0.15
2022-11-13 14:9:08.9030,-0.03,-0.05,0.02,0.06
2022-11-13 14:9:08.9180,-0.13,-0.09,0.09,0.18
2022-11-13 14:9:08.9190,-0.09,-0.1,0.03,0.13
2022-11-13 14:9:08.9340,0.03,-0.07,-0.05,0.09
2022-11-13 14:9:08.9340,0.19,0.01,-0.08,0.2
2022-11-13 14:9:08.9500,0.24,0.01,-0.03,0.24
2022-11-13 14:9:08.9510,0.21,-0.02,0.16,0.26
2022-11-13 14:9:08.9990,0.15,-0.05,0.41,0.43
2022-11-13 14:9:09.0000,0.15,-0.07,0.59,0.61
2022-11-13 14:9:09.0190,0.09,-0.09,0.65,0.66
2022-11-13 14:9:09.0200,0.07,-0.12,0.51,0.52
2022-11-13 14:9:09.0340,0.14,-0.13,0.26,0.32
2022-11-13 14:9:09.0350,0.23,-0.09,0.09,0.26
2022-11-13 14:9:09.0500,0.25,-0.04,0.04,0.25
2022-11-13 14:9:09.0510,0.33,-0.02,0.0,0.33
2022-11-13 14:9:09.0670,0.51,-0.07,-0.03,0.51
2022-11-13 14:9:09.0680,0.47,-0.19,-0.09,0.51
2022-11-13 14:9:09.1150,0.28,-0.28,-0.23,0.45
2022-11-13 14:9:09.1150,0.19,-0.3,-0.38,0.52
2022-11-13 14:9:09.1360,0.32,-0.23,-0.41,0.56
2022-11-13 14:9:09.1360,0.46,-0.18,-0.36,0.61
2022-11-13 14:9:09.1510,0.34,-0.21,-0.21,0.45
2022-11-13 14:9:09.1520,0.13,-0.26,-0.03,0.29
2022-11-13 14:9:09.1670,0.03,-0.29,0.13,0.31
2022-11-13 14:9:09.1680,0.16,-0.16,0.3,0.37
2022-11-13 14:9:09.1830,0.42,-0.21,0.37,0.59
2022-11-13 14:9:09.1840,0.5,-0.32,0.26,0.64
2022-11-13 14:9:09.2320,0.24,-0.28,0.08,0.37
2022-11-13 14:9:09.2330,0.1,-0.25,-0.01,0.26
2022-11-13 14:9:09.2520,0.07,-0.25,-0.07,0.26
2022-11-13 14:9:09.2530,0.11,-0.27,-0.21,0.35
2022-11-13 14:9:09.2670,0.22,-0.19,-0.21,0.35
2022-11-13 14:9:09.2680,0.28,-0.14,-0.2,0.37
2022-11-13 14:9:09.2830,0.21,-0.18,-0.19,0.33
2022-11-13 14:9:09.2840,0.1,-0.22,-0.17,0.29
2022-11-13 14:9:09.3000,0.0,-0.25,-0.17,0.3
2022-11-13 14:9:09.3010,-0.14,-0.18,-0.28,0.36
2022-11-13 14:9:09.3460,-0.14,-0.23,-0.39,0.47
2022-11-13 14:9:09.3470,-0.07,-0.49,-0.45,0.66
2022-11-13 14:9:09.3690,-0.13,-0.63,-0.44,0.77
2022-11-13 14:9:09.3690,-0.37,-0.34,-0.4,0.64
2022-11-13 14:9:09.3850,-0.46,-0.07,-0.38,0.6
2022-11-13 14:9:09.3850,-0.49,0.09,-0.23,0.54
2022-11-13 14:9:09.4000,-0.52,0.16,-0.13,0.55
2022-11-13 14:9:09.4010,-0.58,0.18,0.04,0.6
2022-11-13 14:9:09.4170,-0.59,0.22,0.3,0.69
2022-11-13 14:9:09.4180,-0.57,0.23,0.46,0.76
2022-11-13 14:9:09.4640,-0.54,0.32,0.45,0.77
2022-11-13 14:9:09.4650,-0.39,0.47,0.42,0.74
2022-11-13 14:9:09.4860,-0.1,0.58,0.47,0.75
2022-11-13 14:9:09.4870,-0.09,0.64,0.45,0.78
2022-11-13 14:9:09.5010,-0.18,0.62,0.39,0.75
2022-11-13 14:9:09.5020,-0.25,0.59,0.35,0.73
2022-11-13 14:9:09.5170,-0.25,0.6,0.37,0.74
2022-11-13 14:9:09.5170,-0.23,0.66,0.4,0.8
2022-11-13 14:9:09.5330,-0.25,0.72,0.46,0.89
2022-11-13 14:9:09.5340,-0.26,0.71,0.6,0.96
2022-11-13 14:9:09.5800,-0.31,0.69,0.73,1.05
2022-11-13 14:9:09.5800,-0.31,0.74,0.92,1.22
2022-11-13 14:9:09.6030,-0.28,0.79,1.14,1.41
2022-11-13 14:9:09.6030,-0.24,0.76,1.21,1.44
2022-11-13 14:9:09.6180,-0.3,0.59,1.12,1.3
2022-11-13 14:9:09.6190,-0.42,0.27,0.9,1.02
2022-11-13 14:9:09.6330,-0.51,-0.08,0.69,0.86
2022-11-13 14:9:09.6340,-0.47,-0.26,0.55,0.76
2022-11-13 14:9:09.6500,-0.36,-0.26,0.37,0.57
2022-11-13 14:9:09.6510,-0.24,-0.15,0.19,0.34
2022-11-13 14:9:09.6970,-0.17,-0.11,0.01,0.2
2022-11-13 14:9:09.6980,-0.08,-0.15,-0.13,0.21
2022-11-13 14:9:09.7190,-0.01,-0.1,-0.16,0.18
2022-11-13 14:9:09.7200,0.02,0.04,-0.19,0.19
2022-11-13 14:9:09.7350,-0.05,0.1,-0.24,0.26
2022-11-13 14:9:09.7350,-0.15,0.08,-0.28,0.32
2022-11-13 14:9:09.7510,-0.23,-0.04,-0.34,0.41
2022-11-13 14:9:09.7510,-0.26,-0.24,-0.41,0.54
2022-11-13 14:9:09.7670,-0.27,-0.41,-0.48,0.68
2022-11-13 14:9:09.7680,-0.22,-0.51,-0.54,0.77
2022-11-13 14:9:09.8150,-0.16,-0.5,-0.6,0.79
2022-11-13 14:9:09.8160,-0.1,-0.48,-0.68,0.83
2022-11-13 14:9:09.8350,-0.06,-0.42,-0.73,0.84
2022-11-13 14:9:09.8360,-0.04,-0.41,-0.79,0.89
2022-11-13 14:9:09.8510,0.06,-0.33,-0.7,0.77
2022-11-13 14:9:09.8520,0.07,-0.23,-0.53,0.58
2022-11-13 14:9:09.8670,-0.01,-0.24,-0.38,0.44
2022-11-13 14:9:09.8680,-0.2,-0.33,-0.16,0.41
2022-11-13 14:9:09.8840,-0.4,-0.43,0.18,0.61
2022-11-13 14:9:09.8850,-0.55,-0.4,0.44,0.81
2022-11-13 14:9:09.9280,-0.68,-0.32,0.66,1.0
2022-11-13 14:9:09.9290,-0.69,-0.19,0.72,1.01
2022-11-13 14:9:09.9320,-0.46,0.0,0.6,0.75
2022-11-13 14:9:09.9510,-0.13,0.19,0.32,0.39
2022-11-13 14:9:09.9520,0.21,0.37,0.01,0.42
2022-11-13 14:9:09.9670,0.43,0.47,-0.2,0.66
2022-11-13 14:9:09.9680,0.51,0.46,-0.36,0.77
2022-11-13 14:9:09.9830,0.52,0.42,-0.4,0.77
2022-11-13 14:9:09.9840,0.46,0.4,-0.27,0.66
2022-11-13 14:9:10.0000,0.27,0.27,-0.11,0.39
2022-11-13 14:9:10.0450,0.02,0.06,0.26,0.26
2022-11-13 14:9:10.0460,-0.07,0.07,0.64,0.64
2022-11-13 14:9:10.0480,-0.12,0.12,0.72,0.73
2022-11-13 14:9:10.0670,-0.15,0.15,0.56,0.59
2022-11-13 14:9:10.0680,-0.08,0.17,0.37,0.41
2022-11-13 14:9:10.0840,0.18,0.26,0.29,0.42
2022-11-13 14:9:10.0840,0.36,0.29,0.21,0.5
2022-11-13 14:9:10.1000,0.33,0.1,0.08,0.35
2022-11-13 14:9:10.1010,0.13,-0.17,0.02,0.21
2022-11-13 14:9:10.1170,0.04,-0.28,0.06,0.28
2022-11-13 14:9:10.1610,-0.06,-0.24,0.02,0.24
2022-11-13 14:9:10.1620,-0.13,-0.13,-0.12,0.21
2022-11-13 14:9:10.1650,-0.12,-0.03,-0.17,0.21
2022-11-13 14:9:10.1840,-0.14,0.1,-0.15,0.22
2022-11-13 14:9:10.1850,-0.11,0.27,-0.08,0.3
2022-11-13 14:9:10.2000,-0.02,0.38,-0.04,0.38
2022-11-13 14:9:10.2010,0.09,0.36,-0.06,0.37
2022-11-13 14:9:10.2170,0.12,0.2,-0.13,0.26
2022-11-13 14:9:10.2180,0.09,0.0,-0.19,0.21
2022-11-13 14:9:10.2330,0.09,-0.32,-0.21,0.39
2022-11-13 14:9:10.2780,0.01,-0.63,-0.11,0.63
2022-11-13 14:9:10.2790,-0.18,-0.75,0.15,0.78
2022-11-13 14:9:10.2830,-0.44,-0.84,0.28,0.98
2022-11-13 14:9:10.3010,-0.45,-0.7,0.39,0.91
2022-11-13 14:9:10.3010,-0.29,-0.32,0.44,0.61
2022-11-13 14:9:10.3170,-0.13,0.04,0.24,0.27
2022-11-13 14:9:10.3170,0.05,0.29,0.07,0.3
2022-11-13 14:9:10.3330,0.15,0.35,-0.05,0.38
2022-11-13 14:9:10.3340,0.08,0.23,-0.15,0.28
2022-11-13 14:9:10.3500,0.03,0.08,-0.23,0.24
2022-11-13 14:9:10.3950,-0.01,-0.05,-0.23,0.23
2022-11-13 14:9:10.3960,-0.11,-0.19,-0.19,0.29
2022-11-13 14:9:10.4000,-0.21,-0.29,-0.18,0.4
2022-11-13 14:9:10.4010,-0.21,-0.27,-0.09,0.35
2022-11-13 14:9:10.4180,-0.18,-0.17,-0.04,0.25
2022-11-13 14:9:10.4180,-0.06,-0.08,-0.03,0.1
2022-11-13 14:9:10.4330,0.04,0.0,-0.02,0.04
2022-11-13 14:9:10.4340,0.02,0.02,-0.06,0.06
2022-11-13 14:9:10.4500,-0.06,0.04,-0.12,0.13
2022-11-13 14:9:10.4510,-0.12,0.03,-0.17,0.21
2022-11-13 14:9:10.4920,-0.13,0.02,-0.16,0.2
2022-11-13 14:9:10.4920,-0.17,-0.03,-0.14,0.22
2022-11-13 14:9:10.5010,-0.19,-0.13,-0.06,0.23
2022-11-13 14:9:10.5010,-0.14,-0.16,0.1,0.23
2022-11-13 14:9:10.5180,-0.11,-0.13,0.24,0.29
2022-11-13 14:9:10.5180,-0.13,-0.09,0.35,0.38
2022-11-13 14:9:10.5330,-0.14,-0.06,0.26,0.3
2022-11-13 14:9:10.5340,-0.06,-0.02,0.09,0.11
2022-11-13 14:9:10.5500,-0.02,0.03,-0.08,0.08
2022-11-13 14:9:10.5510,-0.03,0.05,-0.2,0.2
2022-11-13 14:9:10.5930,0.02,0.09,-0.26,0.27
2022-11-13 14:9:10.5940,0.01,0.07,-0.19,0.2
2022-11-13 14:9:10.6000,-0.08,0.01,-0.04,0.09
2022-11-13 14:9:10.6010,-0.11,-0.05,0.1,0.15
2022-11-13 14:9:10.6180,-0.13,-0.12,0.19,0.25
2022-11-13 14:9:10.6180,-0.18,-0.22,0.27,0.39
2022-11-13 14:9:10.6330,-0.25,-0.3,0.36,0.53
2022-11-13 14:9:10.6340,-0.26,-0.29,0.35,0.52
2022-11-13 14:9:10.6500,-0.19,-0.21,0.25,0.37
2022-11-13 14:9:10.6510,-0.09,-0.09,0.14,0.18
2022-11-13 14:9:10.6940,-0.02,0.0,-0.01,0.02
2022-11-13 14:9:10.6950,-0.02,0.07,-0.16,0.17
2022-11-13 14:9:10.7000,-0.06,0.09,-0.26,0.28
2022-11-13 14:9:10.7000,-0.07,0.09,-0.2,0.23
2022-11-13 14:9:10.7180,-0.08,0.13,-0.11,0.18
2022-11-13 14:9:10.7180,-0.09,0.16,-0.11,0.21
2022-11-13 14:9:10.7330,-0.06,0.18,-0.14,0.23
2022-11-13 14:9:10.7340,-0.05,0.16,-0.15,0.22
2022-11-13 14:9:10.7500,-0.11,0.16,-0.13,0.23
2022-11-13 14:9:10.7510,-0.12,0.21,-0.05,0.24
2022-11-13 14:9:10.7910,-0.18,0.24,-0.02,0.3
2022-11-13 14:9:10.7920,-0.28,0.23,-0.04,0.36
2022-11-13 14:9:10.8010,-0.31,0.18,-0.12,0.37
2022-11-13 14:9:10.8020,-0.24,0.08,-0.02,0.25
2022-11-13 14:9:10.8180,-0.23,-0.09,0.16,0.29
2022-11-13 14:9:10.8180,-0.2,-0.28,0.16,0.37
2022-11-13 14:9:10.8340,-0.14,-0.38,0.21,0.45
2022-11-13 14:9:10.8350,-0.07,-0.35,0.21,0.41
2022-11-13 14:9:10.8500,0.04,-0.24,0.17,0.29
2022-11-13 14:9:10.8510,0.13,-0.11,0.07,0.18
2022-11-13 14:9:10.8910,0.23,0.01,0.02,0.23
2022-11-13 14:9:10.8920,0.27,0.12,0.06,0.3
2022-11-13 14:9:10.9010,0.2,0.14,0.11,0.26
2022-11-13 14:9:10.9020,0.17,0.14,0.13,0.25
2022-11-13 14:9:10.9180,0.15,0.13,0.17,0.26
2022-11-13 14:9:10.9180,0.06,0.07,0.17,0.19
2022-11-13 14:9:10.9330,-0.02,0.0,0.22,0.22
2022-11-13 14:9:10.9340,-0.13,-0.07,0.28,0.31
2022-11-13 14:9:10.9500,-0.16,-0.12,0.29,0.35
2022-11-13 14:9:10.9510,-0.15,-0.17,0.36,0.42
2022-11-13 14:9:10.9900,-0.19,-0.22,0.45,0.53
2022-11-13 14:9:10.9910,-0.21,-0.17,0.53,0.59
2022-11-13 14:9:11.0010,-0.14,-0.11,0.48,0.51
2022-11-13 14:9:11.0020,-0.08,-0.05,0.21,0.23
2022-11-13 14:9:11.0180,0.02,0.02,-0.04,0.04
2022-11-13 14:9:11.0180,0.04,0.04,-0.15,0.16
2022-11-13 14:9:11.0340,0.01,0.01,-0.13,0.13
2022-11-13 14:9:11.0350,-0.13,-0.05,0.04,0.14
2022-11-13 14:9:11.0500,-0.27,-0.15,0.15,0.34
2022-11-13 14:9:11.0510,-0.22,-0.15,0.08,0.27
2022-11-13 14:9:11.0900,-0.19,-0.15,-0.07,0.25
2022-11-13 14:9:11.0900,-0.16,-0.15,-0.14,0.26
2022-11-13 14:9:11.1010,-0.13,-0.06,-0.2,0.24
2022-11-13 14:9:11.1020,-0.15,0.0,-0.22,0.26
2022-11-13 14:9:11.1170,-0.11,0.06,-0.19,0.22
2022-11-13 14:9:11.1180,-0.14,0.07,-0.08,0.17
2022-11-13 14:9:11.1330,-0.14,0.08,-0.03,0.16
2022-11-13 14:9:11.1340,-0.17,0.1,-0.07,0.2
2022-11-13 14:9:11.1500,-0.15,0.0,-0.25,0.29
2022-11-13 14:9:11.1510,-0.08,-0.12,-0.38,0.4
2022-11-13 14:9:11.1890,-0.08,-0.22,-0.31,0.38
2022-11-13 14:9:11.1900,-0.2,-0.2,0.07,0.29
2022-11-13 14:9:11.2020,-0.31,-0.04,0.34,0.46
2022-11-13 14:9:11.2020,-0.35,0.0,0.38,0.51
2022-11-13 14:9:11.2180,-0.3,0.04,0.35,0.46
2022-11-13 14:9:11.2180,-0.24,0.04,0.24,0.34
2022-11-13 14:9:11.2340,-0.16,0.05,0.18,0.24
2022-11-13 14:9:11.2340,-0.14,0.14,0.17,0.26
2022-11-13 14:9:11.2500,-0.18,0.22,0.17,0.33
2022-11-13 14:9:11.2510,-0.17,0.19,0.02,0.25
2022-11-13 14:9:11.2890,-0.17,-0.04,0.01,0.17
2022-11-13 14:9:11.2900,-0.18,-0.18,0.25,0.35
2022-11-13 14:9:11.3010,-0.28,-0.3,0.43,0.59
2022-11-13 14:9:11.3020,-0.23,-0.33,0.44,0.59
2022-11-13 14:9:11.3170,-0.11,-0.23,0.27,0.37
2022-11-13 14:9:11.3180,-0.01,-0.11,0.05,0.12
2022-11-13 14:9:11.3330,0.06,0.0,-0.11,0.12
2022-11-13 14:9:11.3340,0.03,0.06,-0.21,0.22
2022-11-13 14:9:11.3500,0.05,0.09,-0.34,0.35
2022-11-13 14:9:11.3510,-0.05,0.08,-0.48,0.48
2022-11-13 14:9:11.3890,-0.2,-0.09,-0.27,0.34
2022-11-13 14:9:11.3900,-0.24,-0.25,0.17,0.38
2022-11-13 14:9:11.4010,-0.14,-0.4,0.54,0.68
2022-11-13 14:9:11.4020,-0.13,-0.39,0.66,0.77
2022-11-13 14:9:11.4170,-0.11,-0.34,0.59,0.68
2022-11-13 14:9:11.4180,-0.06,-0.22,0.32,0.39
2022-11-13 14:9:11.4340,-0.01,0.0,-0.03,0.03
2022-11-13 14:9:11.4350,0.08,0.28,-0.25,0.38
2022-11-13 14:9:11.4500,0.01,0.28,-0.14,0.31
2022-11-13 14:9:11.4510,-0.08,0.09,-0.02,0.12
2022-11-13 14:9:11.4880,-0.1,-0.02,-0.07,0.12
2022-11-13 14:9:11.4890,-0.17,-0.18,-0.06,0.25
2022-11-13 14:9:11.5010,-0.21,-0.32,0.08,0.39
2022-11-13 14:9:11.5020,-0.24,-0.38,0.18,0.48
2022-11-13 14:9:11.5180,-0.16,-0.34,0.07,0.38
2022-11-13 14:9:11.5180,-0.04,-0.13,-0.15,0.2
2022-11-13 14:9:11.5340,0.04,0.06,-0.28,0.28
2022-11-13 14:9:11.5340,-0.01,0.13,-0.27,0.29
2022-11-13 14:9:11.5500,-0.1,0.13,-0.2,0.25
2022-11-13 14:9:11.5510,-0.15,0.13,-0.16,0.25
2022-11-13 14:9:11.5880,-0.16,0.13,-0.05,0.21
2022-11-13 14:9:11.5890,-0.24,0.17,0.18,0.34
2022-11-13 14:9:11.6010,-0.3,0.15,0.22,0.4
2022-11-13 14:9:11.6020,-0.22,0.03,0.02,0.22
2022-11-13 14:9:11.6170,0.03,0.04,-0.73,0.73
2022-11-13 14:9:11.6180,0.24,-0.12,-0.19,0.32
2022-11-13 14:9:11.6340,0.01,-0.48,0.2,0.52
2022-11-13 14:9:11.6340,-0.25,-0.51,0.29,0.63
2022-11-13 14:9:11.6500,-0.13,-0.35,0.13,0.39
2022-11-13 14:9:11.6510,0.11,-0.03,-0.07,0.13
2022-11-13 14:9:11.6880,0.09,0.2,-0.01,0.21
2022-11-13 14:9:11.6890,0.11,0.24,-0.13,0.29
2022-11-13 14:9:11.7010,0.09,0.15,-0.24,0.29
2022-11-13 14:9:11.7020,0.13,-0.04,-0.28,0.31
2022-11-13 14:9:11.7180,0.07,-0.13,-0.44,0.46
2022-11-13 14:9:11.7180,0.01,-0.18,-0.21,0.27
2022-11-13 14:9:11.7340,-0.03,-0.16,0.1,0.19
2022-11-13 14:9:11.7340,-0.01,-0.12,0.09,0.15
2022-11-13 14:9:11.7500,0.04,-0.08,0.01,0.09
2022-11-13 14:9:11.7510,0.05,-0.03,-0.08,0.09
2022-11-13 14:9:11.7880,0.02,0.11,-0.18,0.21
2022-11-13 14:9:11.7890,-0.01,0.26,-0.29,0.38
2022-11-13 14:9:11.8010,0.05,0.33,-0.35,0.48
2022-11-13 14:9:11.8020,0.12,0.32,-0.28,0.44
2022-11-13 14:9:11.8170,0.04,0.3,-0.09,0.31
2022-11-13 14:9:11.8180,-0.13,0.27,0.22,0.37
2022-11-13 14:9:11.8330,-0.38,0.14,0.48,0.62
2022-11-13 14:9:11.8340,-0.46,-0.03,0.48,0.66
2022-11-13 14:9:11.8500,-0.34,-0.15,0.35,0.51
2022-11-13 14:9:11.8510,-0.25,-0.3,0.2,0.43
2022-11-13 14:9:11.8880,-0.04,-0.29,0.11,0.31
2022-11-13 14:9:11.8890,0.21,-0.19,0.02,0.28
2022-11-13 14:9:11.9010,0.23,-0.11,-0.17,0.3
2022-11-13 14:9:11.9020,0.22,-0.01,-0.17,0.27
2022-11-13 14:9:11.9170,0.26,0.09,-0.07,0.28
2022-11-13 14:9:11.9180,0.26,0.1,0.05,0.28
2022-11-13 14:9:11.9330,0.25,0.04,0.11,0.27
2022-11-13 14:9:11.9340,0.21,-0.06,0.18,0.28
2022-11-13 14:9:11.9500,0.13,-0.11,0.2,0.26
2022-11-13 14:9:11.9510,0.02,-0.14,0.21,0.25
2022-11-13 14:9:11.9870,-0.17,-0.17,0.23,0.33
2022-11-13 14:9:11.9880,-0.37,-0.26,0.38,0.59
2022-11-13 14:9:12.0010,-0.43,-0.47,0.46,0.78
2022-11-13 14:9:12.0020,0.28,0.08,0.36,0.46
2022-11-13 14:9:12.0180,0.12,0.38,0.31,0.5
2022-11-13 14:9:12.0180,-0.1,0.22,0.2,0.31
2022-11-13 14:9:12.0340,0.06,0.15,0.01,0.16
2022-11-13 14:9:12.0340,-0.01,0.17,-0.09,0.19
2022-11-13 14:9:12.0490,-0.14,0.17,-0.12,0.25
2022-11-13 14:9:12.0500,-0.18,0.12,0.01,0.21
2022-11-13 14:9:12.0860,-0.16,0.18,0.11,0.26
2022-11-13 14:9:12.0870,-0.07,0.28,0.1,0.3
2022-11-13 14:9:12.1010,0.05,0.33,0.08,0.34
2022-11-13 14:9:12.1020,0.09,0.32,0.19,0.38
2022-11-13 14:9:12.1170,-0.01,0.15,0.3,0.33
2022-11-13 14:9:12.1180,-0.07,-0.11,0.16,0.2
2022-11-13 14:9:12.1330,0.02,-0.23,-0.08,0.24
2022-11-13 14:9:12.1340,0.14,-0.21,-0.11,0.27
2022-11-13 14:9:12.1500,0.23,-0.18,-0.09,0.3
2022-11-13 14:9:12.1510,0.16,-0.25,-0.03,0.29
2022-11-13 14:9:12.1900,-0.2,-0.36,-0.17,0.44
2022-11-13 14:9:12.1900,-0.49,-0.47,-0.49,0.83
2022-11-13 14:9:12.2010,-0.85,-0.26,-0.81,1.2
2022-11-13 14:9:12.2020,-0.58,0.08,-0.93,1.09
2022-11-13 14:9:12.2170,0.22,0.4,-0.58,0.73
2022-11-13 14:9:12.2180,0.83,0.72,-0.1,1.1
2022-11-13 14:9:12.2330,1.08,1.0,-0.25,1.49
2022-11-13 14:9:12.2340,1.01,1.01,-0.58,1.54
2022-11-13 14:9:12.2500,0.85,0.68,-1.11,1.55
2022-11-13 14:9:12.2510,0.93,-0.07,-1.51,1.77
2022-11-13 14:9:12.2890,0.97,-0.92,-1.0,1.66
2022-11-13 14:9:12.2900,0.72,-1.82,0.17,1.96
2022-11-13 14:9:12.3010,0.63,-1.73,-1.12,2.15
2022-11-13 14:9:12.3020,0.28,-0.95,-0.79,1.26
2022-11-13 14:9:12.3180,-0.06,-0.58,-1.05,1.2
2022-11-13 14:9:12.3190,-0.01,-0.42,-0.59,0.72
2022-11-13 14:9:12.3330,0.0,-0.1,0.14,0.17
2022-11-13 14:9:12.3340,-0.36,0.11,0.55,0.66
2022-11-13 14:9:12.3500,-0.83,0.2,1.15,1.43
2022-11-13 14:9:12.3510,-1.37,0.19,1.64,2.14
2022-11-13 14:9:12.3890,-1.76,0.07,1.67,2.42
2022-11-13 14:9:12.3900,-1.0,0.12,0.96,1.39
2022-11-13 14:9:12.4010,-0.17,0.12,0.27,0.34
2022-11-13 14:9:12.4020,-0.2,0.14,-0.24,0.34
2022-11-13 14:9:12.4170,-0.32,0.33,-0.88,0.99
2022-11-13 14:9:12.4180,-0.31,0.59,-1.38,1.53
2022-11-13 14:9:12.4330,-0.14,0.85,-1.41,1.65
2022-11-13 14:9:12.4340,-0.12,0.93,-0.36,1.0
2022-11-13 14:9:12.4500,-0.44,0.87,2.65,2.82
2022-11-13 14:9:12.4510,-0.71,0.5,-0.78,1.16
2022-11-13 14:9:12.4890,-0.69,0.22,-1.78,1.92
2022-11-13 14:9:12.4900,-0.2,0.19,-1.9,1.91
2022-11-13 14:9:12.5010,-0.22,0.35,-2.37,2.4
2022-11-13 14:9:12.5020,-0.85,0.34,-1.29,1.58
2022-11-13 14:9:12.5170,-1.63,0.07,-0.55,1.72
2022-11-13 14:9:12.5180,-2.32,0.03,-1.35,2.68
2022-11-13 14:9:12.5340,-1.48,0.11,-0.87,1.72
2022-11-13 14:9:12.5340,0.47,0.12,1.34,1.42
2022-11-13 14:9:12.5500,1.19,-0.15,1.49,1.91
2022-11-13 14:9:12.5510,0.74,-0.78,0.56,1.21
2022-11-13 14:9:12.5890,0.0,-1.21,-0.73,1.41
2022-11-13 14:9:12.5900,0.17,-1.11,-1.68,2.02
2022-11-13 14:9:12.6010,0.77,-0.79,-1.99,2.27
2022-11-13 14:9:12.6020,1.13,-0.36,-1.67,2.04
2022-11-13 14:9:12.6170,1.31,0.3,-0.34,1.38
2022-11-13 14:9:12.6180,1.0,0.45,-0.21,1.11
2022-11-13 14:9:12.6330,0.68,0.33,-0.54,0.92
2022-11-13 14:9:12.6340,0.44,0.14,-0.78,0.9
2022-11-13 14:9:12.6500,0.07,-0.18,-1.32,1.33
2022-11-13 14:9:12.6510,-0.17,-0.21,-1.7,1.72
2022-11-13 14:9:12.6890,-0.11,0.11,-1.36,1.36
2022-11-13 14:9:12.6890,0.36,0.0,-1.1,1.15
2022-11-13 14:9:12.7010,0.54,0.01,-0.81,0.97
2022-11-13 14:9:12.7020,0.53,0.35,-0.44,0.77
2022-11-13 14:9:12.7180,0.73,0.72,0.23,1.05
2022-11-13 14:9:12.7180,0.88,0.46,1.35,1.67
2022-11-13 14:9:12.7330,0.43,-0.1,2.38,2.42
2022-11-13 14:9:12.7340,-0.75,-0.77,2.76,2.96
2022-11-13 14:9:12.7500,-1.76,-1.68,2.5,3.48
2022-11-13 14:9:12.7510,-1.78,-2.31,2.21,3.65
2022-11-13 14:9:12.7900,-1.68,-1.75,1.62,2.91
2022-11-13 14:9:12.7910,-1.0,-1.37,1.54,2.29
2022-11-13 14:9:12.8010,0.04,-1.31,1.89,2.29
2022-11-13 14:9:12.8020,0.81,-1.23,1.87,2.38
2022-11-13 14:9:12.8170,0.86,-1.03,1.32,1.88
2022-11-13 14:9:12.8180,0.51,-0.54,0.76,1.06
2022-11-13 14:9:12.8330,0.26,-0.05,0.97,1.0
2022-11-13 14:9:12.8340,0.03,-0.05,1.67,1.67
2022-11-13 14:9:12.8500,-0.17,-0.44,2.22,2.26
2022-11-13 14:9:12.8510,-0.07,-0.28,1.6,1.62
2022-11-13 14:9:12.8900,0.12,0.3,1.4,1.43
2022-11-13 14:9:12.8910,0.24,0.64,1.54,1.68
2022-11-13 14:9:12.9010,-0.1,0.6,1.84,1.93
2022-11-13 14:9:12.9020,-0.35,0.66,1.82,1.96
2022-11-13 14:9:12.9180,-0.31,0.88,1.08,1.42
2022-11-13 14:9:12.9180,0.08,1.06,-0.06,1.06
2022-11-13 14:9:12.9330,0.64,1.39,-1.08,1.87
2022-11-13 14:9:12.9340,1.07,1.76,-1.35,2.46
2022-11-13 14:9:12.9500,0.76,1.69,-1.33,2.28
2022-11-13 14:9:12.9510,0.44,1.41,-0.82,1.68
2022-11-13 14:9:12.9880,0.08,1.26,-0.27,1.29
2022-11-13 14:9:12.9890,-0.5,0.92,-0.52,1.16
2022-11-13 14:9:13.0010,-0.77,0.35,-0.78,1.15
2022-11-13 14:9:13.0020,-0.69,-0.17,-0.6,0.93
2022-11-13 14:9:13.0170,-0.63,-0.54,-0.09,0.83
2022-11-13 14:9:13.0180,-0.81,-0.68,0.41,1.13
2022-11-13 14:9:13.0330,-0.76,-0.94,0.67,1.38
2022-11-13 14:9:13.0340,-0.91,-1.12,0.74,1.62
2022-11-13 14:9:13.0500,-1.34,-1.17,0.89,1.98
2022-11-13 14:9:13.0510,-1.53,-1.2,1.16,2.26
2022-11-13 14:9:13.0900,-1.42,-0.9,0.44,1.73
2022-11-13 14:9:13.0910,-1.79,-0.8,0.98,2.19
2022-11-13 14:9:13.1010,-1.17,-0.38,0.16,1.24
2022-11-13 14:9:13.1020,0.13,0.24,-0.03,0.27
2022-11-13 14:9:13.1180,1.31,0.81,0.35,1.57
2022-11-13 14:9:13.1180,1.54,1.21,-0.29,1.97
2022-11-13 14:9:13.1330,0.96,1.2,-0.49,1.61
2022-11-13 14:9:13.1340,0.12,0.76,-0.39,0.86
2022-11-13 14:9:13.1500,-0.47,0.21,0.0,0.51
2022-11-13 14:9:13.1510,-0.41,0.12,0.14,0.44
2022-11-13 14:9:13.1890,-0.44,0.07,0.09,0.45
2022-11-13 14:9:13.1900,-0.43,-0.05,0.06,0.43
2022-11-13 14:9:13.2010,-0.29,-0.09,-0.01,0.3
2022-11-13 14:9:13.2020,-0.28,-0.17,-0.04,0.33
2022-11-13 14:9:13.2170,-0.13,-0.18,0.07,0.23
2022-11-13 14:9:13.2180,0.08,-0.16,0.15,0.23
2022-11-13 14:9:13.2330,0.04,-0.23,0.11,0.25
2022-11-13 14:9:13.2340,-0.05,-0.27,0.16,0.31
2022-11-13 14:9:13.2500,-0.15,-0.32,0.32,0.47
2022-11-13 14:9:13.2510,-0.16,-0.4,0.53,0.68
2022-11-13 14:9:13.2890,-0.17,-0.54,0.48,0.74
2022-11-13 14:9:13.2900,-0.26,-0.64,0.19,0.71
2022-11-13 14:9:13.3010,-0.4,-0.47,-0.04,0.61
2022-11-13 14:9:13.3020,-0.17,-0.11,-0.09,0.22
2022-11-13 14:9:13.3180,-0.1,0.23,-0.01,0.25
2022-11-13 14:9:13.3180,-0.21,0.4,0.0,0.45
2022-11-13 14:9:13.3330,-0.15,0.43,-0.2,0.49
2022-11-13 14:9:13.3340,-0.1,0.4,-0.36,0.54
2022-11-13 14:9:13.3500,0.06,0.26,-0.24,0.35
2022-11-13 14:9:13.3510,-0.03,-0.07,-0.29,0.29
2022-11-13 14:9:13.3880,-0.12,-0.27,-0.49,0.57
2022-11-13 14:9:13.3890,0.01,-0.13,-0.78,0.79
2022-11-13 14:9:13.4020,0.01,0.19,-0.79,0.81
2022-11-13 14:9:13.4020,-0.02,0.53,-0.51,0.73
2022-11-13 14:9:13.4170,-0.15,0.63,-0.12,0.65
2022-11-13 14:9:13.4180,-0.17,0.68,0.29,0.75
2022-11-13 14:9:13.4330,-0.24,0.59,0.52,0.82
2022-11-13 14:9:13.4340,-0.41,0.22,0.41,0.62
2022-11-13 14:9:13.4500,-0.27,0.09,0.21,0.35
2022-11-13 14:9:13.4510,-0.35,0.17,-0.06,0.39
2022-11-13 14:9:13.4910,-0.3,0.21,-0.32,0.48
2022-11-13 14:9:13.4920,-0.19,0.06,-0.52,0.55
2022-11-13 14:9:13.5010,-0.3,-0.11,-0.55,0.63
2022-11-13 14:9:13.5020,-0.14,-0.11,-0.42,0.45
2022-11-13 14:9:13.5170,-0.19,-0.11,-0.01,0.21
2022-11-13 14:9:13.5180,-0.32,-0.09,0.26,0.42
2022-11-13 14:9:13.5330,-0.21,0.0,0.42,0.46
2022-11-13 14:9:13.5340,-0.14,0.0,0.51,0.52
2022-11-13 14:9:13.5500,-0.11,-0.09,0.48,0.5
2022-11-13 14:9:13.5510,-0.12,-0.14,0.3,0.35
2022-11-13 14:9:13.5890,-0.07,-0.1,0.05,0.13
2022-11-13 14:9:13.5900,-0.03,-0.04,-0.16,0.16
2022-11-13 14:9:13.6010,-0.12,-0.03,-0.28,0.3
2022-11-13 14:9:13.6020,-0.14,0.0,-0.26,0.29
2022-11-13 14:9:13.6180,-0.09,-0.03,-0.3,0.31
2022-11-13 14:9:13.6180,0.01,-0.04,-0.23,0.23
2022-11-13 14:9:13.6330,0.05,-0.01,-0.02,0.05
2022-11-13 14:9:13.6340,0.02,0.05,0.16,0.16
2022-11-13 14:9:13.6500,0.04,0.13,0.33,0.35
2022-11-13 14:9:13.6510,-0.04,0.05,0.25,0.25
2022-11-13 14:9:13.6880,0.03,0.0,0.08,0.08
2022-11-13 14:9:13.6890,0.1,0.01,-0.1,0.14
2022-11-13 14:9:13.7010,0.16,0.02,-0.29,0.33
2022-11-13 14:9:13.7020,0.22,-0.01,-0.27,0.34
2022-11-13 14:9:13.7180,0.13,-0.02,-0.19,0.23
2022-11-13 14:9:13.7180,0.07,0.04,0.03,0.08
2022-11-13 14:9:13.7330,0.05,0.13,0.26,0.29
2022-11-13 14:9:13.7340,-0.03,0.17,0.32,0.36
2022-11-13 14:9:13.7500,-0.06,0.24,0.27,0.36
2022-11-13 14:9:13.7510,-0.08,0.32,0.09,0.34
2022-11-13 14:9:13.7880,-0.09,0.33,-0.13,0.36
2022-11-13 14:9:13.7880,-0.15,0.24,-0.14,0.31
2022-11-13 14:9:13.8010,-0.06,0.17,-0.01,0.18
2022-11-13 14:9:13.8020,0.11,0.09,0.06,0.15
2022-11-13 14:9:13.8170,0.13,-0.1,0.12,0.2
2022-11-13 14:9:13.8180,0.1,-0.32,0.1,0.34
2022-11-13 14:9:13.8330,0.06,-0.43,0.03,0.43
2022-11-13 14:9:13.8340,0.04,-0.38,0.05,0.38
2022-11-13 14:9:13.8500,-0.05,-0.27,0.08,0.28
2022-11-13 14:9:13.8510,-0.1,-0.15,-0.01,0.18
2022-11-13 14:9:13.8870,-0.09,-0.01,-0.07,0.11
2022-11-13 14:9:13.8880,-0.11,0.12,0.0,0.16
2022-11-13 14:9:13.9010,-0.15,0.18,0.07,0.24
2022-11-13 14:9:13.9020,-0.11,0.16,0.08,0.21
2022-11-13 14:9:13.9170,-0.1,0.15,0.22,0.28
2022-11-13 14:9:13.9180,-0.18,0.12,0.26,0.33
2022-11-13 14:9:13.9330,0.19,0.24,0.12,0.32
2022-11-13 14:9:13.9340,-0.82,0.02,-0.08,0.82
2022-11-13 14:9:13.9500,-0.26,0.18,0.02,0.31
2022-11-13 14:9:13.9510,-0.22,0.29,0.4,0.54
2022-11-13 14:9:13.9870,-0.15,0.24,0.48,0.55
2022-11-13 14:9:13.9880,-0.14,0.07,0.26,0.3
2022-11-13 14:9:14.0010,0.01,-0.25,-0.59,0.64
2022-11-13 14:9:14.0020,0.37,-0.39,-0.97,1.1
2022-11-13 14:9:14.0170,0.35,-0.33,-0.11,0.49
2022-11-13 14:9:14.0180,0.3,-0.14,0.35,0.48
2022-11-13 14:9:14.0330,0.15,0.07,0.33,0.36
2022-11-13 14:9:14.0340,0.07,0.26,0.45,0.52
2022-11-13 14:9:14.0500,-0.07,0.27,0.63,0.68
2022-11-13 14:9:14.0510,-0.19,0.13,0.92,0.94
2022-11-13 14:9:14.0870,-0.3,-0.04,0.83,0.88
2022-11-13 14:9:14.0880,-0.32,-0.16,0.12,0.37
2022-11-13 14:9:14.1010,-0.04,-0.21,-0.51,0.55
2022-11-13 14:9:14.1020,0.03,-0.02,-0.51,0.51
2022-11-13 14:9:14.1170,-0.17,0.05,-0.58,0.6
2022-11-13 14:9:14.1180,-0.14,0.1,-0.79,0.8
2022-11-13 14:9:14.1330,-0.23,0.15,-0.82,0.86
2022-11-13 14:9:14.1340,-0.31,0.11,-0.85,0.91
2022-11-13 14:9:14.1500,-0.08,0.1,-0.7,0.71
2022-11-13 14:9:14.1510,-0.02,0.18,-0.36,0.4
2022-11-13 14:9:14.1870,0.04,0.12,-0.18,0.22
2022-11-13 14:9:14.1880,0.06,0.0,-0.22,0.22
2022-11-13 14:9:14.2010,-0.03,-0.08,-0.21,0.22
2022-11-13 14:9:14.2020,-0.13,0.0,-0.09,0.15
2022-11-13 14:9:14.2170,-0.23,0.05,0.23,0.32
2022-11-13 14:9:14.2180,-0.53,0.15,0.63,0.83
2022-11-13 14:9:14.2330,-0.79,0.24,1.22,1.47
2022-11-13 14:9:14.2340,-1.31,0.09,1.82,2.24
2022-11-13 14:9:14.2500,-0.96,0.22,1.61,1.88
2022-11-13 14:9:14.2510,-0.36,0.15,1.58,1.62
2022-11-13 14:9:14.2870,-0.21,-0.21,1.81,1.83
2022-11-13 14:9:14.2880,-1.65,-0.79,0.66,1.94
2022-11-13 14:9:14.3010,-0.55,-0.44,-0.52,0.87
2022-11-13 14:9:14.3020,0.66,0.06,-0.59,0.88
2022-11-13 14:9:14.3170,0.2,0.04,-0.87,0.89
2022-11-13 14:9:14.3180,-0.51,-0.12,-1.05,1.17
2022-11-13 14:9:14.3330,-0.28,0.17,-1.56,1.59
2022-11-13 14:9:14.3340,0.1,0.67,-1.85,1.97
2022-11-13 14:9:14.3500,-0.45,0.38,-1.86,1.95
2022-11-13 14:9:14.3510,-1.42,-0.43,-1.71,2.26
2022-11-13 14:9:14.3870,-1.72,-0.99,-1.34,2.39
2022-11-13 14:9:14.3880,-1.11,-0.43,-1.54,1.94
2022-11-13 14:9:14.4010,-0.11,0.44,-1.6,1.66
2022-11-13 14:9:14.4020,0.4,0.78,-0.98,1.31
2022-11-13 14:9:14.4170,0.64,0.71,1.01,1.39
2022-11-13 14:9:14.4180,0.94,0.26,6.19,6.26
2022-11-13 14:9:14.4330,-0.23,-0.64,1.24,1.41
2022-11-13 14:9:14.4340,-1.42,-1.77,0.57,2.33
2022-11-13 14:9:14.4500,-1.31,-2.0,0.84,2.53
2022-11-13 14:9:14.4510,-1.0,-1.51,0.44,1.86
2022-11-13 14:9:14.4670,-0.6,-1.14,0.72,1.47
2022-11-13 14:9:14.5060,-0.86,-0.55,-0.79,1.29
2022-11-13 14:9:14.5070,-0.93,0.56,-2.82,3.02
2022-11-13 14:9:14.5180,-0.16,1.24,-4.29,4.46
2022-11-13 14:9:14.5180,0.59,1.31,-5.58,5.76
2022-11-13 14:9:14.5340,0.32,1.35,-6.67,6.81
2022-11-13 14:9:14.5350,-0.15,1.32,-5.28,5.44
2022-11-13 14:9:14.5500,-0.32,0.88,-2.95,3.09
2022-11-13 14:9:14.5510,-0.89,0.21,-1.07,1.4
2022-11-13 14:9:14.5670,-1.54,-0.28,-0.12,1.56
2022-11-13 14:9:14.6020,-2.13,-0.69,0.18,2.24
2022-11-13 14:9:14.6030,-1.84,-0.78,-0.72,2.12
2022-11-13 14:9:14.6180,-0.68,-0.51,-2.17,2.33
2022-11-13 14:9:14.6180,0.59,-0.37,-3.3,3.37
2022-11-13 14:9:14.6340,1.26,-0.74,-4.44,4.67
2022-11-13 14:9:14.6350,0.97,-1.18,-5.05,5.27
2022-11-13 14:9:14.6500,0.41,-1.63,-4.25,4.57
2022-11-13 14:9:14.6510,-0.26,-2.08,-2.86,3.54
2022-11-13 14:9:14.6670,-1.79,-2.67,-0.99,3.36
2022-11-13 14:9:14.6680,-1.95,-3.5,-2.82,4.89
2022-11-13 14:9:14.7030,-1.98,-4.0,-2.89,5.31
2022-11-13 14:9:14.7040,-1.97,-4.51,-3.62,6.1
2022-11-13 14:9:14.7180,-2.01,-5.18,-4.84,7.36
2022-11-13 14:9:14.7190,-0.43,-5.12,-5.43,7.47
2022-11-13 14:9:14.7340,1.42,-3.93,-5.47,6.88
2022-11-13 14:9:14.7350,1.08,-3.48,-4.99,6.17
2022-11-13 14:9:14.7500,-0.77,-3.42,-3.23,4.76
2022-11-13 14:9:14.7510,-3.34,-4.43,0.54,5.57
2022-11-13 14:9:14.7660,-3.66,-5.59,3.41,7.5
2022-11-13 14:9:14.7670,-2.33,-5.78,4.56,7.72
2022-11-13 14:9:14.8050,-1.07,-5.4,3.75,6.66
2022-11-13 14:9:14.8050,-0.27,-4.95,1.96,5.33
2022-11-13 14:9:14.8180,-0.08,-4.62,0.23,4.62
2022-11-13 14:9:14.8190,-1.02,-5.04,-0.32,5.15
2022-11-13 14:9:14.8340,-2.1,-4.84,1.61,5.51
2022-11-13 14:9:14.8350,-2.97,-3.65,5.09,6.93
2022-11-13 14:9:14.8500,-3.66,-2.77,7.43,8.73
2022-11-13 14:9:14.8510,-4.15,-2.33,7.34,8.74
2022-11-13 14:9:14.8670,-5.12,-3.3,5.91,8.48
2022-11-13 14:9:14.8680,-4.52,-3.59,4.84,7.53
2022-11-13 14:9:14.9030,-2.82,-2.19,2.95,4.63
2022-11-13 14:9:14.9040,-3.0,-1.46,1.08,3.5
2022-11-13 14:9:14.9180,-3.89,-0.73,0.62,4.0
2022-11-13 14:9:14.9190,-4.54,0.56,0.92,4.66
2022-11-13 14:9:14.9340,-5.23,1.77,1.18,5.64
2022-11-13 14:9:14.9350,-6.22,2.31,1.13,6.73
2022-11-13 14:9:14.9500,-7.37,1.89,1.34,7.72
2022-11-13 14:9:14.9510,-7.57,2.0,1.46,7.96
2022-11-13 14:9:14.9670,-7.54,3.21,1.55,8.34
2022-11-13 14:9:14.9680,-7.74,4.02,1.87,8.91
2022-11-13 14:9:15.0020,-7.87,4.45,1.68,9.19
2022-11-13 14:9:15.0030,-7.89,5.19,0.3,9.44
2022-11-13 14:9:15.0180,-7.13,5.85,-1.23,9.3
2022-11-13 14:9:15.0190,-5.71,6.74,-2.11,9.08
2022-11-13 14:9:15.0340,-4.54,7.23,-2.73,8.96
2022-11-13 14:9:15.0350,-3.91,6.8,-3.19,8.46
2022-11-13 14:9:15.0500,-4.12,5.54,-3.53,7.75
2022-11-13 14:9:15.0510,-4.5,3.95,-3.36,6.86
2022-11-13 14:9:15.0660,-4.0,3.92,-2.43,6.1
2022-11-13 14:9:15.0670,-2.5,4.81,-1.99,5.77
2022-11-13 14:9:15.1020,-1.86,5.5,-1.78,6.07
2022-11-13 14:9:15.1030,-1.27,5.84,-1.75,6.22
2022-11-13 14:9:15.1180,-0.51,6.1,-1.8,6.38
2022-11-13 14:9:15.1190,0.07,6.11,-2.29,6.52
2022-11-13 14:9:15.1340,-0.06,5.64,-2.25,6.07
2022-11-13 14:9:15.1350,-0.73,4.54,-1.64,4.88
2022-11-13 14:9:15.1500,-1.14,3.48,-0.69,3.72
2022-11-13 14:9:15.1510,-0.68,3.08,-0.02,3.15
2022-11-13 14:9:15.1660,0.14,1.95,-0.24,1.96
2022-11-13 14:9:15.1670,1.43,0.75,-1.09,1.94
2022-11-13 14:9:15.2020,2.68,0.01,-2.51,3.67
2022-11-13 14:9:15.2030,3.57,-0.46,-3.66,5.13
2022-11-13 14:9:15.2180,3.91,-0.79,-3.81,5.51
2022-11-13 14:9:15.2190,3.8,-1.47,-3.8,5.57
2022-11-13 14:9:15.2340,3.55,-2.26,-3.39,5.4
2022-11-13 14:9:15.2350,2.67,-2.25,-2.43,4.25
2022-11-13 14:9:15.2500,1.57,-2.13,-1.82,3.21
2022-11-13 14:9:15.2510,0.72,-1.6,-1.22,2.13
2022-11-13 14:9:15.2660,-0.21,-1.18,-0.69,1.38
2022-11-13 14:9:15.2670,-0.9,-0.39,-0.39,1.05
2022-11-13 14:9:15.3020,-1.25,0.93,-0.64,1.68
2022-11-13 14:9:15.3030,-1.6,1.45,-0.59,2.23
2022-11-13 14:9:15.3180,-1.81,1.25,0.05,2.2
2022-11-13 14:9:15.3190,-2.0,0.8,0.75,2.28
2022-11-13 14:9:15.3340,-2.14,0.25,1.36,2.54
2022-11-13 14:9:15.3350,-1.58,-0.26,1.46,2.16
2022-11-13 14:9:15.3500,-1.16,-0.59,1.62,2.07
2022-11-13 14:9:15.3510,-1.23,-0.93,2.18,2.67
2022-11-13 14:9:15.3660,-0.66,-1.17,2.09,2.48
2022-11-13 14:9:15.3670,0.21,-1.4,1.04,1.75
2022-11-13 14:9:15.4040,1.17,-0.38,-0.11,1.23
2022-11-13 14:9:15.4040,1.62,0.65,-2.0,2.65
2022-11-13 14:9:15.4180,2.05,1.16,-2.61,3.51
2022-11-13 14:9:15.4190,1.61,1.53,-1.89,2.91
2022-11-13 14:9:15.4340,-0.03,1.17,-1.21,1.68
2022-11-13 14:9:15.4350,-0.98,0.16,-0.1,0.99
2022-11-13 14:9:15.4500,-1.01,-0.52,0.75,1.36
2022-11-13 14:9:15.4500,-0.93,-0.08,1.27,1.57
2022-11-13 14:9:15.4660,-0.91,0.11,1.55,1.8
2022-11-13 14:9:15.4670,-0.68,1.17,0.71,1.52
2022-11-13 14:9:15.5020,-0.32,1.79,-0.39,1.85
2022-11-13 14:9:15.5020,-0.27,1.84,-0.45,1.91
2022-11-13 14:9:15.5180,-0.41,1.51,0.35,1.6
2022-11-13 14:9:15.5190,-0.15,1.19,1.0,1.56
2022-11-13 14:9:15.5340,-0.37,0.01,1.52,1.56
2022-11-13 14:9:15.5350,-0.42,-0.77,1.44,1.68
2022-11-13 14:9:15.5500,-0.01,-1.39,0.31,1.42
2022-11-13 14:9:15.5510,-0.02,-2.01,-0.94,2.21
2022-11-13 14:9:15.5660,0.18,-2.1,-2.07,2.95
2022-11-13 14:9:15.5670,-0.01,-1.69,-2.09,2.68
2022-11-13 14:9:15.6010,-0.78,-1.15,-1.18,1.82
2022-11-13 14:9:15.6020,-1.46,-0.67,-0.18,1.61
2022-11-13 14:9:15.6180,-1.79,-0.79,0.5,2.01
2022-11-13 14:9:15.6190,-2.38,-1.9,0.71,3.12
2022-11-13 14:9:15.6340,-2.82,-3.21,0.82,4.35
2022-11-13 14:9:15.6350,-2.03,-3.6,1.1,4.27
2022-11-13 14:9:15.6500,-0.81,-2.94,1.45,3.37
2022-11-13 14:9:15.6510,-0.15,-1.78,1.7,2.46
2022-11-13 14:9:15.6660,-0.01,-0.67,1.68,1.8
2022-11-13 14:9:15.6670,-0.26,0.53,1.04,1.19
2022-11-13 14:9:15.7020,-1.19,1.72,0.15,2.09
2022-11-13 14:9:15.7030,-2.03,2.08,0.33,2.92
2022-11-13 14:9:15.7180,-3.06,2.63,0.4,4.05
2022-11-13 14:9:15.7190,-3.71,2.78,-0.12,4.63
2022-11-13 14:9:15.7340,-2.82,1.84,-0.34,3.38
2022-11-13 14:9:15.7350,-2.05,0.74,-0.71,2.29
2022-11-13 14:9:15.7500,-0.69,-0.24,-0.85,1.12
2022-11-13 14:9:15.7510,1.17,-0.61,-0.93,1.61
2022-11-13 14:9:15.7660,1.01,0.1,-0.48,1.12
2022-11-13 14:9:15.7670,1.16,0.9,0.73,1.63
2022-11-13 14:9:15.8020,1.73,1.04,1.56,2.55
2022-11-13 14:9:15.8030,2.2,1.08,1.66,2.96
2022-11-13 14:9:15.8180,3.41,0.96,1.14,3.72
2022-11-13 14:9:15.8190,4.73,1.02,0.37,4.85
2022-11-13 14:9:15.8340,5.27,0.79,-0.55,5.35
2022-11-13 14:9:15.8350,5.26,0.1,-0.59,5.29
2022-11-13 14:9:15.8500,4.45,-1.41,-0.22,4.67
2022-11-13 14:9:15.8510,3.79,-1.38,-0.04,4.03
2022-11-13 14:9:15.8660,4.04,-1.1,-0.05,4.18
2022-11-13 14:9:15.8670,3.58,-1.27,0.56,3.83
2022-11-13 14:9:15.9020,2.78,-0.88,2.12,3.6
2022-11-13 14:9:15.9030,1.81,-0.49,2.87,3.42
2022-11-13 14:9:15.9180,1.06,0.17,2.24,2.48
2022-11-13 14:9:15.9180,0.68,0.25,0.67,0.98
2022-11-13 14:9:15.9340,-1.1,0.12,-0.74,1.33
2022-11-13 14:9:15.9350,-1.27,1.29,-1.8,2.55
2022-11-13 14:9:15.9500,-1.6,2.11,-2.05,3.34
2022-11-13 14:9:15.9500,-2.37,1.45,-1.85,3.33
2022-11-13 14:9:15.9660,-3.17,0.7,-0.85,3.35
2022-11-13 14:9:15.9670,-3.98,0.49,0.23,4.01
2022-11-13 14:9:16.0020,-4.86,-0.16,0.83,4.93
2022-11-13 14:9:16.0020,-5.45,-1.01,0.84,5.6
2022-11-13 14:9:16.0180,-4.71,-1.24,0.41,4.88
2022-11-13 14:9:16.0190,-3.24,-1.19,0.12,3.45
2022-11-13 14:9:16.0340,-1.51,-1.03,-0.21,1.83
2022-11-13 14:9:16.0350,0.02,-0.51,-0.62,0.8
2022-11-13 14:9:16.0500,1.72,-0.08,-0.92,1.95
2022-11-13 14:9:16.0510,2.88,0.04,-1.23,3.13
2022-11-13 14:9:16.0660,2.45,-0.36,-1.03,2.68
2022-11-13 14:9:16.0670,1.27,-1.05,-0.97,1.91
2022-11-13 14:9:16.1020,-0.06,-1.35,-1.06,1.71
2022-11-13 14:9:16.1030,-0.91,-1.48,-0.82,1.92
2022-11-13 14:9:16.1180,-0.81,-1.35,-0.3,1.6
2022-11-13 14:9:16.1190,0.15,-1.0,0.0,1.01
2022-11-13 14:9:16.1340,1.16,-0.87,0.1,1.45
2022-11-13 14:9:16.1340,1.57,-0.97,-0.05,1.84
2022-11-13 14:9:16.1500,0.96,-1.28,-0.22,1.61
2022-11-13 14:9:16.1510,-0.27,-1.67,-0.39,1.73
2022-11-13 14:9:16.1660,-0.71,-1.52,-0.18,1.68
2022-11-13 14:9:16.1670,-0.5,-1.0,0.7,1.31
2022-11-13 14:9:16.2020,-0.7,-0.35,1.3,1.51
2022-11-13 14:9:16.2030,-0.61,0.47,1.88,2.03
2022-11-13 14:9:16.2180,-0.53,1.13,2.22,2.54
2022-11-13 14:9:16.2190,-0.77,1.17,1.78,2.26
2022-11-13 14:9:16.2340,-1.09,0.68,0.97,1.6
2022-11-13 14:9:16.2350,-0.73,0.34,0.46,0.92
2022-11-13 14:9:16.2500,0.3,0.6,-0.09,0.67
2022-11-13 14:9:16.2510,0.91,0.97,-0.83,1.56
2022-11-13 14:9:16.2660,0.94,0.81,-1.29,1.78
2022-11-13 14:9:16.2670,0.95,0.72,-1.64,2.02
2022-11-13 14:9:16.3020,0.78,0.81,-1.95,2.25
2022-11-13 14:9:16.3020,0.16,0.66,-1.57,1.71
2022-11-13 14:9:16.3180,-0.42,0.39,-0.66,0.87
2022-11-13 14:9:16.3180,-0.69,0.07,0.91,1.14
2022-11-13 14:9:16.3340,-0.53,-0.36,2.85,2.92
2022-11-13 14:9:16.3350,0.12,-0.51,3.81,3.84
2022-11-13 14:9:16.3500,0.58,-0.34,3.43,3.49
2022-11-13 14:9:16.3510,0.79,0.13,1.96,2.11
2022-11-13 14:9:16.3660,1.03,0.32,0.22,1.1
2022-11-13 14:9:16.3670,0.92,0.13,-1.27,1.57
2022-11-13 14:9:16.4010,0.32,0.03,-3.16,3.17
2022-11-13 14:9:16.4020,-0.32,0.48,-4.28,4.31
2022-11-13 14:9:16.4180,-1.04,0.81,-3.74,3.96
2022-11-13 14:9:16.4180,-1.18,1.55,-2.34,3.04
2022-11-13 14:9:16.4340,-1.25,1.53,-0.88,2.16
2022-11-13 14:9:16.4350,-0.91,1.71,0.18,1.94
2022-11-13 14:9:16.4500,-0.36,1.75,0.39,1.82
2022-11-13 14:9:16.4510,0.31,2.09,0.53,2.17
2022-11-13 14:9:16.4660,0.93,2.66,0.42,2.84
2022-11-13 14:9:16.4670,1.61,3.47,-0.02,3.82
2022-11-13 14:9:16.5010,2.1,4.21,0.01,4.7
2022-11-13 14:9:16.5020,2.14,4.36,0.35,4.86
2022-11-13 14:9:16.5180,1.83,4.01,0.71,4.46
2022-11-13 14:9:16.5180,1.58,3.97,0.93,4.37
2022-11-13 14:9:16.5340,1.84,3.51,1.77,4.34
2022-11-13 14:9:16.5350,1.29,0.62,3.97,4.22
2022-11-13 14:9:16.5500,-0.43,-3.46,6.58,7.44
2022-11-13 14:9:16.5510,-1.46,-5.68,8.43,10.26
2022-11-13 14:9:16.5660,-1.96,-5.12,7.27,9.1
2022-11-13 14:9:16.5670,-2.75,-3.54,2.87,5.32
2022-11-13 14:9:16.6020,-3.14,-2.74,-3.18,5.24
2022-11-13 14:9:16.6020,-3.1,-2.49,-8.26,9.16
2022-11-13 14:9:16.6180,-2.39,-2.13,-10.51,10.98
2022-11-13 14:9:16.6180,-1.31,-1.81,-9.3,9.56
2022-11-13 14:9:16.6340,-1.15,-2.01,-6.42,6.82
2022-11-13 14:9:16.6350,-2.01,-2.38,-3.46,4.65
2022-11-13 14:9:16.6500,-2.43,-2.85,-1.52,4.04
2022-11-13 14:9:16.6500,-1.89,-1.71,0.2,2.55
2022-11-13 14:9:16.6670,-1.48,1.15,2.3,2.96
2022-11-13 14:9:16.6670,-0.93,2.37,3.87,4.63
2022-11-13 14:9:16.7020,-0.03,1.71,4.34,4.66
2022-11-13 14:9:16.7030,0.36,1.14,3.6,3.79
2022-11-13 14:9:16.7180,-0.57,-0.09,1.4,1.51
2022-11-13 14:9:16.7190,-0.74,-0.68,-1.23,1.58
2022-11-13 14:9:16.7340,-0.73,-0.87,-2.45,2.7
2022-11-13 14:9:16.7350,-1.73,-0.66,-2.68,3.25
2022-11-13 14:9:16.7500,-2.29,-0.07,-2.46,3.36
2022-11-13 14:9:16.7500,-2.51,-0.15,-0.79,2.63
2022-11-13 14:9:16.7660,-2.88,-0.61,1.68,3.38
2022-11-13 14:9:16.7670,-3.97,-1.07,3.6,5.46
2022-11-13 14:9:16.8010,-4.62,-0.55,4.56,6.51
2022-11-13 14:9:16.8020,-4.18,0.65,3.66,5.59
2022-11-13 14:9:16.8180,-2.7,0.9,1.33,3.14
2022-11-13 14:9:16.8180,-0.36,0.26,-0.72,0.84
2022-11-13 14:9:16.8340,1.86,0.02,-3.31,3.79
2022-11-13 14:9:16.8350,3.38,1.51,-4.07,5.5
2022-11-13 14:9:16.8500,3.97,2.63,-2.7,5.47
2022-11-13 14:9:16.8500,4.1,2.53,-1.11,4.94
2022-11-13 14:9:16.8660,4.04,2.68,-0.78,4.91
2022-11-13 14:9:16.8670,3.54,3.07,-0.44,4.7
2022-11-13 14:9:16.9040,2.94,3.18,0.44,4.35
2022-11-13 14:9:16.9050,2.48,3.05,1.07,4.07
2022-11-13 14:9:16.9180,2.09,2.79,1.55,3.81
2022-11-13 14:9:16.9190,1.66,1.83,2.19,3.3
2022-11-13 14:9:16.9340,1.14,0.02,2.09,2.38
2022-11-13 14:9:16.9350,0.61,-1.62,1.09,2.04
2022-11-13 14:9:16.9500,0.35,-2.69,-0.07,2.71
2022-11-13 14:9:16.9510,0.27,-3.28,-0.42,3.31
2022-11-13 14:9:16.9660,-0.01,-2.99,-0.22,2.99
2022-11-13 14:9:16.9670,-0.42,-1.63,-0.33,1.71
2022-11-13 14:9:17.0010,-0.69,-0.1,-0.49,0.85
2022-11-13 14:9:17.0020,-0.54,0.59,-0.49,0.93
2022-11-13 14:9:17.0180,-0.44,0.63,-0.51,0.92
2022-11-13 14:9:17.0180,-0.54,0.3,-0.54,0.82
2022-11-13 14:9:17.0340,-1.04,0.06,-0.22,1.06
2022-11-13 14:9:17.0350,-1.59,-0.12,0.22,1.6
2022-11-13 14:9:17.0490,-1.75,-0.27,0.25,1.78
2022-11-13 14:9:17.0500,-1.36,-0.31,0.01,1.39
2022-11-13 14:9:17.0660,-0.86,-0.33,-0.39,1.0
2022-11-13 14:9:17.0670,-0.66,-0.24,-0.81,1.07
2022-11-13 14:9:17.1030,-0.52,-0.17,-1.03,1.16
2022-11-13 14:9:17.1040,-0.11,0.1,-1.46,1.46
2022-11-13 14:9:17.1180,0.22,0.93,-2.84,2.99
2022-11-13 14:9:17.1190,-0.07,1.72,-3.04,3.49
2022-11-13 14:9:17.1340,-0.97,2.06,-1.94,2.99
2022-11-13 14:9:17.1350,-2.04,1.59,-0.52,2.63
2022-11-13 14:9:17.1500,-0.84,0.74,-0.06,1.12
2022-11-13 14:9:17.1510,0.54,-0.42,1.28,1.45
2022-11-13 14:9:17.1660,0.31,-1.71,2.94,3.41
2022-11-13 14:9:17.1670,-0.35,-2.29,3.16,3.91
2022-11-13 14:9:17.2030,-0.98,-2.54,2.01,3.38
2022-11-13 14:9:17.2040,-1.41,-2.6,0.69,3.03
2022-11-13 14:9:17.2180,-1.49,-2.33,-0.22,2.77
2022-11-13 14:9:17.2180,-1.35,-1.96,-0.62,2.45
2022-11-13 14:9:17.2340,-1.06,-1.57,-0.69,2.01
2022-11-13 14:9:17.2350,-0.74,-1.21,-0.64,1.55
2022-11-13 14:9:17.2500,-0.37,-0.88,-0.47,1.06
2022-11-13 14:9:17.2510,-0.05,-0.62,-0.31,0.69
2022-11-13 14:9:17.2670,0.24,-0.48,-0.01,0.53
2022-11-13 14:9:17.2680,0.49,-0.51,0.23,0.74
2022-11-13 14:9:17.3020,0.6,-0.56,0.16,0.83
2022-11-13 14:9:17.3030,0.47,-0.59,-0.17,0.77
2022-11-13 14:9:17.3180,0.34,-0.52,-0.52,0.81
2022-11-13 14:9:17.3180,0.36,-0.42,-0.78,0.95
2022-11-13 14:9:17.3340,0.38,-0.32,-0.82,0.95
2022-11-13 14:9:17.3340,0.27,-0.3,-0.8,0.89
2022-11-13 14:9:17.3500,0.06,-0.36,-0.73,0.81
2022-11-13 14:9:17.3510,-0.15,-0.36,-0.58,0.69
2022-11-13 14:9:17.3660,-0.41,-0.35,-0.44,0.69
2022-11-13 14:9:17.3670,-0.65,-0.24,-0.39,0.79
2022-11-13 14:9:17.4020,-0.63,-0.14,-0.21,0.67
2022-11-13 14:9:17.4030,-0.69,-0.07,-0.01,0.69
2022-11-13 14:9:17.4180,-1.35,0.23,-0.24,1.39
2022-11-13 14:9:17.4180,-1.99,0.61,-0.61,2.16
2022-11-13 14:9:17.4340,-1.75,0.49,-0.46,1.87
2022-11-13 14:9:17.4350,-1.44,0.39,-0.25,1.51
2022-11-13 14:9:17.4500,-1.04,0.25,0.24,1.09
2022-11-13 14:9:17.4500,-0.64,0.07,0.99,1.18
2022-11-13 14:9:17.4660,-0.22,-0.07,1.69,1.7
2022-11-13 14:9:17.4670,0.0,0.07,1.92,1.92
2022-11-13 14:9:17.5010,0.11,0.27,1.85,1.87
2022-11-13 14:9:17.5020,0.05,0.53,1.46,1.55
2022-11-13 14:9:17.5180,-0.24,0.89,0.74,1.18
2022-11-13 14:9:17.5180,-0.65,1.18,-0.29,1.37
2022-11-13 14:9:17.5340,-0.76,0.97,-0.88,1.51
2022-11-13 14:9:17.5350,-0.72,0.54,-0.83,1.22
2022-11-13 14:9:17.5500,-0.73,0.03,-0.67,0.99
2022-11-13 14:9:17.5510,-0.73,-0.47,-0.47,0.98
2022-11-13 14:9:17.5660,-0.73,-0.76,-0.26,1.08
2022-11-13 14:9:17.5670,-0.66,-0.77,-0.05,1.01
2022-11-13 14:9:17.6020,-0.52,-0.5,0.12,0.73
2022-11-13 14:9:17.6030,-0.4,-0.13,0.25,0.48
2022-11-13 14:9:17.6170,-0.29,0.18,0.4,0.52
2022-11-13 14:9:17.6180,-0.16,0.35,0.55,0.67
2022-11-13 14:9:17.6340,-0.03,0.36,0.7,0.78
2022-11-13 14:9:17.6340,0.09,0.26,0.8,0.84
2022-11-13 14:9:17.6500,0.18,0.08,0.82,0.84
2022-11-13 14:9:17.6500,0.28,-0.11,0.7,0.76
2022-11-13 14:9:17.6670,0.44,-0.2,0.48,0.68
2022-11-13 14:9:17.6680,0.54,-0.19,0.17,0.59
2022-11-13 14:9:17.7030,0.65,-0.13,-0.15,0.67
2022-11-13 14:9:17.7030,0.75,-0.1,-0.38,0.84
2022-11-13 14:9:17.7180,0.81,-0.07,-0.44,0.92
2022-11-13 14:9:17.7180,0.84,-0.02,-0.4,0.93
2022-11-13 14:9:17.7340,0.79,0.02,-0.3,0.84
2022-11-13 14:9:17.7340,0.56,0.02,-0.17,0.58
2022-11-13 14:9:17.7500,0.39,0.0,-0.05,0.39
2022-11-13 14:9:17.7500,0.3,-0.02,0.04,0.3
2022-11-13 14:9:17.7660,0.26,-0.03,0.06,0.26
2022-11-13 14:9:17.7670,0.3,-0.05,0.03,0.3
2022-11-13 14:9:17.8010,0.39,-0.11,-0.02,0.4
2022-11-13 14:9:17.8020,0.58,-0.2,-0.1,0.62
2022-11-13 14:9:17.8180,0.74,-0.32,-0.18,0.82
2022-11-13 14:9:17.8180,0.58,-0.51,-0.26,0.81
2022-11-13 14:9:17.8340,0.06,-0.66,-0.36,0.75
2022-11-13 14:9:17.8350,-0.43,-0.63,-0.5,0.91
2022-11-13 14:9:17.8500,-0.7,-0.51,-0.54,1.02
2022-11-13 14:9:17.8500,-0.82,-0.41,-0.52,1.05
2022-11-13 14:9:17.8660,-0.82,-0.35,-0.43,0.98
2022-11-13 14:9:17.8670,-0.76,-0.27,-0.33,0.87
2022-11-13 14:9:17.9020,-0.67,-0.19,-0.23,0.73
2022-11-13 14:9:17.9030,-0.55,-0.13,-0.16,0.58
2022-11-13 14:9:17.9180,-0.37,-0.07,-0.13,0.39
2022-11-13 14:9:17.9180,-0.22,-0.04,-0.1,0.24
2022-11-13 14:9:17.9340,-0.09,-0.03,-0.04,0.1
2022-11-13 14:9:17.9340,0.05,-0.03,0.04,0.07
2022-11-13 14:9:17.9500,0.18,-0.04,0.11,0.21
2022-11-13 14:9:17.9510,0.26,-0.01,0.16,0.3
2022-11-13 14:9:17.9660,0.28,0.05,0.16,0.32
2022-11-13 14:9:17.9670,0.25,0.12,0.12,0.3
2022-11-13 14:9:18.0020,0.2,0.15,0.1,0.26
2022-11-13 14:9:18.0030,0.15,0.12,0.11,0.22
2022-11-13 14:9:18.0180,0.1,0.06,0.15,0.19
2022-11-13 14:9:18.0180,0.04,0.02,0.19,0.19
2022-11-13 14:9:18.0340,-0.01,0.02,0.18,0.18
2022-11-13 14:9:18.0350,-0.11,0.0,0.13,0.17
2022-11-13 14:9:18.0490,-0.14,-0.05,0.08,0.16
2022-11-13 14:9:18.0500,-0.13,-0.1,0.0,0.16
2022-11-13 14:9:18.0660,-0.12,-0.1,-0.1,0.18
2022-11-13 14:9:18.0670,-0.13,-0.08,-0.21,0.25
2022-11-13 14:9:18.1010,-0.15,-0.08,-0.28,0.32
2022-11-13 14:9:18.1020,-0.17,-0.05,-0.31,0.35
2022-11-13 14:9:18.1170,-0.19,-0.03,-0.28,0.33
2022-11-13 14:9:18.1180,-0.23,-0.04,-0.21,0.31
2022-11-13 14:9:18.1340,-0.26,-0.05,-0.14,0.29
2022-11-13 14:9:18.1340,-0.28,-0.04,-0.06,0.28
2022-11-13 14:9:18.1500,-0.31,-0.05,-0.01,0.31
2022-11-13 14:9:18.1510,-0.32,-0.07,0.02,0.32
2022-11-13 14:9:18.1660,-0.3,-0.07,0.05,0.31
2022-11-13 14:9:18.1670,-0.27,-0.03,0.1,0.28
2022-11-13 14:9:18.2020,-0.26,-0.01,0.13,0.29
2022-11-13 14:9:18.2020,-0.22,-0.03,0.14,0.26
2022-11-13 14:9:18.2180,-0.16,-0.05,0.13,0.21
2022-11-13 14:9:18.2180,-0.1,-0.07,0.1,0.15
2022-11-13 14:9:18.2340,-0.04,-0.05,0.06,0.08
2022-11-13 14:9:18.2340,0.0,-0.01,0.06,0.06
2022-11-13 14:9:18.2500,0.03,-0.02,0.04,0.05
2022-11-13 14:9:18.2500,0.04,-0.05,0.0,0.06
2022-11-13 14:9:18.2660,0.03,-0.1,-0.09,0.13
2022-11-13 14:9:18.2670,0.0,-0.17,-0.15,0.22
2022-11-13 14:9:18.3030,-0.07,-0.19,-0.18,0.27
2022-11-13 14:9:18.3040,-0.19,-0.15,-0.18,0.3
2022-11-13 14:9:18.3180,-0.31,-0.1,-0.18,0.37
2022-11-13 14:9:18.3180,-0.4,-0.08,-0.18,0.44
2022-11-13 14:9:18.3340,-0.44,-0.09,-0.17,0.48
2022-11-13 14:9:18.3340,-0.45,-0.13,-0.19,0.5
2022-11-13 14:9:18.3490,-0.43,-0.16,-0.2,0.5
2022-11-13 14:9:18.3500,-0.37,-0.14,-0.18,0.43
2022-11-13 14:9:18.3660,-0.37,-0.08,-0.12,0.39
2022-11-13 14:9:18.3670,-0.36,-0.02,-0.06,0.36
2022-11-13 14:9:18.4030,-0.33,0.0,-0.03,0.33
2022-11-13 14:9:18.4040,-0.26,-0.01,-0.01,0.26
2022-11-13 14:9:18.4180,-0.19,-0.03,0.02,0.19
2022-11-13 14:9:18.4190,-0.11,-0.02,0.04,0.11
2022-11-13 14:9:18.4340,-0.05,-0.02,0.06,0.08
2022-11-13 14:9:18.4350,-0.01,-0.05,0.04,0.06
2022-11-13 14:9:18.4500,0.0,-0.07,0.02,0.07
2022-11-13 14:9:18.4510,0.0,-0.09,-0.01,0.09
2022-11-13 14:9:18.4670,-0.02,-0.11,0.0,0.11
2022-11-13 14:9:18.4670,-0.07,-0.1,0.01,0.12
2022-11-13 14:9:18.5030,-0.13,-0.1,0.02,0.16
2022-11-13 14:9:18.5030,-0.16,-0.1,0.02,0.18
2022-11-13 14:9:18.5180,-0.2,-0.09,-0.01,0.21
2022-11-13 14:9:18.5190,-0.24,-0.08,-0.05,0.25
2022-11-13 14:9:18.5340,-0.28,-0.07,-0.11,0.3
2022-11-13 14:9:18.5350,-0.31,-0.05,-0.18,0.36
2022-11-13 14:9:18.5490,-0.34,-0.05,-0.12,0.36
2022-11-13 14:9:18.5500,-0.33,-0.05,0.06,0.33
2022-11-13 14:9:18.5660,-0.26,-0.04,0.16,0.3
2022-11-13 14:9:18.5670,-0.23,-0.05,0.14,0.27
2022-11-13 14:9:18.6020,-0.23,-0.04,0.07,0.24
2022-11-13 14:9:18.6030,-0.23,-0.03,0.01,0.23
2022-11-13 14:9:18.6180,-0.24,-0.02,-0.08,0.25
2022-11-13 14:9:18.6180,-0.24,-0.03,-0.16,0.28
2022-11-13 14:9:18.6340,-0.19,-0.06,-0.15,0.24
2022-11-13 14:9:18.6340,-0.11,-0.12,-0.11,0.19
2022-11-13 14:9:18.6490,-0.05,-0.18,-0.04,0.19
2022-11-13 14:9:18.6500,0.06,-0.18,-0.01,0.19
2022-11-13 14:9:18.6660,0.15,-0.12,-0.03,0.19
2022-11-13 14:9:18.6670,0.21,-0.03,-0.1,0.23
2022-11-13 14:9:18.7020,0.25,0.02,-0.16,0.29
2022-11-13 14:9:18.7030,0.23,0.01,-0.21,0.31
2022-11-13 14:9:18.7180,0.22,-0.01,-0.23,0.31
2022-11-13 14:9:18.7180,0.16,-0.04,-0.19,0.25
2022-11-13 14:9:18.7340,0.08,-0.07,-0.14,0.17
2022-11-13 14:9:18.7350,0.0,-0.09,-0.11,0.14
2022-11-13 14:9:18.7490,-0.06,-0.11,-0.08,0.14
2022-11-13 14:9:18.7500,-0.13,-0.12,-0.05,0.18
2022-11-13 14:9:18.7660,-0.21,-0.11,-0.03,0.23
2022-11-13 14:9:18.7670,-0.3,-0.11,0.0,0.31
2022-11-13 14:9:18.8010,-0.37,-0.1,0.03,0.38
2022-11-13 14:9:18.8020,-0.44,-0.1,0.05,0.45
2022-11-13 14:9:18.8180,-0.47,-0.1,0.08,0.48
2022-11-13 14:9:18.8180,-0.47,-0.11,0.1,0.49
2022-11-13 14:9:18.8340,-0.42,-0.11,0.09,0.44
2022-11-13 14:9:18.8340,-0.33,-0.08,0.06,0.34
2022-11-13 14:9:18.8490,-0.22,-0.07,0.04,0.23
2022-11-13 14:9:18.8500,-0.11,-0.08,0.01,0.13
2022-11-13 14:9:18.8660,0.02,-0.08,-0.02,0.08
2022-11-13 14:9:18.8670,0.12,-0.08,-0.05,0.15
2022-11-13 14:9:18.9020,0.19,-0.05,-0.09,0.21
2022-11-13 14:9:18.9020,0.22,-0.02,-0.1,0.24
2022-11-13 14:9:18.9180,0.26,0.03,-0.09,0.27
2022-11-13 14:9:18.9180,0.28,0.06,-0.06,0.29
2022-11-13 14:9:18.9340,0.24,0.06,-0.03,0.24
2022-11-13 14:9:18.9340,0.15,0.04,0.0,0.15
2022-11-13 14:9:18.9490,0.07,0.03,0.0,0.07
2022-11-13 14:9:18.9500,0.01,0.01,0.02,0.02
2022-11-13 14:9:18.9660,-0.09,-0.03,0.04,0.1
2022-11-13 14:9:18.9670,-0.15,-0.07,0.07,0.17
2022-11-13 14:9:19.0020,-0.17,-0.08,0.08,0.2
2022-11-13 14:9:19.0030,-0.2,-0.07,0.08,0.22
2022-11-13 14:9:19.0180,-0.22,-0.06,0.06,0.23
2022-11-13 14:9:19.0180,-0.23,-0.06,0.02,0.23
2022-11-13 14:9:19.0340,-0.21,-0.08,-0.02,0.22
2022-11-13 14:9:19.0340,-0.16,-0.1,-0.04,0.19
2022-11-13 14:9:19.0490,-0.12,-0.13,-0.07,0.19
2022-11-13 14:9:19.0500,-0.07,-0.14,-0.11,0.19
2022-11-13 14:9:19.0660,-0.01,-0.14,-0.16,0.21
2022-11-13 14:9:19.0670,0.0,-0.1,-0.21,0.23
2022-11-13 14:9:19.1010,-0.01,-0.04,-0.24,0.24
2022-11-13 14:9:19.1020,-0.06,-0.01,-0.25,0.25
2022-11-13 14:9:19.1180,-0.08,-0.03,-0.21,0.22
2022-11-13 14:9:19.1180,-0.09,-0.05,-0.19,0.21
2022-11-13 14:9:19.1340,-0.12,-0.05,-0.14,0.19
2022-11-13 14:9:19.1340,-0.16,-0.04,-0.1,0.19
2022-11-13 14:9:19.1490,-0.19,-0.03,-0.07,0.2
2022-11-13 14:9:19.1500,-0.22,-0.03,-0.04,0.22
2022-11-13 14:9:19.1660,-0.22,-0.07,0.0,0.23
2022-11-13 14:9:19.1670,-0.21,-0.11,0.0,0.23
2022-11-13 14:9:19.2010,-0.18,-0.14,-0.01,0.22
2022-11-13 14:9:19.2020,-0.15,-0.15,-0.02,0.21
2022-11-13 14:9:19.2180,-0.12,-0.13,-0.05,0.18
2022-11-13 14:9:19.2180,-0.1,-0.11,-0.06,0.16
2022-11-13 14:9:19.2340,-0.1,-0.07,-0.06,0.13
2022-11-13 14:9:19.2340,-0.1,-0.07,-0.06,0.13
2022-11-13 14:9:19.2340,-0.09,-0.1,-0.08,0.15
2022-11-13 14:9:19.2490,-0.07,-0.11,-0.07,0.14
2022-11-13 14:9:19.2500,-0.06,-0.1,-0.07,0.13
2022-11-13 14:9:19.2660,-0.04,-0.09,-0.06,0.11
2022-11-13 14:9:19.3010,-0.06,-0.07,-0.05,0.1
2022-11-13 14:9:19.3010,-0.09,-0.03,-0.03,0.09
2022-11-13 14:9:19.3180,-0.12,0.0,-0.01,0.12
2022-11-13 14:9:19.3180,-0.14,0.0,0.01,0.14
2022-11-13 14:9:19.3340,-0.14,-0.02,0.04,0.14
2022-11-13 14:9:19.3340,-0.11,-0.03,0.08,0.13
2022-11-13 14:9:19.3490,-0.07,-0.05,0.11,0.13
2022-11-13 14:9:19.3500,-0.04,-0.04,0.12,0.13
2022-11-13 14:9:19.3660,-0.02,-0.03,0.1,0.1
2022-11-13 14:9:19.3670,-0.01,-0.04,0.05,0.06
2022-11-13 14:9:19.4010,-0.01,-0.05,0.0,0.05
2022-11-13 14:9:19.4020,-0.03,-0.07,-0.03,0.08
2022-11-13 14:9:19.4180,-0.05,-0.08,-0.03,0.09
2022-11-13 14:9:19.4180,-0.08,-0.08,-0.03,0.11
2022-11-13 14:9:19.4330,-0.12,-0.06,-0.03,0.13
2022-11-13 14:9:19.4340,-0.15,-0.05,-0.03,0.16
2022-11-13 14:9:19.4490,-0.2,-0.05,-0.02,0.2
2022-11-13 14:9:19.4500,-0.21,-0.07,-0.03,0.22
2022-11-13 14:9:19.4660,-0.21,-0.11,0.0,0.23
2022-11-13 14:9:19.4670,-0.2,-0.12,0.01,0.23
2022-11-13 14:9:19.5000,-0.15,-0.11,-0.02,0.18
2022-11-13 14:9:19.5010,-0.08,-0.12,-0.08,0.16
2022-11-13 14:9:19.5180,-0.02,-0.17,-0.14,0.22
2022-11-13 14:9:19.5190,0.07,-0.22,-0.2,0.3
2022-11-13 14:9:19.5340,0.17,-0.24,-0.25,0.38
2022-11-13 14:9:19.5340,0.25,-0.25,-0.32,0.47
2022-11-13 14:9:19.5500,0.32,-0.3,-0.39,0.58
2022-11-13 14:9:19.5510,0.37,-0.38,-0.47,0.7
2022-11-13 14:9:19.5660,0.41,-0.33,-0.53,0.74
2022-11-13 14:9:19.5670,0.4,-0.18,-0.49,0.65
2022-11-13 14:9:19.6010,0.31,0.01,-0.34,0.46
2022-11-13 14:9:19.6020,0.19,0.1,-0.15,0.26
2022-11-13 14:9:19.6180,0.11,0.11,0.0,0.15
2022-11-13 14:9:19.6190,0.06,0.11,0.01,0.12
2022-11-13 14:9:19.6340,0.02,0.12,-0.08,0.14
2022-11-13 14:9:19.6350,-0.1,0.09,-0.12,0.18
2022-11-13 14:9:19.6500,-0.2,0.08,-0.03,0.21
2022-11-13 14:9:19.6500,-0.3,0.09,0.13,0.33
2022-11-13 14:9:19.6660,-0.33,0.12,0.28,0.44
2022-11-13 14:9:19.6670,-0.32,0.1,0.35,0.48
2022-11-13 14:9:19.7010,-0.33,0.06,0.31,0.45
2022-11-13 14:9:19.7020,-0.34,0.0,0.23,0.41
2022-11-13 14:9:19.7180,-0.31,-0.02,0.14,0.34
2022-11-13 14:9:19.7190,-0.21,-0.03,0.08,0.22
2022-11-13 14:9:19.7340,-0.04,-0.01,0.03,0.05
2022-11-13 14:9:19.7350,0.17,0.04,-0.08,0.19
2022-11-13 14:9:19.7500,0.33,0.09,-0.2,0.39
2022-11-13 14:9:19.7500,0.42,0.13,-0.36,0.56
2022-11-13 14:9:19.7660,0.48,0.23,-0.5,0.73
2022-11-13 14:9:19.7670,0.52,0.34,-0.59,0.85
2022-11-13 14:9:19.8010,0.5,0.42,-0.52,0.83
2022-11-13 14:9:19.8020,0.47,0.42,-0.31,0.7
2022-11-13 14:9:19.8180,0.44,0.36,-0.06,0.57
2022-11-13 14:9:19.8180,0.43,0.28,0.12,0.52
2022-11-13 14:9:19.8340,0.39,0.25,0.12,0.47
2022-11-13 14:9:19.8340,0.26,0.21,-0.12,0.35
2022-11-13 14:9:19.8490,0.13,0.19,-0.5,0.55
2022-11-13 14:9:19.8500,0.1,0.13,-0.86,0.87
2022-11-13 14:9:19.8660,0.13,0.0,-1.1,1.1
2022-11-13 14:9:19.8670,0.16,-0.19,-1.14,1.16
2022-11-13 14:9:19.9010,0.25,-0.33,-1.07,1.14
2022-11-13 14:9:19.9010,0.36,-0.32,-1.0,1.1
2022-11-13 14:9:19.9180,0.45,-0.22,-0.96,1.08
2022-11-13 14:9:19.9180,0.47,-0.08,-0.93,1.04
2022-11-13 14:9:19.9340,0.44,0.04,-0.91,1.01
2022-11-13 14:9:19.9340,0.37,0.15,-0.89,0.97
2022-11-13 14:9:19.9490,0.3,0.27,-0.91,0.99
2022-11-13 14:9:19.9500,0.23,0.35,-0.97,1.05
2022-11-13 14:9:19.9660,0.2,0.34,-1.05,1.12
2022-11-13 14:9:19.9670,0.15,0.24,-1.08,1.11
2022-11-13 14:9:20.0010,0.1,0.1,-1.0,1.0
2022-11-13 14:9:20.0020,0.06,-0.09,-0.81,0.81
2022-11-13 14:9:20.0180,0.02,-0.23,-0.59,0.63
2022-11-13 14:9:20.0180,-0.03,-0.28,-0.44,0.52
2022-11-13 14:9:20.0340,-0.16,-0.19,-0.43,0.49
2022-11-13 14:9:20.0350,-0.32,-0.02,-0.38,0.49
2022-11-13 14:9:20.0490,-0.46,0.1,-0.26,0.53
2022-11-13 14:9:20.0500,-0.56,0.11,-0.08,0.57
2022-11-13 14:9:20.0660,-0.62,0.02,0.12,0.63
2022-11-13 14:9:20.0670,-0.67,-0.07,0.2,0.7
2022-11-13 14:9:20.1010,-0.74,-0.14,0.15,0.76
2022-11-13 14:9:20.1010,-0.81,-0.17,0.08,0.83
2022-11-13 14:9:20.1180,-0.86,-0.23,0.05,0.89
2022-11-13 14:9:20.1180,-0.88,-0.3,0.14,0.94
2022-11-13 14:9:20.1340,-0.93,-0.38,0.26,1.03
2022-11-13 14:9:20.1340,-0.97,-0.45,0.41,1.14
2022-11-13 14:9:20.1490,-1.02,-0.5,0.49,1.23
2022-11-13 14:9:20.1500,-1.08,-0.52,0.5,1.29
2022-11-13 14:9:20.1660,-1.08,-0.47,0.43,1.25
2022-11-13 14:9:20.1670,-0.96,-0.36,0.27,1.06
2022-11-13 14:9:20.2010,-0.8,-0.21,-0.01,0.82
2022-11-13 14:9:20.2020,-0.74,-0.02,-0.41,0.84
2022-11-13 14:9:20.2180,-0.75,0.11,-0.82,1.11
2022-11-13 14:9:20.2190,-0.82,0.1,-1.15,1.41
2022-11-13 14:9:20.2340,-0.88,-0.06,-1.23,1.51
2022-11-13 14:9:20.2350,-0.93,-0.28,-1.12,1.48
2022-11-13 14:9:20.2490,-1.0,-0.45,-0.93,1.43
2022-11-13 14:9:20.2500,-1.04,-0.49,-0.77,1.38
2022-11-13 14:9:20.2660,-1.09,-0.38,-0.77,1.38
2022-11-13 14:9:20.2670,-1.15,-0.28,-0.88,1.47
2022-11-13 14:9:20.3010,-1.12,-0.29,-1.06,1.56
2022-11-13 14:9:20.3020,-0.99,-0.42,-1.21,1.61
2022-11-13 14:9:20.3150,-0.82,-0.63,-1.3,1.66
2022-11-13 14:9:20.3150,-0.64,-0.85,-1.43,1.78
2022-11-13 14:9:20.3340,-0.51,-0.96,-1.49,1.84
2022-11-13 14:9:20.3340,-0.42,-0.9,-1.49,1.79
2022-11-13 14:9:20.3490,-0.37,-0.75,-1.49,1.7
2022-11-13 14:9:20.3500,-0.31,-0.56,-1.44,1.57
2022-11-13 14:9:20.3660,-0.2,-0.37,-1.37,1.43
2022-11-13 14:9:20.3670,-0.08,-0.25,-1.26,1.28
2022-11-13 14:9:20.4000,0.08,-0.16,-1.07,1.08
2022-11-13 14:9:20.4010,0.26,-0.06,-0.85,0.89
2022-11-13 14:9:20.4180,0.46,0.15,-0.72,0.86
2022-11-13 14:9:20.4180,0.58,0.5,-0.73,1.05
2022-11-13 14:9:20.4340,0.59,0.9,-0.85,1.37
2022-11-13 14:9:20.4340,0.49,1.18,-1.0,1.62
2022-11-13 14:9:20.4500,0.25,1.25,-1.13,1.7
2022-11-13 14:9:20.4500,-0.09,0.92,-1.32,1.61
2022-11-13 14:9:20.4660,-0.41,0.04,-1.65,1.7
2022-11-13 14:9:20.4670,-0.67,-1.21,-1.98,2.41
2022-11-13 14:9:20.5000,-0.77,-1.99,-2.11,3.0
2022-11-13 14:9:20.5010,-0.86,-2.23,-2.23,3.26
2022-11-13 14:9:20.5180,-1.11,-2.14,-2.27,3.31
2022-11-13 14:9:20.5180,-1.53,-1.84,-2.07,3.16
2022-11-13 14:9:20.5340,-1.99,-1.55,-1.73,3.05
2022-11-13 14:9:20.5340,-2.58,-1.5,-1.12,3.18
2022-11-13 14:9:20.5500,-3.13,-1.71,-0.35,3.58
2022-11-13 14:9:20.5500,-3.52,-2.06,-0.01,4.07
2022-11-13 14:9:20.5660,-3.81,-2.45,-0.27,4.53
2022-11-13 14:9:20.5670,-3.99,-2.85,-1.09,5.02
2022-11-13 14:9:20.6000,-4.03,-3.26,-2.36,5.69
2022-11-13 14:9:20.6010,-3.91,-3.64,-3.52,6.39
2022-11-13 14:9:20.6180,-3.59,-3.85,-3.86,6.52
2022-11-13 14:9:20.6180,-3.41,-3.89,-3.66,6.33
2022-11-13 14:9:20.6340,-3.45,-3.9,-3.3,6.16
2022-11-13 14:9:20.6340,-3.47,-3.89,-2.87,5.95
2022-11-13 14:9:20.6500,-3.42,-3.99,-2.51,5.82
2022-11-13 14:9:20.6500,-3.24,-4.29,-2.26,5.83
2022-11-13 14:9:20.6660,-3.0,-4.79,-2.06,6.01
2022-11-13 14:9:20.6670,-2.88,-5.17,-1.87,6.2
2022-11-13 14:9:20.7010,-2.88,-5.29,-1.86,6.3
2022-11-13 14:9:20.7010,-2.94,-5.11,-2.05,6.24
2022-11-13 14:9:20.7180,-2.75,-4.45,-2.49,5.79
2022-11-13 14:9:20.7180,-2.34,-3.42,-3.0,5.11
2022-11-13 14:9:20.7340,-1.94,-2.38,-3.3,4.5
2022-11-13 14:9:20.7340,-1.68,-1.48,-3.23,3.93
2022-11-13 14:9:20.7480,-1.49,-0.54,-2.71,3.13
2022-11-13 14:9:20.7490,-1.34,0.31,-1.78,2.24
2022-11-13 14:9:20.7650,-1.09,0.79,-0.84,1.58
2022-11-13 14:9:20.7660,-0.6,0.62,-0.09,0.86
2022-11-13 14:9:20.7990,0.01,-0.18,0.48,0.51
2022-11-13 14:9:20.8000,0.42,-0.99,1.11,1.54
2022-11-13 14:9:20.8180,0.74,-1.57,1.93,2.59
2022-11-13 14:9:20.8190,1.19,-2.21,3.02,3.92
2022-11-13 14:9:20.8340,1.65,-2.99,4.35,5.53
2022-11-13 14:9:20.8350,2.26,-3.56,5.11,6.62
2022-11-13 14:9:20.8490,2.75,-3.76,4.96,6.8
2022-11-13 14:9:20.8500,2.73,-3.48,3.32,5.53
2022-11-13 14:9:20.8660,3.08,-3.0,0.6,4.34
2022-11-13 14:9:20.8670,3.12,-2.74,-0.74,4.21
2022-11-13 14:9:20.9010,1.58,-2.42,0.22,2.89
2022-11-13 14:9:20.9010,-0.54,-2.31,3.14,3.93
2022-11-13 14:9:20.9170,-1.86,-2.19,4.1,5.0
2022-11-13 14:9:20.9180,-2.59,-1.71,3.37,4.58
2022-11-13 14:9:20.9340,-2.59,-1.14,2.62,3.85
2022-11-13 14:9:20.9350,-2.33,-0.51,2.35,3.34
2022-11-13 14:9:20.9490,-2.11,0.04,2.92,3.6
2022-11-13 14:9:20.9500,-1.94,0.68,3.99,4.48
2022-11-13 14:9:20.9660,-1.72,1.54,5.15,5.64
2022-11-13 14:9:20.9660,-1.44,2.53,5.92,6.59
2022-11-13 14:9:21.0000,-1.1,3.55,6.14,7.17
2022-11-13 14:9:21.0000,-0.73,4.39,5.99,7.46
2022-11-13 14:9:21.0180,-0.2,5.03,5.78,7.66
2022-11-13 14:9:21.0190,0.47,5.54,5.18,7.59
2022-11-13 14:9:21.0340,1.3,6.01,3.78,7.21
2022-11-13 14:9:21.0350,2.1,6.4,2.6,7.22
2022-11-13 14:9:21.0490,2.58,6.55,2.01,7.32
2022-11-13 14:9:21.0500,2.87,6.49,1.62,7.27
2022-11-13 14:9:21.0650,2.82,6.17,1.63,6.97
2022-11-13 14:9:21.0660,2.17,5.52,1.68,6.16
2022-11-13 14:9:21.1000,1.17,4.58,1.63,5.0
2022-11-13 14:9:21.1010,0.43,3.79,1.64,4.15
2022-11-13 14:9:21.1180,-0.14,2.99,1.74,3.46
2022-11-13 14:9:21.1190,-0.64,2.07,1.68,2.74
2022-11-13 14:9:21.1330,-1.01,0.87,0.98,1.65
2022-11-13 14:9:21.1340,-1.15,-0.85,-0.65,1.57
2022-11-13 14:9:21.1490,-0.86,-3.18,-3.1,4.52
2022-11-13 14:9:21.1500,-0.02,-5.76,-5.91,8.25
2022-11-13 14:9:21.1660,1.18,-7.58,-8.46,11.42
2022-11-13 14:9:21.1670,2.11,-7.84,-10.22,13.05
2022-11-13 14:9:21.1980,1.88,-6.0,-10.46,12.2
2022-11-13 14:9:21.1990,0.8,-3.96,-8.52,9.42
2022-11-13 14:9:21.2180,-0.13,-2.48,-5.6,6.12
2022-11-13 14:9:21.2190,-1.13,-0.98,-2.31,2.75
2022-11-13 14:9:21.2340,-2.23,0.88,0.36,2.42
2022-11-13 14:9:21.2350,-3.22,3.33,1.36,4.82
2022-11-13 14:9:21.2500,-3.23,5.54,3.26,7.19
2022-11-13 14:9:21.2500,-2.36,6.86,5.68,9.21
2022-11-13 14:9:21.2660,-1.07,6.75,6.39,9.35
2022-11-13 14:9:21.2670,0.74,4.57,4.82,6.68
2022-11-13 14:9:21.2990,2.74,1.01,2.46,3.81
2022-11-13 14:9:21.3000,4.45,-3.87,0.48,5.91
2022-11-13 14:9:21.3180,6.1,-8.53,-0.01,10.48
2022-11-13 14:9:21.3190,8.37,-8.61,2.34,12.23
2022-11-13 14:9:21.3340,10.76,-5.4,3.54,12.54
2022-11-13 14:9:21.3350,11.66,-2.29,4.32,12.64
2022-11-13 14:9:21.3500,9.83,-0.38,4.79,10.94
2022-11-13 14:9:21.3500,6.23,0.74,4.56,7.75
2022-11-13 14:9:21.3660,3.36,1.72,4.2,5.64
2022-11-13 14:9:21.3670,1.38,2.75,3.76,4.85
2022-11-13 14:9:21.3980,0.21,3.55,3.32,4.86
2022-11-13 14:9:21.3990,-0.36,3.94,3.07,5.0
2022-11-13 14:9:21.4180,-0.65,3.95,2.82,4.89
2022-11-13 14:9:21.4190,-0.8,3.45,2.7,4.45
2022-11-13 14:9:21.4340,-0.95,2.28,2.91,3.81
2022-11-13 14:9:21.4350,-1.19,0.62,3.01,3.29
2022-11-13 14:9:21.4500,-1.54,-0.9,2.62,3.16
2022-11-13 14:9:21.4500,-1.88,-2.11,1.74,3.31
2022-11-13 14:9:21.4660,-2.38,-3.11,0.64,3.96
2022-11-13 14:9:21.4670,-2.93,-3.41,0.22,4.5
2022-11-13 14:9:21.4990,-3.5,-2.93,0.43,4.58
2022-11-13 14:9:21.5000,-3.86,-2.21,1.06,4.57
2022-11-13 14:9:21.5160,-3.85,-1.5,1.61,4.43
2022-11-13 14:9:21.5170,-3.75,-0.76,1.55,4.12
2022-11-13 14:9:21.5330,-3.64,0.1,0.86,3.74
2022-11-13 14:9:21.5330,-3.55,1.12,-0.62,3.77
2022-11-13 14:9:21.5490,-3.17,2.02,-2.34,4.42
2022-11-13 14:9:21.5500,-2.46,2.28,-3.75,5.03
2022-11-13 14:9:21.5660,-2.01,1.7,-4.67,5.36
2022-11-13 14:9:21.5670,-1.78,0.62,-4.82,5.17
2022-11-13 14:9:21.5990,-1.59,-0.43,-4.45,4.74
2022-11-13 14:9:21.6000,-1.4,-1.33,-3.61,4.09
2022-11-13 14:9:21.6180,-1.16,-1.97,-2.53,3.4
2022-11-13 14:9:21.6190,-0.78,-2.1,-1.57,2.73
2022-11-13 14:9:21.6340,-0.34,-1.75,-1.04,2.06
2022-11-13 14:9:21.6340,0.18,-1.06,-1.21,1.61
2022-11-13 14:9:21.6500,0.64,-0.29,-2.0,2.11
2022-11-13 14:9:21.6500,0.86,0.25,-2.96,3.09
2022-11-13 14:9:21.6660,0.67,0.55,-3.36,3.47
2022-11-13 14:9:21.6670,-0.03,0.65,-3.01,3.07
2022-11-13 14:9:21.6990,-0.81,0.57,-2.28,2.48
2022-11-13 14:9:21.7000,-1.46,0.3,-1.52,2.12
2022-11-13 14:9:21.7180,-1.88,-0.32,-0.94,2.12
2022-11-13 14:9:21.7190,-1.9,-1.2,-0.91,2.42
2022-11-13 14:9:21.7330,-2.05,-1.94,-1.17,3.05
2022-11-13 14:9:21.7340,-2.48,-2.76,-1.41,3.96
2022-11-13 14:9:21.7490,-2.86,-3.51,-1.7,4.83
2022-11-13 14:9:21.7500,-3.2,-4.06,-2.05,5.56
2022-11-13 14:9:21.7660,-3.42,-4.39,-2.56,6.12
2022-11-13 14:9:21.7670,-3.26,-4.4,-3.32,6.4
2022-11-13 14:9:21.7990,-2.94,-4.19,-3.97,6.47
2022-11-13 14:9:21.8000,-2.85,-4.0,-4.11,6.4
2022-11-13 14:9:21.8180,-3.12,-4.09,-3.39,6.16
2022-11-13 14:9:21.8180,-3.25,-4.67,-2.28,6.12
2022-11-13 14:9:21.8340,-2.69,-5.22,-1.42,6.04
2022-11-13 14:9:21.8340,-1.57,-4.99,-1.29,5.38
2022-11-13 14:9:21.8500,-0.92,-4.64,-1.89,5.09
2022-11-13 14:9:21.8500,-0.67,-4.46,-2.85,5.33
2022-11-13 14:9:21.8660,-0.42,-4.11,-3.86,5.65
2022-11-13 14:9:21.8670,-0.2,-3.45,-4.3,5.51
2022-11-13 14:9:21.9000,-0.08,-2.79,-3.44,4.42
2022-11-13 14:9:21.9010,-0.02,-2.29,-1.77,2.89
2022-11-13 14:9:21.9180,0.02,-2.17,-0.15,2.17
2022-11-13 14:9:21.9190,-0.09,-2.35,1.43,2.75
2022-11-13 14:9:21.9340,-0.15,-2.68,2.86,3.92
2022-11-13 14:9:21.9340,0.12,-3.33,3.78,5.03
2022-11-13 14:9:21.9490,1.14,-4.26,4.41,6.23
2022-11-13 14:9:21.9500,2.87,-5.31,4.72,7.66
2022-11-13 14:9:21.9660,4.74,-6.26,4.49,9.04
2022-11-13 14:9:21.9670,6.38,-6.96,3.86,10.2
2022-11-13 14:9:22.0000,7.46,-6.65,2.19,10.23
2022-11-13 14:9:22.0010,7.05,-5.01,0.83,8.68
2022-11-13 14:9:22.0180,4.74,-2.88,0.48,5.56
2022-11-13 14:9:22.0190,1.51,-1.88,1.31,2.74
2022-11-13 14:9:22.0340,-1.49,-1.93,4.25,4.89
2022-11-13 14:9:22.0350,-3.03,-2.47,3.74,5.41
2022-11-13 14:9:22.0490,-3.63,-2.28,3.07,5.27
2022-11-13 14:9:22.0500,-3.35,-1.1,3.22,4.77
2022-11-13 14:9:22.0660,-2.85,0.44,4.21,5.1
2022-11-13 14:9:22.0670,-2.33,1.84,5.43,6.18
2022-11-13 14:9:22.1010,-1.71,3.17,6.43,7.37
2022-11-13 14:9:22.1020,-1.06,4.44,7.01,8.36
2022-11-13 14:9:22.1180,-0.48,5.51,7.05,8.96
2022-11-13 14:9:22.1190,0.03,6.24,6.87,9.28
2022-11-13 14:9:22.1330,0.54,6.87,6.43,9.42
2022-11-13 14:9:22.1340,0.96,7.52,5.78,9.53
2022-11-13 14:9:22.1500,1.22,8.14,5.35,9.81
2022-11-13 14:9:22.1500,1.39,8.79,4.68,10.05
2022-11-13 14:9:22.1660,1.49,9.51,3.7,10.31
2022-11-13 14:9:22.1670,1.62,10.13,3.0,10.68
2022-11-13 14:9:22.2000,1.64,10.43,2.67,10.89
2022-11-13 14:9:22.2010,1.58,10.23,2.51,10.65
2022-11-13 14:9:22.2180,1.28,9.27,2.12,9.59
2022-11-13 14:9:22.2180,0.63,7.56,1.63,7.75
2022-11-13 14:9:22.2340,0.13,5.53,1.11,5.64
2022-11-13 14:9:22.2340,-0.49,3.04,0.86,3.19
2022-11-13 14:9:22.2500,-0.97,-0.13,0.71,1.2
2022-11-13 14:9:22.2510,-1.21,-4.72,-0.09,4.87
2022-11-13 14:9:22.2660,-1.49,-11.0,-2.51,11.38
2022-11-13 14:9:22.2670,-1.77,-16.3,-5.14,17.18
2022-11-13 14:9:22.2970,-2.2,-16.93,-5.82,18.03
2022-11-13 14:9:22.2980,-1.44,-10.49,-5.43,11.89
2022-11-13 14:9:22.3180,0.06,-3.33,-4.74,5.79
2022-11-13 14:9:22.3190,0.91,0.47,-3.8,3.93
2022-11-13 14:9:22.3330,1.49,2.47,-3.04,4.19
2022-11-13 14:9:22.3340,1.67,3.5,-2.14,4.42
2022-11-13 14:9:22.3490,1.44,4.3,-0.76,4.59
2022-11-13 14:9:22.3500,1.54,5.07,1.28,5.45
2022-11-13 14:9:22.3660,2.56,5.76,2.42,6.75
2022-11-13 14:9:22.3670,4.67,5.5,0.54,7.23
2022-11-13 14:9:22.3980,6.46,2.74,-2.1,7.32
2022-11-13 14:9:22.3990,6.37,-2.7,-2.86,7.48
2022-11-13 14:9:22.4180,5.1,-8.43,-1.42,9.95
2022-11-13 14:9:22.4190,3.78,-9.73,3.39,10.97
2022-11-13 14:9:22.4340,4.18,-7.35,7.11,11.04
2022-11-13 14:9:22.4340,5.41,-4.35,8.14,10.69
2022-11-13 14:9:22.4490,6.56,-2.45,7.44,10.21
2022-11-13 14:9:22.4500,6.53,-1.16,6.08,8.99
2022-11-13 14:9:22.4660,4.9,-0.02,4.81,6.86
2022-11-13 14:9:22.4670,2.88,1.18,4.03,5.09
2022-11-13 14:9:22.4980,1.11,2.31,3.38,4.24
2022-11-13 14:9:22.4990,-0.35,3.24,2.77,4.27
2022-11-13 14:9:22.5180,-1.58,3.71,2.21,4.59
2022-11-13 14:9:22.5190,-2.28,3.7,2.0,4.78
2022-11-13 14:9:22.5330,-2.78,3.5,2.0,4.89
2022-11-13 14:9:22.5340,-3.11,3.14,1.97,4.83
2022-11-13 14:9:22.5500,-3.32,2.38,2.03,4.56
2022-11-13 14:9:22.5500,-3.53,1.29,1.78,4.15
2022-11-13 14:9:22.5660,-3.4,-0.18,1.25,3.62
2022-11-13 14:9:22.5670,-3.05,-1.78,0.67,3.59
2022-11-13 14:9:22.5980,-2.9,-3.09,0.09,4.23
2022-11-13 14:9:22.5990,-2.79,-3.66,-0.23,4.6
2022-11-13 14:9:22.6180,-2.94,-3.32,0.09,4.43
2022-11-13 14:9:22.6190,-2.97,-2.32,1.03,3.9
2022-11-13 14:9:22.6340,-2.68,-1.37,2.16,3.7
2022-11-13 14:9:22.6340,-2.5,-0.48,2.99,3.92
2022-11-13 14:9:22.6500,-2.42,0.48,3.06,3.93
2022-11-13 14:9:22.6500,-2.22,1.23,2.54,3.59
2022-11-13 14:9:22.6660,-1.93,1.75,1.38,2.94
2022-11-13 14:9:22.6670,-1.49,2.11,-0.49,2.62
2022-11-13 14:9:22.6990,-0.88,2.14,-2.96,3.75
2022-11-13 14:9:22.6990,-0.21,1.59,-5.14,5.38
2022-11-13 14:9:22.7180,0.5,0.63,-5.99,6.04
2022-11-13 14:9:22.7180,1.21,-0.08,-5.59,5.72
2022-11-13 14:9:22.7330,1.75,-0.12,-4.57,4.89
2022-11-13 14:9:22.7340,2.1,0.21,-3.29,3.9
2022-11-13 14:9:22.7490,2.28,0.49,-2.12,3.15
2022-11-13 14:9:22.7500,2.34,0.49,-1.3,2.72
2022-11-13 14:9:22.7660,2.19,0.16,-1.2,2.5
2022-11-13 14:9:22.7670,1.21,-0.53,-1.58,2.05
2022-11-13 14:9:22.7990,-0.26,-1.13,-1.95,2.26
2022-11-13 14:9:22.8000,-1.52,-1.46,-2.37,3.17
2022-11-13 14:9:22.8170,-2.63,-1.79,-2.54,4.07
2022-11-13 14:9:22.8180,-3.55,-2.19,-2.12,4.67
2022-11-13 14:9:22.8340,-4.27,-2.59,-1.47,5.2
2022-11-13 14:9:22.8340,-4.86,-3.02,-0.87,5.78
2022-11-13 14:9:22.8490,-5.31,-3.36,-0.49,6.3
2022-11-13 14:9:22.8500,-5.53,-3.55,-0.7,6.6
2022-11-13 14:9:22.8660,-5.42,-3.71,-1.41,6.71
2022-11-13 14:9:22.8670,-5.0,-3.79,-2.03,6.59
2022-11-13 14:9:22.9000,-4.2,-3.7,-2.11,5.98
2022-11-13 14:9:22.9010,-3.29,-3.6,-1.86,5.21
2022-11-13 14:9:22.9180,-3.04,-3.92,-1.31,5.13
2022-11-13 14:9:22.9190,-2.87,-4.63,-0.86,5.51
2022-11-13 14:9:22.9340,-1.95,-5.25,-0.95,5.68
2022-11-13 14:9:22.9340,-0.82,-5.72,-1.43,5.95
2022-11-13 14:9:22.9500,-0.11,-6.04,-1.76,6.29
2022-11-13 14:9:22.9500,0.19,-6.28,-1.97,6.58
2022-11-13 14:9:22.9660,0.5,-6.34,-2.36,6.78
2022-11-13 14:9:22.9670,1.06,-6.0,-2.98,6.78
2022-11-13 14:9:22.9980,1.54,-5.22,-3.47,6.45
2022-11-13 14:9:22.9990,1.67,-3.95,-3.37,5.45
2022-11-13 14:9:23.0180,1.42,-2.42,-2.56,3.79
2022-11-13 14:9:23.0180,1.01,-1.05,-1.26,1.92
2022-11-13 14:9:23.0330,0.67,-0.18,0.16,0.71
2022-11-13 14:9:23.0340,0.3,0.14,1.52,1.55
2022-11-13 14:9:23.0490,0.17,0.24,2.68,2.69
2022-11-13 14:9:23.0500,0.36,0.22,3.76,3.78
2022-11-13 14:9:23.0660,0.83,-0.18,4.62,4.69
2022-11-13 14:9:23.0670,1.83,-0.85,4.86,5.26
2022-11-13 14:9:23.0990,2.88,-1.53,4.42,5.49
2022-11-13 14:9:23.0990,4.39,-2.66,3.52,6.22
2022-11-13 14:9:23.1180,5.66,-4.08,3.1,7.63
2022-11-13 14:9:23.1180,6.41,-5.14,4.11,9.18
2022-11-13 14:9:23.1330,7.28,-4.83,1.77,8.91
2022-11-13 14:9:23.1340,6.28,-3.17,-0.18,7.03
2022-11-13 14:9:23.1500,2.93,-1.7,3.25,4.69
2022-11-13 14:9:23.1500,0.03,-0.66,2.55,2.63
2022-11-13 14:9:23.1660,-1.73,0.39,1.87,2.57
2022-11-13 14:9:23.1670,-2.33,1.26,2.04,3.34
2022-11-13 14:9:23.2000,-2.52,2.31,2.38,4.16
2022-11-13 14:9:23.2010,-2.46,3.25,2.95,5.03
2022-11-13 14:9:23.2180,-2.32,3.94,4.07,6.12
2022-11-13 14:9:23.2190,-2.04,4.23,5.77,7.43
2022-11-13 14:9:23.2340,-1.8,4.43,7.07,8.53
2022-11-13 14:9:23.2350,-1.75,4.57,7.6,9.03
2022-11-13 14:9:23.2490,-1.62,4.57,7.54,8.96
2022-11-13 14:9:23.2500,-1.22,4.6,6.61,8.14
2022-11-13 14:9:23.2660,-0.55,4.83,4.89,6.89
2022-11-13 14:9:23.2670,0.04,5.17,3.53,6.26
2022-11-13 14:9:23.2990,0.29,5.64,2.84,6.32
2022-11-13 14:9:23.3000,0.18,6.15,2.91,6.8
2022-11-13 14:9:23.3180,0.02,6.63,3.3,7.4
2022-11-13 14:9:23.3190,-0.06,7.01,3.51,7.83
2022-11-13 14:9:23.3330,-0.02,7.07,3.25,7.78
2022-11-13 14:9:23.3340,-0.06,6.75,2.64,7.24
2022-11-13 14:9:23.3490,-0.26,5.97,2.05,6.31
2022-11-13 14:9:23.3500,-0.62,4.37,1.38,4.62
2022-11-13 14:9:23.3660,-0.85,1.74,0.27,1.95
2022-11-13 14:9:23.3670,-0.41,-2.3,-1.58,2.82
2022-11-13 14:9:23.4000,0.68,-8.91,-5.89,10.7
2022-11-13 14:9:23.4000,1.35,-15.2,-12.32,19.61
2022-11-13 14:9:23.4170,0.87,-16.44,-14.43,21.89
2022-11-13 14:9:23.4180,0.35,-13.84,-12.41,18.59
2022-11-13 14:9:23.4340,0.61,-9.16,-8.76,12.68
2022-11-13 14:9:23.4340,0.64,-4.51,-5.13,6.86
2022-11-13 14:9:23.4490,0.1,-1.56,-1.96,2.5
2022-11-13 14:9:23.4500,-0.49,0.27,2.16,2.23
2022-11-13 14:9:23.4660,-0.73,2.08,4.6,5.1
2022-11-13 14:9:23.4670,-1.18,4.18,4.87,6.52
2022-11-13 14:9:23.5000,-0.96,5.61,7.49,9.4
2022-11-13 14:9:23.5010,-0.01,6.28,9.03,10.99
2022-11-13 14:9:23.5180,1.26,5.71,7.38,9.41
2022-11-13 14:9:23.5190,2.81,3.42,4.6,6.38
2022-11-13 14:9:23.5330,4.26,-0.15,1.83,4.63
2022-11-13 14:9:23.5340,5.92,-4.12,-0.55,7.23
2022-11-13 14:9:23.5490,8.04,-6.88,0.18,10.58
2022-11-13 14:9:23.5500,9.71,-5.89,1.4,11.44
2022-11-13 14:9:23.5660,9.75,-3.56,2.68,10.72
2022-11-13 14:9:23.5670,8.05,-1.71,3.94,9.12
2022-11-13 14:9:23.6000,5.41,-0.17,4.5,7.03
2022-11-13 14:9:23.6010,2.93,1.15,4.48,5.47
2022-11-13 14:9:23.6170,0.94,2.26,4.01,4.69
2022-11-13 14:9:23.6180,-0.56,2.96,3.46,4.58
2022-11-13 14:9:23.6340,-1.42,3.24,3.62,5.06
2022-11-13 14:9:23.6340,-2.0,3.11,4.08,5.5
2022-11-13 14:9:23.6490,-2.51,2.67,4.23,5.59
2022-11-13 14:9:23.6500,-3.08,1.99,4.08,5.48
2022-11-13 14:9:23.6660,-3.57,1.07,3.72,5.26
2022-11-13 14:9:23.6670,-3.87,-0.09,3.36,5.12
2022-11-13 14:9:23.7010,-4.01,-1.35,3.08,5.23
2022-11-13 14:9:23.7010,-4.07,-2.54,2.26,5.3
2022-11-13 14:9:23.7180,-4.05,-3.42,0.84,5.36
2022-11-13 14:9:23.7180,-4.09,-3.7,-0.25,5.52
2022-11-13 14:9:23.7330,-4.25,-3.29,-0.44,5.39
2022-11-13 14:9:23.7340,-4.18,-2.44,-0.07,4.84
2022-11-13 14:9:23.7490,-3.86,-1.57,0.47,4.19
2022-11-13 14:9:23.7500,-3.26,-0.62,0.92,3.44
2022-11-13 14:9:23.7660,-2.42,0.46,0.76,2.57
2022-11-13 14:9:23.7670,-1.69,1.21,-0.51,2.14
2022-11-13 14:9:23.8000,-0.92,1.4,-2.45,2.96
2022-11-13 14:9:23.8010,-0.2,1.0,-4.14,4.26
2022-11-13 14:9:23.8170,0.61,0.26,-5.53,5.56
2022-11-13 14:9:23.8180,1.96,-0.91,-5.5,5.9
2022-11-13 14:9:23.8330,3.39,-2.2,-6.76,7.87
2022-11-13 14:9:23.8340,3.79,-2.61,-7.92,9.15
2022-11-13 14:9:23.8500,2.97,-2.72,-7.49,8.5
2022-11-13 14:9:23.8500,1.24,-2.73,-5.49,6.25
2022-11-13 14:9:23.8660,-0.75,-2.55,-2.96,3.97
2022-11-13 14:9:23.8670,-2.3,-2.06,-0.91,3.21
2022-11-13 14:9:23.9010,-3.28,-1.47,-0.18,3.59
2022-11-13 14:9:23.9020,-3.77,-1.04,-0.94,4.02
2022-11-13 14:9:23.9170,-4.05,-1.09,-2.38,4.82
2022-11-13 14:9:23.9180,-4.46,-1.78,-3.17,5.75
2022-11-13 14:9:23.9330,-5.06,-2.47,-2.73,6.25
2022-11-13 14:9:23.9340,-5.75,-2.79,-1.74,6.62
2022-11-13 14:9:23.9500,-6.3,-2.81,-0.81,6.94
2022-11-13 14:9:23.9500,-6.6,-2.59,-0.38,7.1
2022-11-13 14:9:23.9660,-6.38,-2.27,-0.37,6.78
2022-11-13 14:9:23.9670,-5.01,-1.75,-0.6,5.34
2022-11-13 14:9:24.0000,-3.51,-1.49,-0.61,3.86
2022-11-13 14:9:24.0010,-3.01,-2.01,-0.2,3.62
2022-11-13 14:9:24.0170,-2.69,-2.72,0.35,3.84
2022-11-13 14:9:24.0180,-2.42,-3.33,0.7,4.17
2022-11-13 14:9:24.0330,-2.06,-3.53,0.49,4.11
2022-11-13 14:9:24.0340,-1.59,-3.17,-0.18,3.55
2022-11-13 14:9:24.0490,-1.1,-2.56,-1.56,3.19
2022-11-13 14:9:24.0500,-0.67,-1.97,-3.47,4.04
2022-11-13 14:9:24.0660,-0.45,-1.59,-5.09,5.35
2022-11-13 14:9:24.0670,-0.47,-1.35,-4.02,4.26
2022-11-13 14:9:24.1010,-0.94,-0.88,-0.64,1.43
2022-11-13 14:9:24.1010,-1.68,-0.35,1.9,2.56
2022-11-13 14:9:24.1170,-2.28,-0.53,3.85,4.5
2022-11-13 14:9:24.1180,-2.58,-1.39,5.32,6.07
2022-11-13 14:9:24.1330,-2.73,-2.46,5.92,6.96
2022-11-13 14:9:24.1340,-2.91,-3.53,5.93,7.48
2022-11-13 14:9:24.1490,-2.95,-4.79,5.31,7.73
2022-11-13 14:9:24.1500,-2.56,-6.71,2.5,7.6
2022-11-13 14:9:24.1660,-1.95,-9.19,-0.13,9.39
2022-11-13 14:9:24.1670,-2.47,-10.9,1.96,11.34
2022-11-13 14:9:24.2040,-3.95,-11.29,5.15,13.02
2022-11-13 14:9:24.2040,-5.46,-10.18,7.07,13.54
2022-11-13 14:9:24.2170,-7.11,-8.09,7.33,13.02
2022-11-13 14:9:24.2180,-9.25,-6.24,6.84,13.08
2022-11-13 14:9:24.2330,-12.09,-5.1,6.74,14.75
2022-11-13 14:9:24.2340,-14.2,-4.48,8.33,17.06
2022-11-13 14:9:24.2490,-14.17,-3.8,8.97,17.19
2022-11-13 14:9:24.2500,-12.24,-2.64,7.39,14.53
2022-11-13 14:9:24.2660,-9.3,-2.19,5.69,11.12
2022-11-13 14:9:24.2670,-6.99,-2.78,5.19,9.13
2022-11-13 14:9:24.3010,-5.51,-3.71,7.04,9.67
2022-11-13 14:9:24.3020,-4.28,-4.33,10.24,11.91
2022-11-13 14:9:24.3170,-3.08,-4.3,12.75,13.8
2022-11-13 14:9:24.3180,-2.01,-3.83,13.89,14.54
2022-11-13 14:9:24.3330,-1.15,-3.27,13.76,14.18
2022-11-13 14:9:24.3340,-0.66,-2.73,12.86,13.16
2022-11-13 14:9:24.3490,-0.43,-2.17,11.66,11.86
2022-11-13 14:9:24.3500,-0.24,-1.42,10.54,10.63
2022-11-13 14:9:24.3660,0.06,-0.33,9.49,9.49
2022-11-13 14:9:24.3670,0.46,0.86,8.52,8.57
2022-11-13 14:9:24.4020,0.82,1.78,7.66,7.9
2022-11-13 14:9:24.4030,0.86,1.88,7.15,7.44
2022-11-13 14:9:24.4170,0.26,0.91,6.92,6.98
2022-11-13 14:9:24.4180,-0.31,-0.59,7.12,7.15
2022-11-13 14:9:24.4340,-0.37,-2.28,7.65,7.99
2022-11-13 14:9:24.4340,-0.06,-3.97,8.33,9.22
2022-11-13 14:9:24.4490,0.57,-5.2,8.77,10.21
2022-11-13 14:9:24.4500,1.44,-5.23,8.29,9.9
2022-11-13 14:9:24.4660,2.25,-3.89,6.8,8.15
2022-11-13 14:9:24.4670,2.52,-2.14,5.07,6.05
2022-11-13 14:9:24.5030,2.32,-0.86,3.92,4.63
2022-11-13 14:9:24.5040,2.09,0.03,3.38,3.97
2022-11-13 14:9:24.5170,2.01,0.55,3.32,3.91
2022-11-13 14:9:24.5180,1.93,0.87,3.72,4.28
2022-11-13 14:9:24.5330,1.78,1.1,4.06,4.56
2022-11-13 14:9:24.5340,1.75,1.09,4.27,4.74
2022-11-13 14:9:24.5490,1.77,0.86,4.08,4.52
2022-11-13 14:9:24.5500,1.79,0.32,3.4,3.85
2022-11-13 14:9:24.5660,1.7,-0.27,2.94,3.4
2022-11-13 14:9:24.5670,1.53,-0.6,2.26,2.79
2022-11-13 14:9:24.6010,1.64,-0.92,0.88,2.07
2022-11-13 14:9:24.6020,1.65,-1.14,-1.35,2.41
2022-11-13 14:9:24.6180,1.27,-1.02,-3.82,4.15
2022-11-13 14:9:24.6190,1.57,0.11,-4.06,4.35
2022-11-13 14:9:24.6330,2.24,2.33,-1.58,3.59
2022-11-13 14:9:24.6340,1.95,4.88,0.52,5.28
2022-11-13 14:9:24.6500,1.19,7.17,1.52,7.42
2022-11-13 14:9:24.6500,0.3,8.87,2.34,9.17
2022-11-13 14:9:24.6660,-0.59,9.73,3.22,10.26
2022-11-13 14:9:24.6670,-0.99,9.63,4.05,10.49
2022-11-13 14:9:24.7020,-0.73,8.63,4.57,9.79
2022-11-13 14:9:24.7030,-0.01,6.83,4.51,8.18
2022-11-13 14:9:24.7180,1.13,4.41,4.3,6.26
