time,ax,ay,az,atotal
2022-11-13 14:8:54.8900,0.19,0.3,0.89,0.95
2022-11-13 14:8:54.8910,0.18,0.42,0.87,0.98
2022-11-13 14:8:54.8930,0.16,0.4,0.93,1.02
2022-11-13 14:8:54.8950,0.52,0.06,-0.07,0.52
2022-11-13 14:8:54.9030,0.5,-0.29,-1.09,1.23
2022-11-13 14:8:54.9140,0.18,-0.14,-0.85,0.88
2022-11-13 14:8:54.9240,-0.05,0.15,0.0,0.15
2022-11-13 14:8:54.9340,-0.36,0.31,0.13,0.49
2022-11-13 14:8:54.9440,-0.39,0.2,-0.25,0.5
2022-11-13 14:8:54.9540,-0.08,0.14,-0.62,0.64
2022-11-13 14:8:54.9890,0.21,0.19,-0.71,0.76
2022-11-13 14:8:54.9900,0.27,0.22,-0.38,0.51
2022-11-13 14:8:54.9910,0.23,0.2,-0.05,0.3
2022-11-13 14:8:54.9940,0.18,0.0,0.02,0.18
2022-11-13 14:8:55.0040,0.41,-0.14,-0.02,0.43
2022-11-13 14:8:55.0140,0.51,-0.73,0.38,0.96
2022-11-13 14:8:55.0240,0.97,-1.67,0.92,2.13
2022-11-13 14:8:55.0340,1.37,-2.82,1.12,3.32
2022-11-13 14:8:55.0440,1.35,-3.62,0.64,3.91
2022-11-13 14:8:55.0540,1.32,-2.85,-0.75,3.22
2022-11-13 14:8:55.0890,1.51,-1.2,-2.26,2.97
2022-11-13 14:8:55.0910,1.11,0.61,-2.95,3.21
2022-11-13 14:8:55.0920,-0.41,3.39,-1.89,3.9
2022-11-13 14:8:55.0940,-2.54,5.98,1.22,6.61
2022-11-13 14:8:55.1040,-2.98,5.54,1.14,6.39
2022-11-13 14:8:55.1140,-1.8,2.17,-1.37,3.13
2022-11-13 14:8:55.1240,-0.55,-0.39,-1.49,1.63
2022-11-13 14:8:55.1340,0.36,-1.0,-0.9,1.39
2022-11-13 14:8:55.1440,0.51,-0.47,-0.83,1.08
2022-11-13 14:8:55.1540,0.1,0.16,-0.81,0.83
2022-11-13 14:8:55.1900,-0.04,0.19,-0.83,0.85
2022-11-13 14:8:55.1900,0.13,0.13,-1.27,1.28
2022-11-13 14:8:55.1930,-0.02,0.1,-1.04,1.04
2022-11-13 14:8:55.1950,-0.16,0.06,-0.59,0.61
2022-11-13 14:8:55.2040,-0.15,0.12,-0.4,0.44
2022-11-13 14:8:55.2150,-0.15,0.19,-0.2,0.31
2022-11-13 14:8:55.2250,0.19,0.11,-0.43,0.48
2022-11-13 14:8:55.2350,0.38,0.03,-0.86,0.94
2022-11-13 14:8:55.2450,0.47,0.07,-1.13,1.22
2022-11-13 14:8:55.2550,0.59,0.01,-0.79,0.98
2022-11-13 14:8:55.2890,0.96,-0.04,-0.39,1.03
2022-11-13 14:8:55.2900,1.82,-0.55,0.21,1.91
2022-11-13 14:8:55.2920,2.31,-1.18,0.48,2.63
2022-11-13 14:8:55.2950,2.19,-0.98,0.24,2.41
2022-11-13 14:8:55.3050,1.88,-0.16,-0.28,1.9
2022-11-13 14:8:55.3150,1.58,0.85,-1.38,2.26
2022-11-13 14:8:55.3250,1.16,1.57,-1.62,2.53
2022-11-13 14:8:55.3350,0.52,1.35,-1.24,1.9
2022-11-13 14:8:55.3450,0.73,0.39,-1.53,1.73
2022-11-13 14:8:55.3550,3.47,0.15,-1.57,3.81
2022-11-13 14:8:55.3900,5.02,-0.06,-2.18,5.47
2022-11-13 14:8:55.3910,1.67,-0.95,-4.25,4.66
2022-11-13 14:8:55.3930,1.19,-0.71,-2.97,3.27
2022-11-13 14:8:55.3960,1.53,-0.55,-1.96,2.54
2022-11-13 14:8:55.4050,1.77,-0.81,-1.03,2.2
2022-11-13 14:8:55.4150,2.17,-1.26,0.07,2.51
2022-11-13 14:8:55.4250,2.14,-1.32,0.96,2.69
2022-11-13 14:8:55.4350,2.09,-1.02,1.48,2.75
2022-11-13 14:8:55.4450,2.46,-1.33,0.93,2.94
2022-11-13 14:8:55.4550,2.64,-2.16,0.11,3.41
2022-11-13 14:8:55.4900,2.29,-2.4,-0.49,3.35
2022-11-13 14:8:55.4910,1.4,-2.17,-1.61,3.04
2022-11-13 14:8:55.4930,0.48,-2.26,-2.63,3.5
2022-11-13 14:8:55.4960,0.05,-2.35,-3.57,4.27
2022-11-13 14:8:55.5050,0.23,-1.99,-5.12,5.49
2022-11-13 14:8:55.5150,0.4,-1.6,-6.35,6.56
2022-11-13 14:8:55.5250,-0.46,-1.64,-6.58,6.79
2022-11-13 14:8:55.5350,-2.36,-3.11,-6.17,7.3
2022-11-13 14:8:55.5460,-4.08,-5.05,-4.49,7.89
2022-11-13 14:8:55.5560,-3.29,-5.52,-2.67,6.95
2022-11-13 14:8:55.5900,-1.39,-4.87,-2.11,5.48
2022-11-13 14:8:55.5910,-0.96,-4.78,-1.97,5.25
2022-11-13 14:8:55.5930,-1.16,-5.65,-0.82,5.82
2022-11-13 14:8:55.5960,-1.22,-6.04,0.13,6.16
2022-11-13 14:8:55.6060,-1.86,-5.51,0.54,5.84
2022-11-13 14:8:55.6160,-2.19,-5.2,-0.48,5.66
2022-11-13 14:8:55.6260,-1.57,-5.44,-0.69,5.7
2022-11-13 14:8:55.6360,-0.45,-5.02,0.48,5.06
2022-11-13 14:8:55.6460,1.08,-3.58,1.86,4.17
2022-11-13 14:8:55.6560,2.62,-2.75,2.7,4.66
2022-11-13 14:8:55.6910,4.55,-2.53,4.37,6.79
2022-11-13 14:8:55.6920,5.75,-2.45,6.11,8.74
2022-11-13 14:8:55.6940,5.11,-1.77,6.95,8.8
2022-11-13 14:8:55.6970,4.69,-0.36,6.91,8.35
2022-11-13 14:8:55.7060,5.15,0.76,6.32,8.18
2022-11-13 14:8:55.7160,5.21,1.25,5.3,7.53
2022-11-13 14:8:55.7260,4.56,2.35,4.89,7.08
2022-11-13 14:8:55.7360,4.67,3.5,4.29,7.24
2022-11-13 14:8:55.7460,5.43,3.59,3.74,7.5
2022-11-13 14:8:55.7560,6.35,3.66,3.87,8.28
2022-11-13 14:8:55.7910,7.22,4.06,4.32,9.34
2022-11-13 14:8:55.7920,8.02,4.39,4.23,10.07
2022-11-13 14:8:55.7940,7.27,4.22,2.81,8.86
2022-11-13 14:8:55.7970,6.14,4.59,1.37,7.78
2022-11-13 14:8:55.8060,5.31,5.07,0.8,7.38
2022-11-13 14:8:55.8160,4.59,5.14,0.11,6.89
2022-11-13 14:8:55.8270,4.23,4.86,-1.15,6.54
2022-11-13 14:8:55.8360,3.77,4.57,-1.69,6.16
2022-11-13 14:8:55.8460,3.15,4.19,-1.98,5.6
2022-11-13 14:8:55.8560,2.16,3.46,-2.28,4.67
2022-11-13 14:8:55.8910,1.52,2.74,-2.05,3.74
2022-11-13 14:8:55.8920,1.02,2.4,-2.3,3.47
2022-11-13 14:8:55.8950,0.6,2.48,-2.74,3.74
2022-11-13 14:8:55.8970,0.42,2.38,-2.79,3.69
2022-11-13 14:8:55.9070,-0.11,1.75,-2.68,3.2
2022-11-13 14:8:55.9160,-0.66,1.57,-2.72,3.2
2022-11-13 14:8:55.9270,-0.78,1.98,-3.21,3.85
2022-11-13 14:8:55.9370,-1.08,2.05,-3.73,4.39
2022-11-13 14:8:55.9470,-1.73,1.14,-3.78,4.31
2022-11-13 14:8:55.9570,-1.96,0.1,-3.44,3.96
2022-11-13 14:8:55.9910,-1.73,-0.51,-3.79,4.19
2022-11-13 14:8:55.9920,-1.44,-1.49,-4.16,4.64
2022-11-13 14:8:55.9930,-1.34,-1.82,-3.48,4.14
2022-11-13 14:8:55.9970,-1.42,-1.69,-2.69,3.47
2022-11-13 14:8:56.0070,-1.1,-0.99,-2.69,3.07
2022-11-13 14:8:56.0170,-0.51,-0.24,-2.6,2.66
2022-11-13 14:8:56.0270,-0.29,0.24,-1.87,1.9
2022-11-13 14:8:56.0370,0.3,0.21,-0.73,0.81
2022-11-13 14:8:56.0470,1.08,-0.16,0.51,1.2
2022-11-13 14:8:56.0570,1.2,-0.38,0.83,1.5
2022-11-13 14:8:56.0920,0.71,0.01,0.83,1.09
2022-11-13 14:8:56.0930,0.67,0.41,0.5,0.93
2022-11-13 14:8:56.0950,0.99,1.7,0.01,1.96
2022-11-13 14:8:56.0970,1.33,2.68,-0.28,3.0
2022-11-13 14:8:56.1070,2.11,2.06,-0.42,2.97
2022-11-13 14:8:56.1170,2.18,1.19,-0.27,2.49
2022-11-13 14:8:56.1270,1.54,0.99,0.32,1.85
2022-11-13 14:8:56.1370,1.35,1.01,0.59,1.78
2022-11-13 14:8:56.1470,1.19,1.21,0.26,1.71
2022-11-13 14:8:56.1570,0.74,1.4,0.36,1.62
2022-11-13 14:8:56.1920,0.19,1.45,0.52,1.55
2022-11-13 14:8:56.1930,-0.2,1.82,0.45,1.88
2022-11-13 14:8:56.1960,-1.13,1.9,0.42,2.25
2022-11-13 14:8:56.1980,-1.87,1.43,0.41,2.38
2022-11-13 14:8:56.2070,-2.02,0.9,0.07,2.21
2022-11-13 14:8:56.2170,-2.07,0.88,-0.14,2.25
2022-11-13 14:8:56.2280,-1.86,0.58,0.0,1.94
2022-11-13 14:8:56.2370,-1.41,0.36,-0.2,1.46
2022-11-13 14:8:56.2480,-1.33,1.41,-0.57,2.02
2022-11-13 14:8:56.2580,-1.61,1.01,-0.84,2.07
2022-11-13 14:8:56.2930,-1.73,-0.15,-0.23,1.75
2022-11-13 14:8:56.2930,-2.21,0.36,0.4,2.27
2022-11-13 14:8:56.2960,-2.2,0.08,0.02,2.2
2022-11-13 14:8:56.2980,-1.65,0.1,-0.18,1.66
2022-11-13 14:8:56.3080,-0.93,0.68,-0.76,1.38
2022-11-13 14:8:56.3180,0.14,0.34,-0.95,1.01
2022-11-13 14:8:56.3280,0.75,-0.32,-0.35,0.88
2022-11-13 14:8:56.3380,0.65,-0.42,-0.23,0.8
2022-11-13 14:8:56.3480,0.26,-0.07,-0.41,0.49
2022-11-13 14:8:56.3580,0.43,-1.19,0.91,1.55
2022-11-13 14:8:56.3930,0.08,-1.91,1.9,2.69
2022-11-13 14:8:56.3940,-0.77,-2.69,1.72,3.28
2022-11-13 14:8:56.3960,-0.51,-2.98,0.67,3.09
2022-11-13 14:8:56.3980,1.07,-3.61,0.01,3.76
2022-11-13 14:8:56.4080,2.37,-4.43,-0.01,5.02
2022-11-13 14:8:56.4180,2.44,-5.01,-0.11,5.57
2022-11-13 14:8:56.4280,2.27,-4.93,-0.5,5.45
2022-11-13 14:8:56.4380,2.27,-4.62,-0.44,5.16
2022-11-13 14:8:56.4480,2.04,-4.65,-0.16,5.08
2022-11-13 14:8:56.4580,1.76,-4.37,-0.19,4.71
2022-11-13 14:8:56.4940,0.88,-3.47,-0.28,3.59
2022-11-13 14:8:56.4940,0.54,-2.71,-0.39,2.79
2022-11-13 14:8:56.4970,0.73,-2.4,-0.23,2.51
2022-11-13 14:8:56.4990,0.87,-2.23,0.09,2.39
2022-11-13 14:8:56.5080,1.11,-2.11,0.25,2.39
2022-11-13 14:8:56.5180,0.96,-1.79,0.72,2.15
2022-11-13 14:8:56.5280,0.69,-1.3,0.73,1.64
2022-11-13 14:8:56.5380,0.58,-0.62,0.57,1.02
2022-11-13 14:8:56.5480,0.32,0.01,0.83,0.88
2022-11-13 14:8:56.5590,0.24,0.82,1.51,1.73
2022-11-13 14:8:56.5930,0.22,2.05,2.96,3.6
2022-11-13 14:8:56.5940,-0.21,2.4,2.26,3.3
2022-11-13 14:8:56.5960,-0.36,2.34,0.43,2.4
2022-11-13 14:8:56.5990,-0.33,3.52,-0.65,3.59
2022-11-13 14:8:56.6090,-0.12,5.86,-1.26,5.99
2022-11-13 14:8:56.6190,-0.42,6.19,-1.38,6.35
2022-11-13 14:8:56.6290,-0.87,5.23,-1.21,5.43
2022-11-13 14:8:56.6390,-0.92,4.4,-1.26,4.66
2022-11-13 14:8:56.6490,-1.07,3.49,-1.22,3.84
2022-11-13 14:8:56.6590,-1.76,2.11,-0.84,2.87
2022-11-13 14:8:56.6940,-1.79,0.48,-0.14,1.85
2022-11-13 14:8:56.6950,-1.34,-0.54,0.48,1.52
2022-11-13 14:8:56.6970,-1.15,-1.34,0.88,1.97
2022-11-13 14:8:56.7000,-1.29,-1.32,1.25,2.22
2022-11-13 14:8:56.7090,-1.65,-1.13,1.0,2.23
2022-11-13 14:8:56.7190,-1.74,-1.03,0.26,2.03
2022-11-13 14:8:56.7290,-1.45,-0.68,-0.25,1.62
2022-11-13 14:8:56.7390,-1.11,-0.71,-0.5,1.4
2022-11-13 14:8:56.7490,-0.64,-0.87,-0.39,1.14
2022-11-13 14:8:56.7590,-0.18,-1.04,-0.04,1.05
2022-11-13 14:8:56.7940,0.28,-1.32,0.2,1.36
2022-11-13 14:8:56.7950,0.48,-1.6,0.04,1.67
2022-11-13 14:8:56.7970,0.47,-1.83,-0.26,1.9
2022-11-13 14:8:56.8000,0.34,-1.74,-0.6,1.87
2022-11-13 14:8:56.8090,0.19,-1.41,-1.03,1.75
2022-11-13 14:8:56.8190,0.15,-1.14,-1.49,1.88
2022-11-13 14:8:56.8290,0.19,-0.93,-1.29,1.6
2022-11-13 14:8:56.8390,0.38,-0.73,-0.6,1.01
2022-11-13 14:8:56.8490,1.12,-0.62,0.12,1.28
2022-11-13 14:8:56.8590,0.96,-0.7,0.48,1.28
2022-11-13 14:8:56.8940,0.45,-0.52,0.41,0.8
2022-11-13 14:8:56.8950,0.26,0.11,0.11,0.3
2022-11-13 14:8:56.8970,-0.09,0.54,-0.02,0.54
2022-11-13 14:8:56.9000,-0.33,0.99,-0.08,1.04
2022-11-13 14:8:56.9090,-0.52,1.59,-0.12,1.67
2022-11-13 14:8:56.9200,-0.31,1.63,-0.14,1.66
2022-11-13 14:8:56.9300,0.31,1.6,0.09,1.63
2022-11-13 14:8:56.9400,0.57,1.4,0.45,1.57
2022-11-13 14:8:56.9500,-0.06,1.46,0.9,1.71
2022-11-13 14:8:56.9600,-0.77,1.49,1.59,2.31
2022-11-13 14:8:56.9960,1.49,0.4,2.1,2.6
2022-11-13 14:8:56.9960,2.4,-0.16,2.07,3.17
2022-11-13 14:8:56.9990,2.96,0.21,1.93,3.53
2022-11-13 14:8:57.0010,2.18,0.89,1.39,2.73
2022-11-13 14:8:57.0100,1.23,1.39,0.91,2.06
2022-11-13 14:8:57.0200,0.38,1.7,-0.11,1.74
2022-11-13 14:8:57.0300,-0.22,0.84,-1.88,2.07
2022-11-13 14:8:57.0400,-0.76,-1.95,-3.96,4.47
2022-11-13 14:8:57.0500,-1.84,-4.66,-4.28,6.58
2022-11-13 14:8:57.0600,-1.98,-4.82,-1.91,5.54
2022-11-13 14:8:57.1000,-0.99,-2.81,0.53,3.02
2022-11-13 14:8:57.1010,0.08,-0.25,1.31,1.33
2022-11-13 14:8:57.1030,0.9,1.48,0.57,1.82
2022-11-13 14:8:57.1030,1.7,2.25,-0.45,2.85
2022-11-13 14:8:57.1100,2.06,2.41,-0.73,3.25
2022-11-13 14:8:57.1200,1.47,2.19,-0.35,2.66
2022-11-13 14:8:57.1300,-0.35,2.18,0.21,2.21
2022-11-13 14:8:57.1400,-2.25,2.83,0.96,3.74
2022-11-13 14:8:57.1500,-2.7,3.85,1.54,4.94
2022-11-13 14:8:57.1600,-2.0,4.51,1.48,5.15
2022-11-13 14:8:57.1990,-1.54,4.88,1.44,5.31
2022-11-13 14:8:57.2000,-1.1,5.08,1.51,5.41
2022-11-13 14:8:57.2020,-0.4,5.3,1.68,5.57
2022-11-13 14:8:57.2040,-0.25,5.02,0.5,5.05
2022-11-13 14:8:57.2100,-0.92,3.17,-2.66,4.23
2022-11-13 14:8:57.2230,-1.49,0.39,-3.31,3.65
2022-11-13 14:8:57.2300,0.22,-1.71,-0.77,1.88
2022-11-13 14:8:57.2400,1.71,-2.67,1.55,3.52
2022-11-13 14:8:57.2500,2.13,-1.85,0.92,2.96
2022-11-13 14:8:57.2610,1.53,-0.01,-1.5,2.14
2022-11-13 14:8:57.3000,0.74,1.5,-1.96,2.57
2022-11-13 14:8:57.3010,0.02,2.51,-1.43,2.88
2022-11-13 14:8:57.3030,-0.78,3.2,-1.5,3.61
2022-11-13 14:8:57.3040,-1.43,3.21,-0.97,3.64
2022-11-13 14:8:57.3220,-1.16,3.04,-0.18,3.25
2022-11-13 14:8:57.3230,-0.8,2.16,0.16,2.3
2022-11-13 14:8:57.3310,-1.79,-0.48,-0.35,1.88
2022-11-13 14:8:57.3410,-1.92,-3.23,1.28,3.96
2022-11-13 14:8:57.3510,-0.37,-4.92,1.78,5.24
2022-11-13 14:8:57.3610,0.58,-5.59,0.88,5.68
2022-11-13 14:8:57.4000,0.08,-4.08,0.94,4.18
2022-11-13 14:8:57.4010,-0.83,-1.38,0.7,1.75
2022-11-13 14:8:57.4030,-0.65,-0.84,0.43,1.14
2022-11-13 14:8:57.4040,-1.21,0.43,-0.54,1.39
2022-11-13 14:8:57.4110,-2.13,1.05,-1.04,2.59
2022-11-13 14:8:57.4210,-2.82,1.25,-1.39,3.38
2022-11-13 14:8:57.4310,-2.4,1.71,-1.72,3.41
2022-11-13 14:8:57.4410,-1.5,1.61,-1.56,2.69
2022-11-13 14:8:57.4510,-1.08,-0.2,-0.77,1.34
2022-11-13 14:8:57.4610,-0.44,-2.39,0.39,2.46
2022-11-13 14:8:57.5010,0.02,-3.49,1.02,3.63
2022-11-13 14:8:57.5020,-0.12,-2.78,0.76,2.88
2022-11-13 14:8:57.5030,0.51,-1.48,0.58,1.66
2022-11-13 14:8:57.5040,0.8,-1.17,0.87,1.66
2022-11-13 14:8:57.5230,0.9,-1.52,1.07,2.06
2022-11-13 14:8:57.5240,1.17,-1.44,0.47,1.91
2022-11-13 14:8:57.5310,0.67,-1.14,-0.89,1.59
2022-11-13 14:8:57.5410,0.34,-1.62,-1.31,2.11
2022-11-13 14:8:57.5510,0.33,-2.22,-0.82,2.38
2022-11-13 14:8:57.5620,0.35,-2.61,-0.52,2.68
2022-11-13 14:8:57.6000,0.2,-2.84,-0.36,2.86
2022-11-13 14:8:57.6020,0.24,-2.7,-0.39,2.73
2022-11-13 14:8:57.6030,0.27,-2.32,0.07,2.33
2022-11-13 14:8:57.6040,0.36,-1.53,0.31,1.6
2022-11-13 14:8:57.6230,0.38,-1.0,0.32,1.11
2022-11-13 14:8:57.6240,0.92,-0.11,0.44,1.02
2022-11-13 14:8:57.6320,-0.66,-0.41,0.88,1.17
2022-11-13 14:8:57.6420,-2.51,-1.38,0.98,3.02
2022-11-13 14:8:57.6520,-2.32,-1.32,0.77,2.77
2022-11-13 14:8:57.6620,-1.8,-0.76,-0.59,2.04
2022-11-13 14:8:57.7000,-1.74,-0.49,-1.98,2.68
2022-11-13 14:8:57.7020,-1.69,-0.07,-2.83,3.29
2022-11-13 14:8:57.7030,-1.05,0.18,-2.65,2.85
2022-11-13 14:8:57.7040,-0.58,0.04,-1.49,1.59
2022-11-13 14:8:57.7240,-0.17,-0.04,-0.18,0.25
2022-11-13 14:8:57.7240,0.46,0.17,1.14,1.24
2022-11-13 14:8:57.7320,1.0,0.78,1.4,1.88
2022-11-13 14:8:57.7420,1.45,1.82,0.79,2.45
2022-11-13 14:8:57.7520,2.05,2.73,0.27,3.42
2022-11-13 14:8:57.7620,0.93,2.09,0.04,2.28
2022-11-13 14:8:57.8020,-0.1,1.22,-0.17,1.23
2022-11-13 14:8:57.8030,-0.49,1.04,-0.09,1.15
2022-11-13 14:8:57.8040,-0.77,1.11,0.17,1.36
2022-11-13 14:8:57.8050,-0.64,1.23,0.3,1.41
2022-11-13 14:8:57.8120,-0.3,1.49,0.1,1.52
2022-11-13 14:8:57.8220,0.24,2.21,-0.2,2.23
2022-11-13 14:8:57.8320,0.78,3.28,-0.25,3.38
2022-11-13 14:8:57.8420,0.94,3.68,-0.18,3.8
2022-11-13 14:8:57.8520,0.22,2.87,-0.24,2.88
2022-11-13 14:8:57.8620,-0.65,1.65,-0.37,1.81
2022-11-13 14:8:57.9010,-0.92,0.64,-0.53,1.23
2022-11-13 14:8:57.9030,-0.67,0.19,-0.5,0.85
2022-11-13 14:8:57.9040,-0.56,-0.39,0.33,0.75
2022-11-13 14:8:57.9050,0.05,-0.76,0.75,1.06
2022-11-13 14:8:57.9120,0.65,-0.94,-0.05,1.14
2022-11-13 14:8:57.9220,0.43,-1.83,-0.87,2.07
2022-11-13 14:8:57.9320,0.08,-2.15,-1.29,2.5
2022-11-13 14:8:57.9420,0.14,-2.4,-1.19,2.68
2022-11-13 14:8:57.9530,-0.27,-2.4,-0.65,2.5
2022-11-13 14:8:57.9630,-0.41,-2.34,0.04,2.37
2022-11-13 14:8:58.0020,-0.1,-2.31,0.4,2.34
2022-11-13 14:8:58.0030,-0.06,-1.92,-0.06,1.92
2022-11-13 14:8:58.0040,-0.14,-1.23,-0.22,1.25
2022-11-13 14:8:58.0050,-0.06,-0.87,0.2,0.89
2022-11-13 14:8:58.0130,-0.07,-0.6,0.46,0.75
2022-11-13 14:8:58.0230,-0.2,-0.32,0.47,0.6
2022-11-13 14:8:58.0330,-0.41,-0.4,0.17,0.59
2022-11-13 14:8:58.0430,-0.45,-0.46,-0.25,0.69
2022-11-13 14:8:58.0530,-0.5,-0.19,-0.76,0.92
2022-11-13 14:8:58.0630,-0.66,-0.02,-0.69,0.95
2022-11-13 14:8:58.1020,-0.52,0.17,-0.43,0.69
2022-11-13 14:8:58.1040,-0.33,0.2,-0.49,0.62
2022-11-13 14:8:58.1050,-0.27,-0.65,-0.41,0.81
2022-11-13 14:8:58.1050,-0.2,-1.5,-0.16,1.52
2022-11-13 14:8:58.1130,-0.15,-1.57,0.17,1.58
2022-11-13 14:8:58.1230,0.04,-1.22,0.29,1.25
2022-11-13 14:8:58.1330,0.13,-0.74,0.16,0.76
2022-11-13 14:8:58.1430,0.15,-0.29,0.14,0.35
2022-11-13 14:8:58.1530,0.25,0.13,0.05,0.28
2022-11-13 14:8:58.1630,0.48,0.35,-0.2,0.62
2022-11-13 14:8:58.2020,0.44,0.55,-0.16,0.72
2022-11-13 14:8:58.2040,1.38,1.61,-0.3,2.14
2022-11-13 14:8:58.2050,1.56,1.93,-0.15,2.48
2022-11-13 14:8:58.2060,2.36,2.52,0.16,3.45
2022-11-13 14:8:58.2130,2.37,2.36,0.21,3.35
2022-11-13 14:8:58.2230,1.55,1.71,0.23,2.31
2022-11-13 14:8:58.2330,1.49,1.72,-0.02,2.27
2022-11-13 14:8:58.2430,1.54,1.82,-0.49,2.43
2022-11-13 14:8:58.2530,1.5,1.92,-0.95,2.61
2022-11-13 14:8:58.2640,1.17,1.68,-0.76,2.18
2022-11-13 14:8:58.3040,0.34,0.66,0.29,0.79
2022-11-13 14:8:58.3060,-0.48,-0.55,1.25,1.44
2022-11-13 14:8:58.3070,0.01,-0.65,1.25,1.4
2022-11-13 14:8:58.3070,0.71,-0.4,0.8,1.14
2022-11-13 14:8:58.3130,0.69,-0.33,0.22,0.79
2022-11-13 14:8:58.3240,0.45,-0.39,-0.37,0.7
2022-11-13 14:8:58.3340,0.04,-0.54,-0.85,1.0
2022-11-13 14:8:58.3440,-0.4,-0.59,-1.08,1.29
2022-11-13 14:8:58.3540,-0.89,-0.5,-1.04,1.45
2022-11-13 14:8:58.3640,-1.21,-0.27,-0.67,1.4
2022-11-13 14:8:58.4050,-0.9,0.25,-0.09,0.93
2022-11-13 14:8:58.4070,-1.0,0.58,0.29,1.19
2022-11-13 14:8:58.4070,-2.38,0.35,-0.02,2.4
2022-11-13 14:8:58.4230,-3.41,0.03,-0.35,3.42
2022-11-13 14:8:58.4250,-3.44,-0.23,-0.1,3.44
2022-11-13 14:8:58.4270,-2.54,-0.36,0.59,2.63
2022-11-13 14:8:58.4340,-0.89,-0.14,0.8,1.2
2022-11-13 14:8:58.4440,0.24,-0.08,0.29,0.38
2022-11-13 14:8:58.4540,0.58,-0.26,-0.17,0.65
2022-11-13 14:8:58.4640,0.36,-0.57,-0.23,0.71
2022-11-13 14:8:58.5050,0.14,-0.62,-0.25,0.68
2022-11-13 14:8:58.5070,0.04,-0.45,-0.17,0.48
2022-11-13 14:8:58.5070,-0.05,-0.24,-0.09,0.26
2022-11-13 14:8:58.5230,-0.05,0.01,-0.29,0.29
2022-11-13 14:8:58.5240,-0.07,0.16,-0.6,0.62
2022-11-13 14:8:58.5250,-0.17,0.12,-0.73,0.75
2022-11-13 14:8:58.5340,-0.24,0.02,-0.67,0.71
2022-11-13 14:8:58.5440,-0.23,-0.04,-0.45,0.5
2022-11-13 14:8:58.5540,-0.2,-0.05,-0.26,0.33
2022-11-13 14:8:58.5640,-0.21,-0.05,-0.15,0.26
2022-11-13 14:8:58.6050,-0.2,-0.01,-0.04,0.2
2022-11-13 14:8:58.6060,-0.16,0.01,0.06,0.17
2022-11-13 14:8:58.6070,-0.13,-0.01,0.13,0.18
2022-11-13 14:8:58.6230,-0.11,-0.01,0.16,0.19
2022-11-13 14:8:58.6240,-0.07,-0.02,0.05,0.08
2022-11-13 14:8:58.6260,-0.04,-0.02,-0.15,0.15
2022-11-13 14:8:58.6340,-0.06,-0.07,-0.33,0.34
2022-11-13 14:8:58.6450,-0.03,-0.11,-0.41,0.42
2022-11-13 14:8:58.6550,-0.03,-0.14,-0.39,0.41
2022-11-13 14:8:58.6640,-0.03,-0.1,-0.31,0.32
2022-11-13 14:8:58.7050,-0.02,-0.03,-0.19,0.19
2022-11-13 14:8:58.7060,-0.02,0.02,-0.16,0.16
2022-11-13 14:8:58.7070,0.03,0.07,-0.14,0.15
2022-11-13 14:8:58.7230,0.04,0.14,-0.04,0.15
2022-11-13 14:8:58.7240,0.02,0.18,0.05,0.18
2022-11-13 14:8:58.7270,0.03,0.18,0.06,0.19
2022-11-13 14:8:58.7350,0.01,0.12,0.02,0.12
2022-11-13 14:8:58.7450,-0.06,0.06,0.01,0.08
2022-11-13 14:8:58.7550,-0.11,0.03,-0.02,0.11
2022-11-13 14:8:58.7650,-0.17,0.02,-0.07,0.18
2022-11-13 14:8:58.8050,-0.27,0.04,-0.11,0.29
2022-11-13 14:8:58.8070,-0.27,0.14,-0.18,0.35
2022-11-13 14:8:58.8080,-0.15,0.23,-0.12,0.29
2022-11-13 14:8:58.8230,-0.08,0.2,-0.09,0.23
2022-11-13 14:8:58.8240,-0.02,0.08,-0.23,0.24
2022-11-13 14:8:58.8250,0.03,-0.04,-0.4,0.4
2022-11-13 14:8:58.8350,0.1,-0.12,-0.42,0.44
2022-11-13 14:8:58.8450,0.11,-0.18,-0.25,0.32
2022-11-13 14:8:58.8550,0.1,-0.14,-0.09,0.19
2022-11-13 14:8:58.8650,0.04,-0.01,-0.07,0.08
2022-11-13 14:8:58.9050,-0.04,0.11,-0.03,0.12
2022-11-13 14:8:58.9070,-0.11,0.19,0.09,0.23
2022-11-13 14:8:58.9080,-0.16,0.2,0.15,0.29
2022-11-13 14:8:58.9230,-0.2,0.14,0.1,0.26
2022-11-13 14:8:58.9240,-0.25,0.08,0.04,0.26
2022-11-13 14:8:58.9250,-0.27,0.04,-0.07,0.28
2022-11-13 14:8:58.9350,-0.27,0.0,-0.14,0.3
2022-11-13 14:8:58.9450,-0.19,0.02,-0.19,0.26
2022-11-13 14:8:58.9560,-0.1,0.05,-0.29,0.31
2022-11-13 14:8:58.9650,-0.02,0.07,-0.37,0.37
2022-11-13 14:8:59.0060,0.03,0.1,-0.37,0.38
2022-11-13 14:8:59.0070,0.03,0.08,-0.29,0.3
2022-11-13 14:8:59.0080,0.01,0.08,-0.17,0.18
2022-11-13 14:8:59.0230,-0.06,0.08,-0.06,0.11
2022-11-13 14:8:59.0240,-0.11,0.13,0.01,0.17
2022-11-13 14:8:59.0250,-0.15,0.13,0.02,0.19
2022-11-13 14:8:59.0360,-0.16,0.08,0.02,0.18
2022-11-13 14:8:59.0460,-0.14,0.05,-0.04,0.15
2022-11-13 14:8:59.0560,-0.17,0.02,-0.12,0.2
2022-11-13 14:8:59.0660,-0.19,0.02,-0.22,0.29
2022-11-13 14:8:59.1060,-0.2,0.03,-0.28,0.34
2022-11-13 14:8:59.1070,-0.25,-0.04,-0.28,0.37
2022-11-13 14:8:59.1080,-0.22,-0.03,-0.24,0.32
2022-11-13 14:8:59.1230,-0.17,0.0,-0.21,0.27
2022-11-13 14:8:59.1240,-0.15,0.04,-0.16,0.22
2022-11-13 14:8:59.1260,-0.09,0.03,-0.13,0.16
2022-11-13 14:8:59.1360,-0.02,0.02,-0.11,0.11
2022-11-13 14:8:59.1460,-0.01,0.05,-0.13,0.13
2022-11-13 14:8:59.1560,0.0,0.06,-0.12,0.13
2022-11-13 14:8:59.1660,-0.01,0.06,-0.08,0.1
2022-11-13 14:8:59.2050,-0.05,0.08,-0.04,0.1
2022-11-13 14:8:59.2070,-0.07,0.11,-0.06,0.14
2022-11-13 14:8:59.2080,-0.08,0.11,-0.08,0.15
2022-11-13 14:8:59.2230,-0.06,0.08,-0.09,0.13
2022-11-13 14:8:59.2240,-0.02,0.06,-0.15,0.16
2022-11-13 14:8:59.2260,0.01,0.05,-0.2,0.2
2022-11-13 14:8:59.2360,0.05,0.03,-0.22,0.22
2022-11-13 14:8:59.2460,0.03,-0.02,-0.27,0.27
2022-11-13 14:8:59.2560,0.01,-0.04,-0.24,0.24
2022-11-13 14:8:59.2660,-0.03,0.01,-0.19,0.19
2022-11-13 14:8:59.3060,-0.1,0.05,-0.13,0.17
2022-11-13 14:8:59.3080,-0.15,0.06,-0.07,0.17
2022-11-13 14:8:59.3090,-0.19,0.05,-0.07,0.2
2022-11-13 14:8:59.3230,-0.22,0.05,-0.04,0.22
2022-11-13 14:8:59.3240,-0.28,0.01,-0.04,0.28
2022-11-13 14:8:59.3260,-0.27,0.01,-0.06,0.27
2022-11-13 14:8:59.3360,-0.27,0.05,-0.06,0.28
2022-11-13 14:8:59.3470,-0.27,0.07,-0.07,0.28
2022-11-13 14:8:59.3570,-0.22,0.06,-0.07,0.23
2022-11-13 14:8:59.3670,-0.18,0.0,-0.11,0.21
2022-11-13 14:8:59.4050,-0.14,-0.03,-0.16,0.21
2022-11-13 14:8:59.4070,-0.12,0.0,-0.12,0.16
2022-11-13 14:8:59.4080,-0.13,0.03,-0.12,0.17
2022-11-13 14:8:59.4230,-0.14,0.07,-0.18,0.23
2022-11-13 14:8:59.4240,-0.12,0.14,-0.12,0.22
2022-11-13 14:8:59.4270,-0.09,0.2,-0.04,0.22
2022-11-13 14:8:59.4370,-0.04,0.18,-0.06,0.19
2022-11-13 14:8:59.4470,0.01,0.1,-0.06,0.11
2022-11-13 14:8:59.4570,0.03,0.04,0.01,0.05
2022-11-13 14:8:59.4670,0.04,0.02,0.05,0.06
2022-11-13 14:8:59.5070,0.03,0.02,0.08,0.08
2022-11-13 14:8:59.5080,0.0,0.05,0.09,0.1
2022-11-13 14:8:59.5090,-0.05,0.08,0.14,0.16
2022-11-13 14:8:59.5230,-0.1,0.1,0.11,0.17
2022-11-13 14:8:59.5240,-0.14,0.09,0.06,0.17
2022-11-13 14:8:59.5270,-0.15,0.05,-0.02,0.15
2022-11-13 14:8:59.5370,-0.14,0.02,-0.13,0.19
2022-11-13 14:8:59.5470,-0.1,0.01,-0.15,0.18
2022-11-13 14:8:59.5570,-0.07,0.01,-0.17,0.18
2022-11-13 14:8:59.5670,-0.06,0.01,-0.22,0.22
2022-11-13 14:8:59.6070,-0.06,-0.01,-0.23,0.23
2022-11-13 14:8:59.6090,-0.05,0.0,-0.2,0.2
2022-11-13 14:8:59.6100,-0.06,0.0,-0.18,0.18
2022-11-13 14:8:59.6100,-0.07,0.02,-0.15,0.16
2022-11-13 14:8:59.6170,-0.05,0.04,-0.11,0.12
2022-11-13 14:8:59.6270,-0.01,0.05,-0.09,0.1
2022-11-13 14:8:59.6370,0.02,0.05,-0.04,0.06
2022-11-13 14:8:59.6470,0.06,0.04,-0.02,0.07
2022-11-13 14:8:59.6570,0.07,0.01,-0.1,0.12
2022-11-13 14:8:59.6670,0.05,-0.06,-0.12,0.14
2022-11-13 14:8:59.7070,0.04,-0.04,-0.09,0.1
2022-11-13 14:8:59.7090,0.02,0.0,-0.08,0.08
2022-11-13 14:8:59.7100,0.0,-0.01,-0.13,0.13
2022-11-13 14:8:59.7110,0.03,0.04,-0.14,0.14
2022-11-13 14:8:59.7170,0.02,0.14,-0.09,0.16
2022-11-13 14:8:59.7280,0.02,0.19,-0.01,0.19
2022-11-13 14:8:59.7380,0.0,0.16,0.0,0.16
2022-11-13 14:8:59.7480,-0.03,0.1,-0.03,0.1
2022-11-13 14:8:59.7580,-0.02,0.04,-0.05,0.06
2022-11-13 14:8:59.7680,0.03,0.0,-0.07,0.07
2022-11-13 14:8:59.8080,0.08,0.01,-0.13,0.15
2022-11-13 14:8:59.8090,0.11,0.02,-0.23,0.25
2022-11-13 14:8:59.8110,0.13,0.01,-0.26,0.29
2022-11-13 14:8:59.8130,0.15,0.0,-0.24,0.28
2022-11-13 14:8:59.8180,0.17,-0.02,-0.22,0.27
2022-11-13 14:8:59.8280,0.16,-0.05,-0.19,0.25
2022-11-13 14:8:59.8380,0.12,-0.09,-0.13,0.19
2022-11-13 14:8:59.8480,0.06,-0.09,-0.06,0.12
2022-11-13 14:8:59.8580,0.0,-0.02,-0.01,0.02
2022-11-13 14:8:59.8680,-0.04,0.09,0.02,0.1
2022-11-13 14:8:59.9070,-0.08,0.14,0.01,0.16
2022-11-13 14:8:59.9080,-0.11,0.12,-0.01,0.16
2022-11-13 14:8:59.9100,-0.1,0.11,-0.05,0.15
2022-11-13 14:8:59.9120,-0.08,0.08,-0.07,0.13
2022-11-13 14:8:59.9180,-0.06,0.05,-0.11,0.13
2022-11-13 14:8:59.9280,-0.06,0.0,-0.15,0.16
2022-11-13 14:8:59.9380,-0.06,-0.05,-0.15,0.16
2022-11-13 14:8:59.9480,-0.06,-0.04,-0.12,0.13
2022-11-13 14:8:59.9580,-0.09,0.0,-0.09,0.12
2022-11-13 14:8:59.9680,-0.11,0.04,-0.09,0.14
2022-11-13 14:9:00.0070,-0.11,0.05,-0.05,0.13
2022-11-13 14:9:00.0080,-0.12,0.06,-0.03,0.13
2022-11-13 14:9:00.0100,-0.09,0.07,-0.02,0.11
2022-11-13 14:9:00.0120,-0.05,0.09,0.01,0.1
2022-11-13 14:9:00.0190,-0.02,0.07,-0.01,0.07
2022-11-13 14:9:00.0290,-0.02,0.03,-0.07,0.07
2022-11-13 14:9:00.0390,-0.01,-0.01,-0.08,0.08
2022-11-13 14:9:00.0490,-0.04,0.01,-0.06,0.07
2022-11-13 14:9:00.0590,-0.05,0.05,-0.1,0.12
2022-11-13 14:9:00.0690,-0.07,0.06,-0.11,0.14
2022-11-13 14:9:00.1070,-0.08,0.03,-0.1,0.13
2022-11-13 14:9:00.1080,-0.11,0.01,-0.11,0.15
2022-11-13 14:9:00.1100,-0.15,0.01,-0.1,0.18
2022-11-13 14:9:00.1120,-0.18,0.04,-0.12,0.22
2022-11-13 14:9:00.1190,-0.18,0.09,-0.11,0.22
2022-11-13 14:9:00.1290,-0.18,0.12,-0.06,0.22
2022-11-13 14:9:00.1390,-0.14,0.15,-0.03,0.2
2022-11-13 14:9:00.1490,-0.08,0.12,-0.01,0.14
2022-11-13 14:9:00.1590,-0.06,0.05,-0.04,0.08
2022-11-13 14:9:00.1690,-0.05,-0.01,-0.02,0.05
2022-11-13 14:9:00.2070,-0.03,0.03,-0.02,0.04
2022-11-13 14:9:00.2080,-0.02,0.05,-0.05,0.07
2022-11-13 14:9:00.2100,-0.02,0.03,-0.07,0.07
2022-11-13 14:9:00.2120,0.0,0.02,-0.12,0.12
2022-11-13 14:9:00.2190,0.0,0.02,-0.14,0.14
2022-11-13 14:9:00.2290,-0.02,0.02,-0.13,0.13
2022-11-13 14:9:00.2390,-0.06,0.05,-0.14,0.16
2022-11-13 14:9:00.2490,-0.1,0.06,-0.14,0.18
2022-11-13 14:9:00.2590,-0.12,0.08,-0.12,0.18
2022-11-13 14:9:00.2690,-0.1,0.08,-0.12,0.17
2022-11-13 14:9:00.3080,-0.03,0.06,-0.13,0.14
2022-11-13 14:9:00.3090,0.02,0.05,-0.13,0.14
2022-11-13 14:9:00.3110,0.01,0.01,-0.09,0.09
2022-11-13 14:9:00.3130,0.02,-0.01,-0.02,0.03
2022-11-13 14:9:00.3190,0.04,0.06,0.06,0.09
2022-11-13 14:9:00.3290,0.04,0.14,0.13,0.19
2022-11-13 14:9:00.3390,0.05,0.13,0.13,0.19
2022-11-13 14:9:00.3490,0.09,0.07,0.08,0.13
2022-11-13 14:9:00.3590,0.15,0.05,0.08,0.17
2022-11-13 14:9:00.3700,0.14,-0.01,0.15,0.2
2022-11-13 14:9:00.4080,0.09,-0.05,0.2,0.22
2022-11-13 14:9:00.4090,0.03,-0.04,0.2,0.2
2022-11-13 14:9:00.4110,-0.02,0.01,0.16,0.16
2022-11-13 14:9:00.4130,-0.07,0.09,0.12,0.16
2022-11-13 14:9:00.4190,-0.09,0.14,0.14,0.21
2022-11-13 14:9:00.4300,-0.07,0.11,0.11,0.17
2022-11-13 14:9:00.4400,-0.02,0.05,0.0,0.05
2022-11-13 14:9:00.4500,0.04,-0.01,-0.11,0.11
2022-11-13 14:9:00.4600,0.08,-0.02,-0.15,0.17
2022-11-13 14:9:00.4700,0.09,0.01,-0.09,0.12
2022-11-13 14:9:00.5080,0.11,0.09,-0.08,0.16
2022-11-13 14:9:00.5090,0.1,0.17,-0.11,0.22
2022-11-13 14:9:00.5120,0.1,0.19,-0.13,0.25
2022-11-13 14:9:00.5140,0.11,0.23,-0.1,0.27
2022-11-13 14:9:00.5200,0.13,0.26,-0.07,0.29
2022-11-13 14:9:00.5300,0.14,0.25,-0.01,0.28
2022-11-13 14:9:00.5400,0.21,0.3,0.02,0.36
2022-11-13 14:9:00.5500,0.25,0.38,0.02,0.45
2022-11-13 14:9:00.5600,0.3,0.37,0.06,0.48
2022-11-13 14:9:00.5700,0.37,0.28,0.07,0.46
2022-11-13 14:9:00.6090,0.46,0.15,-0.01,0.48
2022-11-13 14:9:00.6100,0.55,0.05,-0.07,0.55
2022-11-13 14:9:00.6120,0.63,0.01,0.05,0.63
2022-11-13 14:9:00.6140,0.7,0.0,0.23,0.73
2022-11-13 14:9:00.6200,0.82,-0.03,0.25,0.85
2022-11-13 14:9:00.6300,0.91,-0.16,0.08,0.92
2022-11-13 14:9:00.6400,1.05,-0.29,0.0,1.08
2022-11-13 14:9:00.6500,1.25,-0.34,0.07,1.29
2022-11-13 14:9:00.6600,1.43,-0.34,0.07,1.47
2022-11-13 14:9:00.6700,1.53,-0.34,0.0,1.56
2022-11-13 14:9:00.7090,1.55,-0.36,-0.09,1.59
2022-11-13 14:9:00.7100,1.55,-0.39,-0.18,1.6
2022-11-13 14:9:00.7120,1.58,-0.44,-0.23,1.65
2022-11-13 14:9:00.7140,1.58,-0.48,-0.22,1.66
2022-11-13 14:9:00.7200,1.62,-0.37,-0.2,1.67
2022-11-13 14:9:00.7310,1.63,-0.24,-0.23,1.66
2022-11-13 14:9:00.7400,1.63,-0.21,-0.22,1.65
2022-11-13 14:9:00.7510,1.59,-0.2,-0.16,1.61
2022-11-13 14:9:00.7610,1.54,-0.24,-0.09,1.56
2022-11-13 14:9:00.7710,1.51,-0.28,-0.02,1.53
2022-11-13 14:9:00.8090,1.42,-0.3,0.01,1.45
2022-11-13 14:9:00.8100,1.34,-0.26,-0.08,1.36
2022-11-13 14:9:00.8120,1.28,-0.15,-0.25,1.31
2022-11-13 14:9:00.8140,1.24,0.02,-0.44,1.31
2022-11-13 14:9:00.8210,1.21,0.21,-0.64,1.38
2022-11-13 14:9:00.8310,1.18,0.3,-0.91,1.52
2022-11-13 14:9:00.8410,1.13,0.25,-1.18,1.65
2022-11-13 14:9:00.8510,1.06,0.1,-1.31,1.68
2022-11-13 14:9:00.8610,0.97,-0.17,-1.34,1.66
2022-11-13 14:9:00.8710,0.84,-0.55,-1.5,1.8
2022-11-13 14:9:00.9090,0.67,-1.07,-1.61,2.04
2022-11-13 14:9:00.9100,0.45,-1.64,-1.58,2.32
2022-11-13 14:9:00.9120,0.24,-2.12,-1.49,2.6
2022-11-13 14:9:00.9140,0.08,-2.54,-1.32,2.86
2022-11-13 14:9:00.9210,0.07,-2.77,-1.2,3.01
2022-11-13 14:9:00.9310,0.23,-2.84,-1.43,3.18
2022-11-13 14:9:00.9410,0.48,-2.93,-1.88,3.51
2022-11-13 14:9:00.9510,0.95,-2.99,-2.34,3.91
2022-11-13 14:9:00.9610,1.44,-2.83,-2.52,4.05
2022-11-13 14:9:00.9710,1.77,-2.53,-2.02,3.68
2022-11-13 14:9:01.0100,2.09,-2.07,-1.14,3.15
2022-11-13 14:9:01.0110,2.28,-1.5,-0.45,2.76
2022-11-13 14:9:01.0130,2.21,-0.74,0.34,2.35
2022-11-13 14:9:01.0150,1.58,0.01,1.02,1.88
2022-11-13 14:9:01.0210,0.28,0.01,1.01,1.04
2022-11-13 14:9:01.0310,-1.0,-0.4,0.45,1.16
2022-11-13 14:9:01.0420,-1.69,-0.56,0.23,1.79
2022-11-13 14:9:01.0520,-1.86,-0.5,0.29,1.94
2022-11-13 14:9:01.0620,-1.48,-0.22,0.43,1.55
2022-11-13 14:9:01.0720,-0.8,0.28,0.65,1.06
2022-11-13 14:9:01.1100,-0.18,0.9,0.85,1.25
2022-11-13 14:9:01.1110,0.12,1.5,0.74,1.67
2022-11-13 14:9:01.1130,0.05,1.94,0.32,1.96
2022-11-13 14:9:01.1160,-0.26,2.24,-0.24,2.26
2022-11-13 14:9:01.1220,-0.48,2.48,-0.39,2.55
2022-11-13 14:9:01.1320,-0.54,2.69,-0.27,2.75
2022-11-13 14:9:01.1420,-0.52,2.78,-0.19,2.83
2022-11-13 14:9:01.1520,-0.48,2.82,-0.12,2.86
2022-11-13 14:9:01.1620,-0.45,2.85,-0.07,2.88
2022-11-13 14:9:01.1720,-0.37,2.85,0.06,2.87
2022-11-13 14:9:01.2110,-0.34,2.88,0.24,2.9
2022-11-13 14:9:01.2120,-0.35,2.97,0.36,3.01
2022-11-13 14:9:01.2140,-0.54,3.17,0.4,3.24
2022-11-13 14:9:01.2160,-0.97,3.42,0.24,3.56
2022-11-13 14:9:01.2220,-1.66,3.5,-0.18,3.87
2022-11-13 14:9:01.2320,-2.34,3.48,-0.8,4.26
2022-11-13 14:9:01.2420,-2.81,3.36,-1.52,4.63
2022-11-13 14:9:01.2520,-2.89,3.16,-2.13,4.78
2022-11-13 14:9:01.2620,-2.51,2.92,-2.65,4.67
2022-11-13 14:9:01.2720,-1.67,2.48,-2.76,4.06
2022-11-13 14:9:01.3110,-0.48,2.06,-2.26,3.09
2022-11-13 14:9:01.3120,0.88,1.47,-1.61,2.35
2022-11-13 14:9:01.3140,2.19,0.46,-1.39,2.63
2022-11-13 14:9:01.3160,2.92,-0.76,-1.85,3.53
2022-11-13 14:9:01.3220,3.25,-2.17,-2.36,4.56
2022-11-13 14:9:01.3320,3.36,-3.71,-2.42,5.55
2022-11-13 14:9:01.3420,3.61,-4.72,-2.21,6.33
2022-11-13 14:9:01.3520,4.3,-4.38,-1.73,6.37
2022-11-13 14:9:01.3630,5.32,-3.02,-1.63,6.33
2022-11-13 14:9:01.3730,6.08,-1.43,-1.56,6.43
2022-11-13 14:9:01.4110,6.18,0.05,-1.34,6.32
2022-11-13 14:9:01.4120,5.18,0.83,-1.09,5.35
2022-11-13 14:9:01.4140,3.34,0.98,-0.75,3.56
2022-11-13 14:9:01.4160,2.0,1.61,0.46,2.6
2022-11-13 14:9:01.4220,0.6,2.57,1.18,2.89
2022-11-13 14:9:01.4330,-1.15,3.21,0.7,3.48
2022-11-13 14:9:01.4430,-3.2,2.96,-0.68,4.41
2022-11-13 14:9:01.4530,-5.56,1.13,-3.22,6.52
2022-11-13 14:9:01.4630,-7.61,-1.88,-6.69,10.3
2022-11-13 14:9:01.4730,-8.53,-4.97,-9.31,13.56
2022-11-13 14:9:01.5070,-7.63,-8.17,-6.87,13.12
2022-11-13 14:9:01.5080,-5.17,-8.93,1.5,10.42
2022-11-13 14:9:01.5100,-2.67,-5.3,4.7,7.57
2022-11-13 14:9:01.5130,-1.16,-1.19,2.75,3.21
2022-11-13 14:9:01.5230,-1.18,0.59,1.3,1.85
2022-11-13 14:9:01.5330,-2.06,0.98,0.98,2.48
2022-11-13 14:9:01.5430,-2.72,1.14,1.0,3.11
2022-11-13 14:9:01.5530,-3.07,1.35,0.93,3.48
2022-11-13 14:9:01.5630,-3.16,1.79,0.89,3.73
2022-11-13 14:9:01.5730,-3.03,2.13,1.25,3.9
2022-11-13 14:9:01.6080,-2.74,2.33,1.87,4.05
2022-11-13 14:9:01.6090,-2.25,2.34,2.67,4.2
2022-11-13 14:9:01.6110,-1.57,2.14,3.62,4.48
2022-11-13 14:9:01.6140,-0.96,1.8,4.25,4.71
2022-11-13 14:9:01.6230,-0.53,1.33,4.36,4.58
2022-11-13 14:9:01.6330,-0.26,0.79,3.8,3.88
2022-11-13 14:9:01.6430,-0.14,0.19,2.56,2.57
2022-11-13 14:9:01.6530,0.06,-0.54,0.87,1.02
2022-11-13 14:9:01.6630,0.3,-1.08,-0.56,1.25
2022-11-13 14:9:01.6730,0.49,-1.25,-0.57,1.45
2022-11-13 14:9:01.7080,0.68,-1.14,0.34,1.37
2022-11-13 14:9:01.7090,1.02,-0.9,0.45,1.43
2022-11-13 14:9:01.7120,1.33,-0.66,-0.04,1.48
2022-11-13 14:9:01.7140,1.41,-0.4,-0.26,1.48
2022-11-13 14:9:01.7230,0.98,-0.12,-0.11,0.99
2022-11-13 14:9:01.7340,0.58,0.04,-0.09,0.58
2022-11-13 14:9:01.7440,0.59,0.22,-0.16,0.64
2022-11-13 14:9:01.7540,0.9,0.38,-0.15,0.98
2022-11-13 14:9:01.7640,1.53,0.54,0.06,1.62
2022-11-13 14:9:01.7740,2.18,0.66,0.27,2.29
2022-11-13 14:9:01.8080,2.47,0.68,0.29,2.57
2022-11-13 14:9:01.8090,2.52,0.62,0.12,2.59
2022-11-13 14:9:01.8110,2.45,0.52,-0.16,2.5
2022-11-13 14:9:01.8130,2.38,0.54,-0.54,2.49
2022-11-13 14:9:01.8240,2.34,0.57,-1.02,2.61
2022-11-13 14:9:01.8340,2.38,0.6,-1.24,2.74
2022-11-13 14:9:01.8440,2.33,0.51,-1.34,2.73
2022-11-13 14:9:01.8540,2.14,0.25,-1.43,2.58
2022-11-13 14:9:01.8640,1.9,-0.07,-1.54,2.44
2022-11-13 14:9:01.8740,1.83,-0.31,-1.73,2.53
2022-11-13 14:9:01.9090,1.94,-0.43,-1.68,2.6
2022-11-13 14:9:01.9100,2.12,-0.54,-1.12,2.45
2022-11-13 14:9:01.9120,2.26,-0.61,-0.56,2.4
2022-11-13 14:9:01.9150,2.33,-0.73,-0.27,2.45
2022-11-13 14:9:01.9240,2.38,-0.92,-0.3,2.56
2022-11-13 14:9:01.9340,2.56,-1.07,-0.61,2.84
2022-11-13 14:9:01.9440,2.83,-1.25,-1.19,3.31
2022-11-13 14:9:01.9540,3.26,-1.68,-1.61,4.0
2022-11-13 14:9:01.9640,3.69,-2.45,-1.65,4.72
2022-11-13 14:9:01.9740,3.89,-3.16,-0.99,5.1
2022-11-13 14:9:02.0090,3.83,-3.36,-0.04,5.09
2022-11-13 14:9:02.0100,3.72,-2.87,0.59,4.73
2022-11-13 14:9:02.0120,3.75,-1.81,0.76,4.23
2022-11-13 14:9:02.0150,3.92,-1.07,0.64,4.11
2022-11-13 14:9:02.0250,4.02,-1.32,0.56,4.26
2022-11-13 14:9:02.0340,4.2,-2.36,0.29,4.82
2022-11-13 14:9:02.0440,4.56,-3.76,-0.36,5.92
2022-11-13 14:9:02.0540,4.73,-4.99,-1.09,6.96
2022-11-13 14:9:02.0640,4.54,-6.06,-1.55,7.72
2022-11-13 14:9:02.0750,4.26,-6.82,-1.57,8.19
2022-11-13 14:9:02.1100,3.7,-6.98,-1.81,8.1
2022-11-13 14:9:02.1110,2.44,-6.56,-2.59,7.46
2022-11-13 14:9:02.1130,0.72,-5.17,-3.33,6.19
2022-11-13 14:9:02.1150,0.12,-3.15,-3.48,4.69
2022-11-13 14:9:02.1250,0.18,-2.17,-3.04,3.73
2022-11-13 14:9:02.1350,-0.11,-2.69,-2.38,3.59
2022-11-13 14:9:02.1450,-0.38,-3.36,-0.94,3.5
2022-11-13 14:9:02.1550,-0.45,-3.32,1.25,3.57
2022-11-13 14:9:02.1650,-0.66,-3.36,2.58,4.28
2022-11-13 14:9:02.1750,-0.98,-3.87,2.86,4.91
2022-11-13 14:9:02.2100,-1.52,-4.43,2.59,5.35
2022-11-13 14:9:02.2110,-2.34,-4.99,1.94,5.84
2022-11-13 14:9:02.2130,-3.26,-5.22,1.93,6.44
2022-11-13 14:9:02.2160,-4.0,-4.97,2.33,6.79
2022-11-13 14:9:02.2250,-4.47,-4.11,3.22,6.87
2022-11-13 14:9:02.2350,-4.54,-2.72,4.34,6.84
2022-11-13 14:9:02.2450,-3.79,-0.82,4.12,5.65
2022-11-13 14:9:02.2550,-2.72,0.71,2.77,3.94
2022-11-13 14:9:02.2650,-1.75,1.58,0.95,2.54
2022-11-13 14:9:02.2750,-0.97,1.99,-0.43,2.25
2022-11-13 14:9:02.3100,-0.34,2.51,-0.03,2.53
2022-11-13 14:9:02.3110,0.0,3.09,1.86,3.6
2022-11-13 14:9:02.3140,-0.01,3.76,3.86,5.38
2022-11-13 14:9:02.3160,-0.5,4.21,5.02,6.57
2022-11-13 14:9:02.3250,-1.42,4.35,4.81,6.63
2022-11-13 14:9:02.3350,-2.5,4.38,3.58,6.18
2022-11-13 14:9:02.3450,-3.33,4.46,2.5,6.1
2022-11-13 14:9:02.3550,-3.81,4.86,1.94,6.47
2022-11-13 14:9:02.3650,-4.06,5.54,1.42,7.01
2022-11-13 14:9:02.3750,-4.22,6.21,1.13,7.59
2022-11-13 14:9:02.4110,-4.33,6.84,1.05,8.16
2022-11-13 14:9:02.4120,-4.43,7.3,0.89,8.58
2022-11-13 14:9:02.4140,-4.38,7.41,0.57,8.62
2022-11-13 14:9:02.4170,-4.32,7.06,0.26,8.28
2022-11-13 14:9:02.4260,-4.09,6.45,0.3,7.64
2022-11-13 14:9:02.4350,-3.58,5.92,0.72,6.95
2022-11-13 14:9:02.4460,-2.99,5.45,1.24,6.33
2022-11-13 14:9:02.4560,-2.48,4.69,1.83,5.61
2022-11-13 14:9:02.4660,-2.0,3.55,2.45,4.75
2022-11-13 14:9:02.4760,-1.63,2.02,2.33,3.48
2022-11-13 14:9:02.5110,-1.31,-0.08,0.51,1.4
2022-11-13 14:9:02.5120,-0.77,-2.79,-3.23,4.33
2022-11-13 14:9:02.5140,0.7,-7.72,-8.9,11.8
2022-11-13 14:9:02.5170,3.75,-13.25,-9.01,16.45
2022-11-13 14:9:02.5260,7.35,-14.1,-5.31,16.76
2022-11-13 14:9:02.5360,9.25,-14.49,-4.86,17.86
2022-11-13 14:9:02.5460,9.89,-10.46,-4.34,15.03
2022-11-13 14:9:02.5560,9.48,-2.64,-2.52,10.15
2022-11-13 14:9:02.5660,7.41,1.83,-0.78,7.67
2022-11-13 14:9:02.5760,3.87,3.41,-0.73,5.2
2022-11-13 14:9:02.6110,0.46,3.19,-2.02,3.8
2022-11-13 14:9:02.6120,-1.59,3.08,-0.16,3.46
2022-11-13 14:9:02.6150,-3.07,3.25,3.12,5.45
2022-11-13 14:9:02.6170,-4.78,2.23,3.69,6.43
2022-11-13 14:9:02.6260,-6.24,0.22,2.93,6.89
2022-11-13 14:9:02.6360,-7.73,-2.06,0.61,8.02
2022-11-13 14:9:02.6460,-9.45,-4.96,-4.14,11.44
2022-11-13 14:9:02.6560,-9.3,-8.12,-3.28,12.77
2022-11-13 14:9:02.6660,-7.58,-8.21,2.2,11.38
2022-11-13 14:9:02.6760,-5.72,-4.82,3.57,8.28
2022-11-13 14:9:02.7130,-4.05,-0.92,2.68,4.94
2022-11-13 14:9:02.7140,-3.47,1.29,2.39,4.4
2022-11-13 14:9:02.7160,-3.53,2.45,2.57,5.0
2022-11-13 14:9:02.7180,-3.69,3.12,2.67,5.52
2022-11-13 14:9:02.7270,-3.71,3.61,2.38,5.69
2022-11-13 14:9:02.7360,-3.59,4.08,2.12,5.83
2022-11-13 14:9:02.7470,-3.44,4.1,2.37,5.85
2022-11-13 14:9:02.7570,-3.02,3.28,3.32,5.55
2022-11-13 14:9:02.7670,-2.47,2.3,3.97,5.21
2022-11-13 14:9:02.7770,-1.92,1.53,4.43,5.06
2022-11-13 14:9:02.8130,-1.48,0.97,4.9,5.2
2022-11-13 14:9:02.8140,-1.22,0.59,4.53,4.72
2022-11-13 14:9:02.8170,-0.99,0.28,4.11,4.23
2022-11-13 14:9:02.8190,-0.82,-0.2,3.23,3.33
2022-11-13 14:9:02.8270,-0.4,-0.8,0.92,1.28
2022-11-13 14:9:02.8370,0.24,-1.26,-0.97,1.6
2022-11-13 14:9:02.8470,0.44,-1.2,-1.17,1.73
2022-11-13 14:9:02.8570,0.32,-1.04,-0.62,1.25
2022-11-13 14:9:02.8670,0.39,-0.92,-0.18,1.01
2022-11-13 14:9:02.8770,0.54,-0.69,-0.22,0.9
2022-11-13 14:9:02.9140,0.54,-0.22,-0.7,0.91
2022-11-13 14:9:02.9150,0.72,0.51,-0.94,1.28
2022-11-13 14:9:02.9170,0.96,1.2,-0.87,1.76
2022-11-13 14:9:02.9200,1.28,1.51,-0.91,2.17
2022-11-13 14:9:02.9270,1.9,1.35,-1.1,2.57
2022-11-13 14:9:02.9400,2.4,0.73,-1.33,2.83
2022-11-13 14:9:02.9470,2.37,-0.19,-1.48,2.8
2022-11-13 14:9:02.9570,2.06,-0.83,-1.16,2.5
2022-11-13 14:9:02.9670,1.75,-0.63,-0.59,1.95
2022-11-13 14:9:02.9770,1.77,0.34,0.01,1.8
2022-11-13 14:9:03.0140,2.12,1.27,0.57,2.53
2022-11-13 14:9:03.0160,2.59,1.62,0.62,3.11
2022-11-13 14:9:03.0170,2.84,1.28,0.17,3.11
2022-11-13 14:9:03.0190,2.75,0.59,-0.47,2.85
2022-11-13 14:9:03.0270,2.24,0.33,-0.79,2.39
2022-11-13 14:9:03.0370,1.88,0.82,-1.05,2.3
2022-11-13 14:9:03.0470,1.97,1.29,-1.25,2.66
2022-11-13 14:9:03.0570,2.35,1.07,-1.45,2.96
2022-11-13 14:9:03.0670,2.56,0.0,-1.76,3.1
2022-11-13 14:9:03.0770,2.6,-1.68,-1.68,3.52
2022-11-13 14:9:03.1140,2.74,-3.44,-0.81,4.47
2022-11-13 14:9:03.1160,3.2,-4.76,0.33,5.74
2022-11-13 14:9:03.1170,4.07,-5.16,0.99,6.64
2022-11-13 14:9:03.1180,5.2,-4.56,0.8,6.96
2022-11-13 14:9:03.1270,5.92,-3.74,0.3,7.0
2022-11-13 14:9:03.1380,6.15,-3.41,0.08,7.03
2022-11-13 14:9:03.1480,6.08,-3.45,-0.06,6.99
2022-11-13 14:9:03.1580,5.72,-3.58,-0.02,6.74
2022-11-13 14:9:03.1680,5.16,-3.73,0.42,6.38
2022-11-13 14:9:03.1780,4.5,-4.27,0.83,6.25
2022-11-13 14:9:03.2150,3.79,-5.12,0.88,6.43
2022-11-13 14:9:03.2170,3.04,-5.63,0.23,6.4
2022-11-13 14:9:03.2180,1.9,-6.02,-1.07,6.4
2022-11-13 14:9:03.2190,0.45,-5.99,-2.66,6.56
2022-11-13 14:9:03.2280,-0.44,-5.18,-4.07,6.6
2022-11-13 14:9:03.2400,-0.68,-4.01,-4.8,6.29
2022-11-13 14:9:03.2480,-0.54,-2.87,-4.03,4.97
2022-11-13 14:9:03.2580,-0.24,-2.15,-2.38,3.21
2022-11-13 14:9:03.2680,-0.43,-2.19,-1.09,2.48
2022-11-13 14:9:03.2780,-1.11,-3.03,-0.21,3.23
2022-11-13 14:9:03.3160,-1.57,-3.62,0.64,3.99
2022-11-13 14:9:03.3170,-1.92,-3.66,1.22,4.3
2022-11-13 14:9:03.3180,-2.43,-3.52,1.3,4.47
2022-11-13 14:9:03.3190,-3.02,-3.6,1.34,4.88
2022-11-13 14:9:03.3280,-3.72,-3.8,1.28,5.46
2022-11-13 14:9:03.3380,-4.77,-3.85,1.41,6.28
2022-11-13 14:9:03.3480,-5.65,-3.35,1.46,6.72
2022-11-13 14:9:03.3580,-6.29,-2.49,1.5,6.92
2022-11-13 14:9:03.3690,-6.91,-1.5,1.53,7.23
2022-11-13 14:9:03.3780,-7.24,-0.13,0.47,7.25
2022-11-13 14:9:03.4160,-5.82,1.22,-0.25,5.95
2022-11-13 14:9:03.4180,-3.18,1.87,0.24,3.69
2022-11-13 14:9:03.4190,-1.37,1.95,1.75,2.95
2022-11-13 14:9:03.4190,0.0,2.0,3.44,3.97
2022-11-13 14:9:03.4400,1.11,2.17,4.42,5.04
2022-11-13 14:9:03.4400,1.76,2.48,4.52,5.44
2022-11-13 14:9:03.4480,1.82,3.15,3.8,5.26
2022-11-13 14:9:03.4590,1.25,3.75,2.85,4.87
2022-11-13 14:9:03.4690,0.19,4.21,2.16,4.73
2022-11-13 14:9:03.4790,-1.08,4.58,1.95,5.09
2022-11-13 14:9:03.5170,-2.13,5.1,2.22,5.95
2022-11-13 14:9:03.5190,-3.02,5.84,2.66,7.09
2022-11-13 14:9:03.5190,-3.77,6.6,2.9,8.13
2022-11-13 14:9:03.5200,-4.38,7.25,2.86,8.94
2022-11-13 14:9:03.5400,-4.83,7.76,2.51,9.47
2022-11-13 14:9:03.5410,-5.17,8.07,1.9,9.77
2022-11-13 14:9:03.5490,-5.39,8.19,1.13,9.86
2022-11-13 14:9:03.5590,-5.42,8.23,0.39,9.86
2022-11-13 14:9:03.5690,-5.06,8.19,0.05,9.62
2022-11-13 14:9:03.5790,-4.26,7.77,0.4,8.87
2022-11-13 14:9:03.6170,-3.46,6.47,0.97,7.4
2022-11-13 14:9:03.6190,-2.81,4.08,1.63,5.21
2022-11-13 14:9:03.6190,-2.24,0.56,1.59,2.8
2022-11-13 14:9:03.6200,-1.44,-4.38,-1.45,4.83
2022-11-13 14:9:03.6400,0.21,-12.74,-8.75,15.45
2022-11-13 14:9:03.6410,4.36,-18.4,-8.19,20.6
2022-11-13 14:9:03.6500,9.32,-20.39,-8.71,24.05
2022-11-13 14:9:03.6590,11.89,-18.7,-9.05,23.93
2022-11-13 14:9:03.6690,12.33,-8.73,-5.57,16.1
2022-11-13 14:9:03.6790,11.03,0.01,-3.73,11.64
2022-11-13 14:9:03.7170,8.76,4.42,-3.04,10.27
2022-11-13 14:9:03.7190,5.03,5.06,3.75,8.06
2022-11-13 14:9:03.7200,0.41,3.56,8.02,8.78
2022-11-13 14:9:03.7210,-4.26,0.69,5.52,7.0
2022-11-13 14:9:03.7290,-7.09,-2.21,2.4,7.8
2022-11-13 14:9:03.7390,-9.03,-3.1,-0.52,9.56
2022-11-13 14:9:03.7490,-10.58,-3.2,-3.02,11.45
2022-11-13 14:9:03.7600,-11.11,-3.1,-2.85,11.88
2022-11-13 14:9:03.7690,-9.78,-2.32,0.38,10.05
2022-11-13 14:9:03.7800,-7.08,-0.63,2.41,7.5
2022-11-13 14:9:03.8180,-5.06,0.65,2.51,5.68
2022-11-13 14:9:03.8200,-4.15,1.14,2.41,4.93
2022-11-13 14:9:03.8210,-3.86,1.36,2.37,4.72
2022-11-13 14:9:03.8220,-3.89,1.72,2.18,4.77
2022-11-13 14:9:03.8300,-3.95,2.31,1.84,4.93
2022-11-13 14:9:03.8400,-3.94,2.9,1.43,5.09
2022-11-13 14:9:03.8500,-3.81,2.99,1.6,5.1
2022-11-13 14:9:03.8600,-3.33,2.6,2.59,4.95
2022-11-13 14:9:03.8700,-2.57,2.17,3.34,4.74
2022-11-13 14:9:03.8800,-1.72,1.81,3.83,4.57
2022-11-13 14:9:03.9190,-0.9,1.47,4.26,4.59
2022-11-13 14:9:03.9210,-0.29,0.94,4.53,4.63
2022-11-13 14:9:03.9210,0.04,0.56,3.75,3.79
2022-11-13 14:9:03.9220,-0.09,0.1,1.81,1.81
2022-11-13 14:9:03.9300,-0.23,-0.19,0.34,0.45
2022-11-13 14:9:03.9400,0.09,-0.19,-0.11,0.23
2022-11-13 14:9:03.9500,0.53,-0.33,-0.3,0.69
2022-11-13 14:9:03.9600,1.14,-0.59,-0.5,1.37
2022-11-13 14:9:03.9700,1.61,-0.67,-0.83,1.93
2022-11-13 14:9:03.9800,1.71,-0.68,-1.09,2.13
2022-11-13 14:9:04.0200,1.4,-0.48,-0.9,1.73
2022-11-13 14:9:04.0220,0.84,-0.16,-0.52,1.0
2022-11-13 14:9:04.0230,0.42,0.26,-0.51,0.71
2022-11-13 14:9:04.0410,0.04,0.69,-0.8,1.05
2022-11-13 14:9:04.0420,-0.45,1.02,-0.83,1.38
2022-11-13 14:9:04.0440,-0.79,1.31,-0.69,1.67
2022-11-13 14:9:04.0500,-0.86,1.54,-0.48,1.82
2022-11-13 14:9:04.0600,-0.9,1.47,-0.36,1.76
2022-11-13 14:9:04.0700,-0.77,0.96,-0.55,1.34
2022-11-13 14:9:04.0800,-0.29,0.3,-0.69,0.8
2022-11-13 14:9:04.1200,0.53,-0.04,-0.47,0.7
2022-11-13 14:9:04.1220,1.57,-0.08,-0.22,1.58
2022-11-13 14:9:04.1230,2.49,0.07,0.02,2.49
2022-11-13 14:9:04.1390,3.06,0.38,0.15,3.08
2022-11-13 14:9:04.1400,3.36,0.51,0.1,3.39
2022-11-13 14:9:04.1430,3.55,0.33,-0.07,3.56
2022-11-13 14:9:04.1500,3.62,0.02,-0.2,3.62
2022-11-13 14:9:04.1610,3.7,-0.16,-0.21,3.7
2022-11-13 14:9:04.1710,3.9,-0.19,-0.33,3.91
2022-11-13 14:9:04.1810,4.1,-0.06,-0.48,4.12
2022-11-13 14:9:04.2210,4.39,-0.05,-0.29,4.39
2022-11-13 14:9:04.2220,4.64,-0.5,0.13,4.66
2022-11-13 14:9:04.2230,4.4,-1.23,0.47,4.59
2022-11-13 14:9:04.2400,3.85,-1.9,0.74,4.35
2022-11-13 14:9:04.2410,3.51,-2.3,0.7,4.25
2022-11-13 14:9:04.2430,3.28,-2.58,0.2,4.17
2022-11-13 14:9:04.2510,2.52,-2.66,-0.21,3.67
2022-11-13 14:9:04.2610,1.75,-2.46,-0.13,3.02
2022-11-13 14:9:04.2710,1.58,-2.29,-0.17,2.78
2022-11-13 14:9:04.2810,1.62,-2.07,-0.28,2.64
2022-11-13 14:9:04.3220,2.05,-2.35,-0.56,3.16
2022-11-13 14:9:04.3230,2.31,-3.58,-0.9,4.35
2022-11-13 14:9:04.3240,1.83,-4.92,-1.23,5.39
2022-11-13 14:9:04.3400,1.03,-5.78,-1.43,6.04
2022-11-13 14:9:04.3400,0.48,-5.89,-1.79,6.17
2022-11-13 14:9:04.3410,0.01,-5.43,-2.68,6.05
2022-11-13 14:9:04.3510,-0.7,-4.62,-3.8,6.02
2022-11-13 14:9:04.3610,-1.16,-3.83,-4.46,5.99
2022-11-13 14:9:04.3710,-1.25,-3.29,-4.26,5.52
2022-11-13 14:9:04.3810,-1.4,-3.1,-3.63,4.97
2022-11-13 14:9:04.4220,-1.84,-3.38,-2.87,4.8
2022-11-13 14:9:04.4240,-2.31,-3.62,-1.65,4.6
2022-11-13 14:9:04.4240,-2.62,-3.59,0.26,4.45
2022-11-13 14:9:04.4390,-3.24,-3.74,1.88,5.29
2022-11-13 14:9:04.4400,-4.23,-4.3,2.38,6.48
2022-11-13 14:9:04.4410,-5.28,-4.78,2.3,7.48
2022-11-13 14:9:04.4520,-6.49,-4.89,2.11,8.39
2022-11-13 14:9:04.4610,-7.55,-4.55,1.86,9.0
2022-11-13 14:9:04.4720,-8.28,-3.93,1.85,9.35
2022-11-13 14:9:04.4820,-8.43,-2.72,1.79,9.03
2022-11-13 14:9:04.5220,-7.36,-0.68,0.76,7.43
2022-11-13 14:9:04.5230,-4.97,1.17,-0.62,5.14
2022-11-13 14:9:04.5240,-2.15,2.15,-1.4,3.34
2022-11-13 14:9:04.5390,0.01,2.42,-0.53,2.47
2022-11-13 14:9:04.5400,1.41,2.42,2.26,3.59
2022-11-13 14:9:04.5410,2.29,3.2,4.95,6.32
2022-11-13 14:9:04.5520,2.19,4.59,5.05,7.16
2022-11-13 14:9:04.5620,0.42,4.99,3.2,5.94
2022-11-13 14:9:04.5720,-2.07,4.49,1.45,5.15
2022-11-13 14:9:04.5820,-3.95,4.22,0.66,5.81
2022-11-13 14:9:04.6220,-5.01,4.5,0.59,6.76
2022-11-13 14:9:04.6240,-5.28,5.34,1.1,7.58
2022-11-13 14:9:04.6250,-5.01,6.49,1.98,8.43
2022-11-13 14:9:04.6400,-4.75,7.65,2.44,9.32
2022-11-13 14:9:04.6400,-4.67,8.6,2.24,10.03
2022-11-13 14:9:04.6420,-4.65,9.29,1.64,10.51
2022-11-13 14:9:04.6520,-4.6,9.66,1.02,10.74
2022-11-13 14:9:04.6620,-4.45,9.66,0.56,10.65
2022-11-13 14:9:04.6720,-3.96,9.38,0.44,10.19
2022-11-13 14:9:04.6820,-3.43,8.73,0.58,9.39
2022-11-13 14:9:04.7230,-3.29,7.23,0.66,7.97
2022-11-13 14:9:04.7250,-3.12,4.45,1.2,5.56
2022-11-13 14:9:04.7260,-2.92,0.81,1.07,3.21
2022-11-13 14:9:04.7390,-2.7,-3.86,-1.72,5.01
2022-11-13 14:9:04.7400,-2.04,-9.56,-7.18,12.12
2022-11-13 14:9:04.7420,-0.41,-14.31,-10.76,17.9
2022-11-13 14:9:04.7530,2.02,-15.24,-8.67,17.64
2022-11-13 14:9:04.7620,4.09,-10.9,-3.04,12.03
2022-11-13 14:9:04.7720,4.91,-3.33,2.34,6.37
2022-11-13 14:9:04.7820,4.15,1.68,4.67,6.46
2022-11-13 14:9:04.8230,2.7,4.03,3.38,5.91
2022-11-13 14:9:04.8240,1.51,5.03,2.29,5.72
2022-11-13 14:9:04.8250,0.77,5.47,1.38,5.69
2022-11-13 14:9:04.8390,0.42,5.44,0.91,5.53
2022-11-13 14:9:04.8400,0.47,4.96,0.63,5.02
2022-11-13 14:9:04.8420,0.73,3.86,0.13,3.93
2022-11-13 14:9:04.8530,0.69,1.82,-0.83,2.11
2022-11-13 14:9:04.8630,0.1,-0.81,-2.18,2.32
2022-11-13 14:9:04.8730,-1.07,-3.77,-3.74,5.41
2022-11-13 14:9:04.8830,-3.12,-7.15,-4.43,8.97
2022-11-13 14:9:04.9240,-5.4,-10.57,-5.32,13.0
2022-11-13 14:9:04.9260,-7.26,-13.71,-6.81,16.94
2022-11-13 14:9:04.9270,-8.67,-15.33,-5.82,18.54
2022-11-13 14:9:04.9390,-9.02,-12.7,-2.9,15.84
2022-11-13 14:9:04.9400,-8.3,-5.56,-0.51,10.0
2022-11-13 14:9:04.9430,-7.32,-0.49,0.85,7.38
2022-11-13 14:9:04.9530,-6.41,2.18,1.59,6.95
2022-11-13 14:9:04.9630,-6.0,3.92,1.59,7.34
2022-11-13 14:9:04.9730,-5.92,5.32,1.54,8.1
2022-11-13 14:9:04.9830,-6.15,6.59,1.87,9.2
2022-11-13 14:9:05.0240,-6.59,7.37,2.57,10.21
2022-11-13 14:9:05.0260,-7.65,7.16,3.57,11.06
2022-11-13 14:9:05.0270,-9.9,5.55,4.12,12.07
2022-11-13 14:9:05.0400,-12.24,2.91,4.17,13.25
2022-11-13 14:9:05.0400,-12.87,0.65,4.74,13.73
2022-11-13 14:9:05.0430,-11.31,-0.78,5.88,12.77
2022-11-13 14:9:05.0530,-9.12,-1.17,5.73,10.83
2022-11-13 14:9:05.0630,-7.69,-0.94,4.4,8.9
2022-11-13 14:9:05.0730,-6.44,-0.69,3.13,7.19
2022-11-13 14:9:05.0830,-5.27,-0.47,2.09,5.68
2022-11-13 14:9:05.1250,-4.41,-0.13,0.77,4.47
2022-11-13 14:9:05.1270,-3.97,0.25,-0.34,3.99
2022-11-13 14:9:05.1280,-3.83,0.54,-0.55,3.9
2022-11-13 14:9:05.1280,-3.61,0.79,0.23,3.7
2022-11-13 14:9:05.1330,-3.16,0.99,1.73,3.73
2022-11-13 14:9:05.1430,-2.57,1.0,3.8,4.69
2022-11-13 14:9:05.1530,-2.01,0.69,5.61,5.99
2022-11-13 14:9:05.1640,-1.66,0.42,6.51,6.73
2022-11-13 14:9:05.1740,-1.27,0.19,7.4,7.51
2022-11-13 14:9:05.1840,-0.67,-0.18,8.38,8.4
2022-11-13 14:9:05.2250,0.11,-0.52,9.22,9.23
2022-11-13 14:9:05.2270,1.0,-0.72,9.68,9.75
2022-11-13 14:9:05.2280,1.75,-0.68,9.45,9.63
2022-11-13 14:9:05.2290,2.38,-0.43,8.96,9.28
2022-11-13 14:9:05.2340,2.96,0.01,8.24,8.75
2022-11-13 14:9:05.2440,3.31,0.57,6.87,7.64
2022-11-13 14:9:05.2540,3.47,1.08,5.21,6.35
2022-11-13 14:9:05.2640,3.63,1.35,3.94,5.52
2022-11-13 14:9:05.2740,3.88,1.25,3.22,5.19
2022-11-13 14:9:05.2840,4.37,0.77,3.06,5.39
2022-11-13 14:9:05.3260,4.96,0.04,3.02,5.8
2022-11-13 14:9:05.3260,5.57,-0.86,2.63,6.21
2022-11-13 14:9:05.3290,6.19,-1.85,1.53,6.63
2022-11-13 14:9:05.3310,6.58,-2.89,0.07,7.18
2022-11-13 14:9:05.3340,6.67,-3.73,-1.57,7.8
2022-11-13 14:9:05.3440,6.62,-4.04,-3.17,8.37
2022-11-13 14:9:05.3540,6.48,-3.61,-4.26,8.55
2022-11-13 14:9:05.3640,5.89,-2.67,-4.05,7.63
2022-11-13 14:9:05.3740,5.16,-1.93,-3.27,6.4
2022-11-13 14:9:05.3840,4.91,-1.4,-2.63,5.74
2022-11-13 14:9:05.4260,4.92,-1.07,-2.44,5.59
2022-11-13 14:9:05.4270,4.82,-1.28,-3.0,5.81
2022-11-13 14:9:05.4290,4.35,-2.05,-3.6,6.0
2022-11-13 14:9:05.4320,3.6,-2.62,-3.51,5.66
2022-11-13 14:9:05.4340,3.0,-2.38,-3.08,4.91
2022-11-13 14:9:05.4440,2.47,-1.49,-2.75,3.98
2022-11-13 14:9:05.4540,1.76,-0.24,-2.74,3.26
2022-11-13 14:9:05.4640,0.94,1.04,-2.63,2.98
2022-11-13 14:9:05.4750,0.17,2.02,-2.25,3.02
2022-11-13 14:9:05.4840,-0.64,2.7,-1.72,3.26
2022-11-13 14:9:05.5270,-1.19,3.13,-0.92,3.47
2022-11-13 14:9:05.5280,-1.11,3.1,0.08,3.29
2022-11-13 14:9:05.5300,-0.26,2.57,0.84,2.71
2022-11-13 14:9:05.5320,0.7,1.8,1.0,2.17
2022-11-13 14:9:05.5350,1.07,0.7,0.97,1.6
2022-11-13 14:9:05.5450,0.94,-0.7,0.91,1.48
2022-11-13 14:9:05.5550,0.48,-2.18,0.42,2.27
2022-11-13 14:9:05.5650,-0.7,-4.17,-3.3,5.36
2022-11-13 14:9:05.5750,-2.69,-6.61,-7.19,10.13
2022-11-13 14:9:05.5850,-4.12,-7.5,-6.54,10.77
2022-11-13 14:9:05.6270,-4.92,-7.12,-4.96,9.97
2022-11-13 14:9:05.6280,-5.16,-6.09,-2.86,8.47
2022-11-13 14:9:05.6300,-5.04,-4.79,-1.12,7.04
2022-11-13 14:9:05.6330,-4.93,-3.66,-0.11,6.14
2022-11-13 14:9:05.6350,-4.83,-2.35,0.33,5.38
2022-11-13 14:9:05.6450,-5.11,-1.41,0.59,5.33
2022-11-13 14:9:05.6550,-5.7,-0.75,0.23,5.75
2022-11-13 14:9:05.6650,-6.3,-0.22,-0.16,6.3
2022-11-13 14:9:05.6750,-6.62,0.19,-0.09,6.62
2022-11-13 14:9:05.6850,-6.36,0.71,0.61,6.42
2022-11-13 14:9:05.7280,-5.68,1.19,1.69,6.04
2022-11-13 14:9:05.7290,-4.35,1.79,2.94,5.54
2022-11-13 14:9:05.7320,-2.49,2.28,3.86,5.12
2022-11-13 14:9:05.7340,-0.56,2.18,3.86,4.46
2022-11-13 14:9:05.7360,1.07,1.48,2.5,3.09
2022-11-13 14:9:05.7450,2.36,0.54,0.73,2.52
2022-11-13 14:9:05.7550,3.6,-0.29,0.44,3.63
2022-11-13 14:9:05.7650,4.53,-0.65,1.36,4.77
2022-11-13 14:9:05.7750,5.01,-0.5,2.2,5.49
2022-11-13 14:9:05.7850,5.11,0.22,2.53,5.7
2022-11-13 14:9:05.8290,4.55,1.0,2.42,5.24
2022-11-13 14:9:05.8300,3.23,1.17,2.15,4.05
2022-11-13 14:9:05.8320,1.68,0.9,1.69,2.54
2022-11-13 14:9:05.8340,0.56,0.73,1.25,1.55
2022-11-13 14:9:05.8370,-0.1,0.89,1.29,1.57
2022-11-13 14:9:05.8460,-0.45,1.31,1.46,2.01
2022-11-13 14:9:05.8560,-0.54,1.92,1.44,2.46
2022-11-13 14:9:05.8660,-0.34,2.7,1.11,2.93
2022-11-13 14:9:05.8760,-0.02,3.53,0.72,3.6
2022-11-13 14:9:05.8860,0.1,4.27,0.4,4.28
2022-11-13 14:9:05.9300,0.13,4.82,0.13,4.82
2022-11-13 14:9:05.9310,0.14,5.01,-0.06,5.01
2022-11-13 14:9:05.9330,0.19,4.8,-0.25,4.81
2022-11-13 14:9:05.9350,0.28,4.29,-0.4,4.31
2022-11-13 14:9:05.9370,0.24,3.63,-0.57,3.68
2022-11-13 14:9:05.9460,0.15,3.0,-0.81,3.11
2022-11-13 14:9:05.9560,0.22,2.55,-0.93,2.72
2022-11-13 14:9:05.9660,0.47,2.12,-0.96,2.37
2022-11-13 14:9:05.9760,0.75,1.67,-1.07,2.12
2022-11-13 14:9:05.9860,1.03,1.34,-1.41,2.2
2022-11-13 14:9:06.0300,1.33,1.15,-1.87,2.56
2022-11-13 14:9:06.0310,1.65,0.9,-2.21,2.9
2022-11-13 14:9:06.0330,1.99,0.41,-2.62,3.31
2022-11-13 14:9:06.0360,2.33,-0.25,-3.09,3.87
2022-11-13 14:9:06.0360,2.81,-1.05,-3.09,4.3
2022-11-13 14:9:06.0460,3.18,-1.86,-3.01,4.75
2022-11-13 14:9:06.0560,3.34,-2.54,-3.03,5.17
2022-11-13 14:9:06.0660,3.36,-2.91,-3.11,5.42
2022-11-13 14:9:06.0760,3.28,-2.8,-3.27,5.41
2022-11-13 14:9:06.0860,3.25,-2.24,-3.26,5.11
2022-11-13 14:9:06.1310,3.13,-1.41,-3.19,4.68
2022-11-13 14:9:06.1320,2.92,-0.46,-3.15,4.31
2022-11-13 14:9:06.1340,2.65,-0.08,-3.08,4.06
2022-11-13 14:9:06.1360,2.01,-0.79,-2.4,3.22
2022-11-13 14:9:06.1370,0.28,-1.84,-1.74,2.54
2022-11-13 14:9:06.1460,-2.83,-2.5,-0.45,3.8
2022-11-13 14:9:06.1560,-5.14,-2.43,-0.36,5.69
2022-11-13 14:9:06.1660,-6.66,-1.54,-1.99,7.11
2022-11-13 14:9:06.1760,-7.22,0.02,-2.49,7.63
2022-11-13 14:9:06.1860,-6.23,1.84,-0.49,6.51
2022-11-13 14:9:06.2310,-4.49,3.44,1.33,5.81
2022-11-13 14:9:06.2320,-3.34,4.09,2.25,5.73
2022-11-13 14:9:06.2340,-3.26,3.51,2.52,5.41
2022-11-13 14:9:06.2370,-3.84,2.18,1.81,4.77
2022-11-13 14:9:06.2380,-4.55,0.43,0.8,4.63
2022-11-13 14:9:06.2560,-4.64,-1.19,1.0,4.89
2022-11-13 14:9:06.2570,-3.95,-1.75,2.2,4.84
2022-11-13 14:9:06.2670,-2.99,-1.42,3.5,4.81
2022-11-13 14:9:06.2770,-1.95,-0.77,4.61,5.06
2022-11-13 14:9:06.2870,-1.03,-0.26,5.2,5.3
2022-11-13 14:9:06.3320,-0.25,-0.24,5.19,5.2
2022-11-13 14:9:06.3330,0.68,-0.55,4.61,4.69
2022-11-13 14:9:06.3350,1.77,-0.87,3.69,4.18
2022-11-13 14:9:06.3370,2.59,-1.15,2.78,3.96
2022-11-13 14:9:06.3380,3.09,-1.31,2.02,3.91
2022-11-13 14:9:06.3560,3.4,-1.19,1.25,3.81
2022-11-13 14:9:06.3570,3.62,-0.88,0.34,3.74
2022-11-13 14:9:06.3670,3.7,-0.51,-0.33,3.74
2022-11-13 14:9:06.3770,3.53,-0.28,-0.7,3.6
2022-11-13 14:9:06.3870,3.2,-0.17,-0.86,3.31
2022-11-13 14:9:06.4320,3.04,-0.18,-0.76,3.13
2022-11-13 14:9:06.4330,2.54,-0.32,-0.83,2.69
2022-11-13 14:9:06.4350,1.32,-0.34,-0.94,1.65
2022-11-13 14:9:06.4360,0.35,-0.05,-0.78,0.85
2022-11-13 14:9:06.4390,0.18,0.28,-0.41,0.52
2022-11-13 14:9:06.4470,0.44,0.49,-0.05,0.66
2022-11-13 14:9:06.4570,0.68,0.6,0.09,0.91
2022-11-13 14:9:06.4670,0.75,0.71,0.08,1.03
2022-11-13 14:9:06.4770,0.83,1.07,0.21,1.37
2022-11-13 14:9:06.4880,0.99,1.51,0.71,1.94
2022-11-13 14:9:06.5330,1.12,1.83,1.21,2.46
2022-11-13 14:9:06.5340,1.33,1.97,1.17,2.64
2022-11-13 14:9:06.5360,1.82,1.59,0.79,2.54
2022-11-13 14:9:06.5370,2.23,0.78,0.02,2.36
2022-11-13 14:9:06.5560,2.47,-0.03,-0.66,2.55
2022-11-13 14:9:06.5570,2.43,-0.78,-1.03,2.75
2022-11-13 14:9:06.5600,2.11,-1.4,-1.21,2.8
2022-11-13 14:9:06.5670,1.74,-1.79,-1.34,2.83
2022-11-13 14:9:06.5780,1.37,-1.95,-1.37,2.74
2022-11-13 14:9:06.5880,1.08,-1.75,-1.31,2.43
2022-11-13 14:9:06.6330,1.0,-1.24,-1.45,2.15
2022-11-13 14:9:06.6340,1.03,-0.63,-1.77,2.14
2022-11-13 14:9:06.6360,1.07,-0.32,-1.88,2.18
2022-11-13 14:9:06.6370,1.23,-0.51,-1.8,2.23
2022-11-13 14:9:06.6560,1.54,-1.0,-1.24,2.21
2022-11-13 14:9:06.6570,1.98,-1.61,-0.4,2.58
2022-11-13 14:9:06.6600,2.7,-2.15,0.35,3.46
2022-11-13 14:9:06.6680,3.77,-2.55,0.93,4.64
2022-11-13 14:9:06.6780,4.96,-2.75,1.0,5.75
2022-11-13 14:9:06.6880,6.03,-2.63,0.36,6.58
2022-11-13 14:9:06.7340,6.71,-2.35,0.11,7.11
2022-11-13 14:9:06.7350,6.85,-2.16,0.6,7.2
2022-11-13 14:9:06.7380,6.43,-2.04,1.07,6.83
2022-11-13 14:9:06.7400,5.67,-2.17,1.4,6.23
2022-11-13 14:9:06.7420,4.74,-2.58,1.61,5.63
2022-11-13 14:9:06.7480,3.71,-3.23,1.6,5.17
2022-11-13 14:9:06.7580,2.71,-3.83,0.94,4.78
2022-11-13 14:9:06.7680,1.64,-4.36,-0.3,4.66
2022-11-13 14:9:06.7780,0.64,-5.06,-1.51,5.31
2022-11-13 14:9:06.7880,-0.16,-5.61,-2.6,6.18
2022-11-13 14:9:06.8350,-0.88,-5.55,-3.61,6.67
2022-11-13 14:9:06.8350,-1.27,-4.63,-4.01,6.25
2022-11-13 14:9:06.8380,-1.26,-3.39,-3.83,5.26
2022-11-13 14:9:06.8400,-0.82,-2.15,-2.9,3.7
2022-11-13 14:9:06.8420,-0.53,-1.47,-1.77,2.36
2022-11-13 14:9:06.8480,-0.83,-1.64,-0.94,2.06
2022-11-13 14:9:06.8580,-1.19,-2.25,-0.11,2.54
2022-11-13 14:9:06.8680,-1.45,-2.84,0.71,3.26
2022-11-13 14:9:06.8790,-1.8,-2.97,1.22,3.68
2022-11-13 14:9:06.8890,-2.23,-2.89,1.34,3.88
2022-11-13 14:9:06.9350,-2.84,-2.84,1.2,4.19
2022-11-13 14:9:06.9360,-3.37,-2.88,1.27,4.61
2022-11-13 14:9:06.9370,-3.99,-2.68,1.27,4.97
2022-11-13 14:9:06.9390,-4.7,-2.16,1.19,5.3
2022-11-13 14:9:06.9410,-5.16,-1.71,1.51,5.64
2022-11-13 14:9:06.9490,-4.94,-1.28,0.77,5.16
2022-11-13 14:9:06.9590,-3.7,-0.62,-0.41,3.77
2022-11-13 14:9:06.9690,-1.72,-0.01,-0.12,1.72
2022-11-13 14:9:06.9790,0.04,0.42,1.62,1.67
2022-11-13 14:9:06.9890,1.18,0.75,3.68,3.93
2022-11-13 14:9:07.0360,1.69,1.22,4.96,5.38
2022-11-13 14:9:07.0370,1.51,1.87,5.12,5.65
2022-11-13 14:9:07.0390,0.86,2.63,4.75,5.49
2022-11-13 14:9:07.0420,-0.05,3.19,4.18,5.25
2022-11-13 14:9:07.0440,-1.1,3.51,3.55,5.11
2022-11-13 14:9:07.0490,-2.05,3.83,3.14,5.36
2022-11-13 14:9:07.0590,-3.0,4.27,2.84,5.94
2022-11-13 14:9:07.0690,-3.95,4.81,2.62,6.75
2022-11-13 14:9:07.0790,-4.82,5.48,2.4,7.68
2022-11-13 14:9:07.0890,-5.42,6.24,2.06,8.51
2022-11-13 14:9:07.1370,-5.65,7.01,1.44,9.11
2022-11-13 14:9:07.1370,-5.53,7.51,0.85,9.36
2022-11-13 14:9:07.1400,-5.23,7.6,0.31,9.23
2022-11-13 14:9:07.1420,-4.84,7.47,-0.04,8.9
2022-11-13 14:9:07.1440,-4.34,7.21,0.02,8.41
2022-11-13 14:9:07.1490,-3.56,6.77,0.19,7.65
2022-11-13 14:9:07.1590,-2.49,6.04,0.44,6.54
2022-11-13 14:9:07.1690,-1.44,4.93,0.84,5.2
2022-11-13 14:9:07.1790,-0.39,3.26,1.12,3.46
2022-11-13 14:9:07.1890,0.74,0.77,0.69,1.27
2022-11-13 14:9:07.2370,1.83,-2.88,-1.13,3.59
2022-11-13 14:9:07.2380,3.02,-7.6,-4.26,9.22
2022-11-13 14:9:07.2410,4.85,-12.17,-6.56,14.65
2022-11-13 14:9:07.2430,7.56,-14.92,-5.62,17.64
2022-11-13 14:9:07.2450,10.17,-15.12,-3.96,18.64
2022-11-13 14:9:07.2490,11.46,-11.38,-3.15,16.45
2022-11-13 14:9:07.2600,10.71,-3.64,-1.57,11.42
2022-11-13 14:9:07.2690,6.89,1.17,-1.31,7.11
2022-11-13 14:9:07.2800,2.26,2.39,-2.93,4.4
2022-11-13 14:9:07.2900,0.3,2.64,-2.53,3.66
2022-11-13 14:9:07.3380,-0.54,3.23,1.9,3.78
2022-11-13 14:9:07.3390,-1.97,3.88,5.21,6.78
2022-11-13 14:9:07.3410,-3.93,3.5,5.02,7.27
2022-11-13 14:9:07.3440,-5.46,1.07,3.53,6.58
2022-11-13 14:9:07.3460,-6.91,-2.06,0.18,7.21
2022-11-13 14:9:07.3500,-9.14,-5.73,-4.96,11.87
2022-11-13 14:9:07.3600,-10.77,-8.6,-4.95,14.64
2022-11-13 14:9:07.3700,-10.34,-7.72,0.16,12.9
2022-11-13 14:9:07.3800,-7.78,-3.49,2.14,8.79
2022-11-13 14:9:07.3900,-4.89,0.31,1.9,5.25
2022-11-13 14:9:07.4390,-3.87,2.15,1.75,4.76
2022-11-13 14:9:07.4390,-3.8,3.06,1.97,5.26
2022-11-13 14:9:07.4420,-4.12,3.27,2.26,5.72
2022-11-13 14:9:07.4440,-4.23,3.37,2.38,5.9
2022-11-13 14:9:07.4460,-4.1,3.48,2.28,5.84
2022-11-13 14:9:07.4500,-4.02,3.4,1.97,5.62
2022-11-13 14:9:07.4600,-3.84,2.93,2.0,5.22
2022-11-13 14:9:07.4700,-3.45,1.98,2.53,4.71
2022-11-13 14:9:07.4800,-3.04,1.32,3.31,4.68
2022-11-13 14:9:07.4900,-2.42,0.69,4.25,4.93
2022-11-13 14:9:07.5390,-1.69,0.23,5.55,5.8
2022-11-13 14:9:07.5400,-1.08,-0.06,5.85,5.94
2022-11-13 14:9:07.5420,-0.55,-0.2,4.98,5.01
2022-11-13 14:9:07.5440,0.1,-0.28,3.34,3.35
2022-11-13 14:9:07.5460,0.93,-0.2,0.78,1.23
2022-11-13 14:9:07.5500,1.61,-0.3,-1.35,2.12
2022-11-13 14:9:07.5610,1.78,-0.71,-1.92,2.71
2022-11-13 14:9:07.5700,1.67,-1.11,-1.28,2.37
2022-11-13 14:9:07.5810,1.6,-1.18,-0.91,2.18
2022-11-13 14:9:07.5910,1.46,-0.73,-0.85,1.84
2022-11-13 14:9:07.6400,1.2,0.02,-0.78,1.43
2022-11-13 14:9:07.6410,1.08,0.76,-0.6,1.45
2022-11-13 14:9:07.6430,1.35,1.42,-0.3,1.98
2022-11-13 14:9:07.6450,1.94,1.74,-0.19,2.61
2022-11-13 14:9:07.6470,2.51,1.52,-0.32,2.95
2022-11-13 14:9:07.6500,2.79,1.01,-0.2,2.97
2022-11-13 14:9:07.6610,2.69,0.5,0.19,2.74
2022-11-13 14:9:07.6710,2.25,0.02,0.41,2.28
2022-11-13 14:9:07.6810,2.08,-0.36,0.48,2.16
2022-11-13 14:9:07.6910,2.24,-0.5,0.47,2.34
2022-11-13 14:9:07.7400,2.57,-0.2,0.41,2.61
2022-11-13 14:9:07.7410,2.77,0.22,0.33,2.79
2022-11-13 14:9:07.7430,2.89,0.39,-0.06,2.91
2022-11-13 14:9:07.7450,2.77,0.2,-0.45,2.81
2022-11-13 14:9:07.7470,2.47,0.02,-0.82,2.6
2022-11-13 14:9:07.7510,2.13,0.03,-1.01,2.35
2022-11-13 14:9:07.7610,1.87,0.05,-1.0,2.12
2022-11-13 14:9:07.7710,1.64,-0.17,-1.31,2.1
2022-11-13 14:9:07.7810,1.32,-0.56,-1.67,2.2
2022-11-13 14:9:07.7910,1.49,-0.96,-1.04,2.05
2022-11-13 14:9:07.8410,2.48,-1.56,0.1,2.93
2022-11-13 14:9:07.8420,3.55,-2.16,0.99,4.27
2022-11-13 14:9:07.8440,4.29,-2.43,1.26,5.08
2022-11-13 14:9:07.8460,5.01,-2.41,1.23,5.69
2022-11-13 14:9:07.8480,5.7,-2.24,1.28,6.25
2022-11-13 14:9:07.8510,5.91,-2.23,1.36,6.46
2022-11-13 14:9:07.8610,5.47,-2.69,1.38,6.24
2022-11-13 14:9:07.8710,4.51,-3.65,1.29,5.94
2022-11-13 14:9:07.8810,3.44,-4.71,1.14,5.94
2022-11-13 14:9:07.8910,2.48,-5.43,0.57,5.99
2022-11-13 14:9:07.9420,1.19,-5.82,-0.48,5.95
2022-11-13 14:9:07.9420,-0.07,-5.94,-1.82,6.21
2022-11-13 14:9:07.9450,-0.44,-6.17,-2.74,6.76
2022-11-13 14:9:07.9470,-0.39,-6.16,-3.11,6.91
2022-11-13 14:9:07.9490,-0.07,-5.14,-3.46,6.19
2022-11-13 14:9:07.9510,0.66,-3.45,-3.84,5.2
2022-11-13 14:9:07.9620,1.03,-2.18,-3.36,4.13
2022-11-13 14:9:07.9720,0.94,-1.55,-2.41,3.01
2022-11-13 14:9:07.9820,0.63,-1.12,-1.77,2.18
2022-11-13 14:9:07.9920,-0.2,-1.17,-1.52,1.92
2022-11-13 14:9:08.0430,-1.54,-2.09,-1.14,2.83
2022-11-13 14:9:08.0430,-2.3,-2.89,-0.38,3.71
2022-11-13 14:9:08.0460,-2.19,-2.85,0.56,3.63
2022-11-13 14:9:08.0480,-2.31,-2.77,0.82,3.69
2022-11-13 14:9:08.0500,-2.96,-3.1,0.85,4.36
2022-11-13 14:9:08.0530,-4.03,-3.73,0.84,5.55
2022-11-13 14:9:08.0620,-4.91,-3.89,0.82,6.31
2022-11-13 14:9:08.0720,-5.46,-3.61,0.84,6.59
2022-11-13 14:9:08.0820,-5.83,-3.25,1.0,6.74
2022-11-13 14:9:08.0920,-5.33,-2.21,0.81,5.82
2022-11-13 14:9:08.1420,-2.99,-0.73,1.38,3.37
2022-11-13 14:9:08.1430,-0.55,0.15,2.68,2.73
2022-11-13 14:9:08.1450,0.45,0.49,3.09,3.16
2022-11-13 14:9:08.1480,2.1,0.75,3.01,3.74
2022-11-13 14:9:08.1500,3.44,0.9,2.66,4.44
2022-11-13 14:9:08.1520,3.52,1.43,2.5,4.54
2022-11-13 14:9:08.1620,2.4,2.62,2.53,4.36
2022-11-13 14:9:08.1720,0.46,3.43,2.23,4.11
2022-11-13 14:9:08.1820,-1.28,3.63,2.24,4.45
2022-11-13 14:9:08.1920,-2.53,3.87,2.7,5.35
2022-11-13 14:9:08.2440,-3.48,4.32,3.22,6.41
2022-11-13 14:9:08.2440,-4.12,5.02,3.5,7.37
2022-11-13 14:9:08.2470,-4.44,5.88,3.49,8.15
2022-11-13 14:9:08.2490,-4.44,6.75,3.29,8.72
2022-11-13 14:9:08.2510,-4.28,7.46,2.76,9.03
2022-11-13 14:9:08.2530,-4.14,7.84,1.96,9.08
2022-11-13 14:9:08.2620,-4.11,7.84,1.13,8.92
2022-11-13 14:9:08.2730,-4.06,7.43,0.57,8.48
2022-11-13 14:9:08.2830,-3.81,6.78,0.52,7.79
2022-11-13 14:9:08.2930,-3.34,6.06,1.13,7.01
2022-11-13 14:9:08.3440,-2.74,5.43,2.12,6.44
2022-11-13 14:9:08.3450,-2.07,4.82,2.95,6.01
2022-11-13 14:9:08.3470,-1.49,3.87,3.24,5.26
2022-11-13 14:9:08.3500,-1.02,2.43,2.25,3.46
2022-11-13 14:9:08.3520,-0.43,0.47,-0.18,0.66
2022-11-13 14:9:08.3530,0.58,-2.45,-4.39,5.06
2022-11-13 14:9:08.3630,1.97,-7.08,-10.78,13.04
2022-11-13 14:9:08.3730,3.78,-12.32,-13.47,18.64
2022-11-13 14:9:08.3830,6.27,-15.35,-9.55,19.13
2022-11-13 14:9:08.3930,8.48,-15.36,-3.8,17.95
2022-11-13 14:9:08.4380,9.84,-10.52,-0.41,14.41
2022-11-13 14:9:08.4390,9.43,-3.81,-0.8,10.2
2022-11-13 14:9:08.4410,7.03,-0.1,-2.81,7.57
2022-11-13 14:9:08.4440,4.23,1.36,-3.05,5.38
2022-11-13 14:9:08.4460,1.78,1.95,-1.63,3.1
2022-11-13 14:9:08.4530,-0.28,2.43,-0.84,2.58
2022-11-13 14:9:08.4630,-2.02,2.85,-1.5,3.8
2022-11-13 14:9:08.4730,-2.02,3.3,-0.72,3.93
2022-11-13 14:9:08.4830,-1.57,4.48,2.06,5.17
2022-11-13 14:9:08.4930,-2.8,5.05,2.64,6.34
2022-11-13 14:9:08.5400,-4.34,3.66,1.4,5.84
2022-11-13 14:9:08.5400,-5.96,0.37,-1.47,6.14
2022-11-13 14:9:08.5430,-8.54,-4.65,-5.38,11.11
2022-11-13 14:9:08.5450,-10.65,-10.67,-3.45,15.46
2022-11-13 14:9:08.5470,-10.15,-13.36,7.98,18.57
2022-11-13 14:9:08.5530,-9.0,-9.42,7.04,14.8
2022-11-13 14:9:08.5630,-5.7,-2.69,2.92,6.94
2022-11-13 14:9:08.5730,-4.35,0.73,2.98,5.32
2022-11-13 14:9:08.5830,-4.39,2.51,3.05,5.9
2022-11-13 14:9:08.5940,-4.77,3.6,2.64,6.53
2022-11-13 14:9:08.6400,-5.28,4.06,2.5,7.11
2022-11-13 14:9:08.6410,-5.66,4.13,2.63,7.48
2022-11-13 14:9:08.6430,-5.48,4.0,2.88,7.37
2022-11-13 14:9:08.6450,-5.03,3.67,3.26,7.02
2022-11-13 14:9:08.6470,-4.52,3.14,3.75,6.65
2022-11-13 14:9:08.6540,-4.07,2.23,4.09,6.18
2022-11-13 14:9:08.6640,-3.63,1.06,4.36,5.77
2022-11-13 14:9:08.6740,-3.13,-0.02,4.62,5.58
2022-11-13 14:9:08.6840,-2.6,-0.87,4.9,5.61
2022-11-13 14:9:08.6940,-1.95,-1.47,5.22,5.76
2022-11-13 14:9:08.7400,-1.34,-1.87,4.71,5.24
2022-11-13 14:9:08.7420,-0.64,-2.07,3.17,3.83
2022-11-13 14:9:08.7430,0.17,-2.0,0.98,2.23
2022-11-13 14:9:08.7440,0.88,-1.63,-0.81,2.02
2022-11-13 14:9:08.7440,1.23,-1.03,-1.49,2.18
2022-11-13 14:9:08.7540,1.23,-0.41,-0.95,1.6
2022-11-13 14:9:08.7640,1.33,0.09,-0.03,1.33
2022-11-13 14:9:08.7740,1.66,0.54,0.5,1.81
2022-11-13 14:9:08.7840,1.98,0.92,0.45,2.22
2022-11-13 14:9:08.7940,2.27,1.07,0.12,2.51
2022-11-13 14:9:08.8410,2.59,1.08,-0.08,2.8
2022-11-13 14:9:08.8430,2.96,1.07,-0.15,3.15
2022-11-13 14:9:08.8430,3.4,1.1,-0.05,3.57
2022-11-13 14:9:08.8460,3.63,0.93,0.36,3.76
2022-11-13 14:9:08.8480,3.54,0.66,0.63,3.65
2022-11-13 14:9:08.8540,3.29,0.4,0.28,3.32
2022-11-13 14:9:08.8640,2.96,0.13,-0.3,2.97
2022-11-13 14:9:08.8740,2.78,0.0,-0.6,2.84
2022-11-13 14:9:08.8840,2.75,0.04,-0.59,2.81
2022-11-13 14:9:08.8940,2.61,0.04,-0.43,2.64
2022-11-13 14:9:08.9400,2.35,0.06,-0.43,2.38
2022-11-13 14:9:08.9420,2.16,0.2,-0.77,2.3
2022-11-13 14:9:08.9430,1.96,0.43,-0.92,2.2
2022-11-13 14:9:08.9440,1.49,0.54,-0.56,1.68
2022-11-13 14:9:08.9440,0.99,0.58,-0.04,1.14
2022-11-13 14:9:08.9550,0.65,0.72,0.11,0.97
2022-11-13 14:9:08.9650,0.53,1.05,-0.46,1.26
2022-11-13 14:9:08.9750,0.55,1.19,-0.91,1.59
2022-11-13 14:9:08.9850,0.66,0.75,-0.95,1.37
2022-11-13 14:9:08.9950,0.72,-0.1,-0.75,1.04
2022-11-13 14:9:09.0410,0.76,-0.78,-0.1,1.09
2022-11-13 14:9:09.0420,0.68,-1.08,0.59,1.4
2022-11-13 14:9:09.0430,0.54,-0.92,0.75,1.3
2022-11-13 14:9:09.0440,0.5,-0.65,0.67,1.05
2022-11-13 14:9:09.0450,0.3,-0.67,0.19,0.75
2022-11-13 14:9:09.0560,-0.01,-1.14,-0.37,1.19
2022-11-13 14:9:09.0650,-0.39,-1.91,-0.59,2.03
2022-11-13 14:9:09.0750,-0.64,-2.63,-0.41,2.73
2022-11-13 14:9:09.0850,-0.58,-3.03,-0.41,3.11
2022-11-13 14:9:09.0950,-0.12,-3.13,-0.45,3.16
2022-11-13 14:9:09.1420,0.6,-3.01,-0.22,3.07
2022-11-13 14:9:09.1430,1.38,-2.91,-0.21,3.22
2022-11-13 14:9:09.1440,2.26,-2.81,-0.02,3.6
2022-11-13 14:9:09.1450,3.13,-2.65,0.34,4.11
2022-11-13 14:9:09.1460,3.92,-2.56,0.33,4.69
2022-11-13 14:9:09.1550,4.65,-2.49,0.17,5.27
2022-11-13 14:9:09.1650,5.2,-2.36,0.09,5.71
2022-11-13 14:9:09.1750,5.57,-2.21,0.12,5.99
2022-11-13 14:9:09.1850,5.82,-2.22,0.53,6.25
2022-11-13 14:9:09.1950,5.91,-2.32,1.34,6.48
2022-11-13 14:9:09.2420,5.62,-2.46,1.94,6.43
2022-11-13 14:9:09.2440,4.75,-3.37,1.68,6.06
2022-11-13 14:9:09.2450,3.49,-4.69,0.83,5.9
2022-11-13 14:9:09.2480,2.1,-5.12,-0.18,5.53
2022-11-13 14:9:09.2500,1.18,-4.76,-1.06,5.01
2022-11-13 14:9:09.2560,1.08,-4.16,-1.0,4.41
2022-11-13 14:9:09.2650,1.59,-3.19,-0.36,3.58
2022-11-13 14:9:09.2760,1.84,-2.28,0.05,2.93
2022-11-13 14:9:09.2860,1.71,-2.06,0.77,2.78
2022-11-13 14:9:09.2960,1.26,-2.44,1.57,3.16
2022-11-13 14:9:09.3420,0.65,-3.04,1.98,3.68
2022-11-13 14:9:09.3440,0.07,-3.44,2.15,4.05
2022-11-13 14:9:09.3450,-0.48,-3.46,2.03,4.04
2022-11-13 14:9:09.3480,-0.93,-3.08,1.75,3.66
2022-11-13 14:9:09.3500,-1.5,-2.73,1.46,3.44
2022-11-13 14:9:09.3550,-2.2,-2.73,1.1,3.67
2022-11-13 14:9:09.3660,-2.8,-2.69,0.78,3.96
2022-11-13 14:9:09.3760,-3.33,-2.39,0.61,4.14
2022-11-13 14:9:09.3860,-3.63,-1.72,0.62,4.06
2022-11-13 14:9:09.3960,-3.33,-0.63,0.86,3.49
2022-11-13 14:9:09.4430,-2.54,0.47,1.07,2.79
2022-11-13 14:9:09.4450,-1.63,1.17,1.69,2.62
2022-11-13 14:9:09.4460,-1.06,1.21,2.4,2.88
2022-11-13 14:9:09.4480,-0.75,0.9,3.1,3.31
2022-11-13 14:9:09.4500,-0.52,0.29,3.08,3.13
2022-11-13 14:9:09.4560,-0.05,-0.61,2.34,2.41
2022-11-13 14:9:09.4660,0.46,-1.15,2.07,2.41
2022-11-13 14:9:09.4760,0.64,-1.11,2.92,3.18
2022-11-13 14:9:09.4860,0.44,-0.15,4.52,4.54
2022-11-13 14:9:09.4960,-0.11,1.09,5.41,5.51
2022-11-13 14:9:09.5430,-0.88,2.17,5.33,5.82
2022-11-13 14:9:09.5450,-1.95,3.11,4.58,5.86
2022-11-13 14:9:09.5460,-3.02,3.77,3.67,6.06
2022-11-13 14:9:09.5550,-3.78,4.32,3.08,6.51
2022-11-13 14:9:09.5560,-4.26,4.83,2.72,6.99
2022-11-13 14:9:09.5590,-4.48,5.11,2.51,7.24
2022-11-13 14:9:09.5660,-4.47,5.21,2.31,7.24
2022-11-13 14:9:09.5770,-4.26,5.25,1.99,7.04
2022-11-13 14:9:09.5860,-3.79,5.1,1.83,6.61
2022-11-13 14:9:09.5970,-3.27,4.77,1.75,6.04
2022-11-13 14:9:09.6440,-2.88,4.44,1.75,5.57
2022-11-13 14:9:09.6460,-2.52,4.25,1.75,5.24
2022-11-13 14:9:09.6470,-2.04,4.17,1.86,5.0
2022-11-13 14:9:09.6550,-1.5,3.87,2.17,4.68
2022-11-13 14:9:09.6560,-0.97,3.09,2.53,4.1
2022-11-13 14:9:09.6590,-0.32,1.82,2.64,3.22
2022-11-13 14:9:09.6660,0.58,0.13,2.34,2.41
2022-11-13 14:9:09.6770,1.77,-1.95,1.67,3.11
2022-11-13 14:9:09.6870,3.12,-4.15,0.3,5.2
2022-11-13 14:9:09.6970,4.56,-5.81,-0.85,7.43
2022-11-13 14:9:09.7450,5.8,-6.34,-1.03,8.65
2022-11-13 14:9:09.7470,6.65,-5.61,-0.99,8.75
2022-11-13 14:9:09.7480,6.87,-3.82,-0.47,7.87
2022-11-13 14:9:09.7550,5.65,-1.89,0.61,5.98
2022-11-13 14:9:09.7560,3.5,-0.58,1.29,3.77
2022-11-13 14:9:09.7590,1.49,0.17,1.88,2.4
2022-11-13 14:9:09.7670,-0.18,0.56,2.53,2.59
2022-11-13 14:9:09.7770,-1.46,0.53,2.72,3.13
2022-11-13 14:9:09.7870,-2.67,0.44,2.92,3.98
2022-11-13 14:9:09.7970,-3.5,0.7,3.4,4.92
2022-11-13 14:9:09.8460,-3.99,1.59,3.46,5.51
2022-11-13 14:9:09.8480,-4.93,2.38,3.04,6.26
2022-11-13 14:9:09.8480,-6.31,2.3,2.77,7.26
2022-11-13 14:9:09.8530,-7.5,1.54,2.97,8.21
2022-11-13 14:9:09.8540,-8.3,0.32,3.47,9.0
2022-11-13 14:9:09.8570,-8.2,-1.21,4.79,9.57
2022-11-13 14:9:09.8670,-7.71,-3.13,5.89,10.19
2022-11-13 14:9:09.8770,-7.45,-4.87,5.88,10.66
2022-11-13 14:9:09.8870,-7.51,-6.04,4.91,10.81
2022-11-13 14:9:09.8970,-7.29,-6.33,3.15,10.15
2022-11-13 14:9:09.9460,-5.43,-4.81,1.51,7.4
2022-11-13 14:9:09.9480,-3.28,-2.43,1.93,4.51
2022-11-13 14:9:09.9490,-2.03,-0.86,3.3,3.96
2022-11-13 14:9:09.9540,-0.76,0.57,3.59,3.71
2022-11-13 14:9:09.9550,0.35,1.68,3.18,3.61
2022-11-13 14:9:09.9570,1.0,2.09,3.04,3.82
2022-11-13 14:9:09.9670,1.19,2.16,3.38,4.18
2022-11-13 14:9:09.9780,1.34,2.15,3.44,4.27
2022-11-13 14:9:09.9880,1.61,1.94,3.02,3.93
2022-11-13 14:9:09.9980,1.9,1.13,1.92,2.92
2022-11-13 14:9:10.0470,2.06,-0.33,0.13,2.09
2022-11-13 14:9:10.0490,2.23,-1.96,-1.17,3.19
2022-11-13 14:9:10.0500,2.66,-3.24,-0.65,4.24
2022-11-13 14:9:10.0540,3.27,-3.54,1.03,4.92
2022-11-13 14:9:10.0540,3.67,-2.93,2.14,5.16
2022-11-13 14:9:10.0570,3.48,-2.15,2.24,4.66
2022-11-13 14:9:10.0680,3.16,-1.41,2.04,4.01
2022-11-13 14:9:10.0780,3.01,-0.57,2.08,3.7
2022-11-13 14:9:10.0880,2.73,0.03,1.96,3.36
2022-11-13 14:9:10.0980,2.18,0.31,1.72,2.79
2022-11-13 14:9:10.1470,1.28,0.47,1.74,2.21
2022-11-13 14:9:10.1490,0.41,0.9,1.74,2.0
2022-11-13 14:9:10.1500,-0.09,1.33,1.5,2.0
2022-11-13 14:9:10.1530,-0.35,1.66,1.06,2.0
2022-11-13 14:9:10.1540,-0.33,1.98,0.56,2.08
2022-11-13 14:9:10.1580,0.2,1.99,0.32,2.02
2022-11-13 14:9:10.1680,1.46,1.13,0.25,1.86
2022-11-13 14:9:10.1780,2.44,-0.07,0.36,2.46
2022-11-13 14:9:10.1880,2.96,-0.99,0.54,3.16
2022-11-13 14:9:10.1980,3.13,-1.79,0.81,3.69
2022-11-13 14:9:10.2480,2.64,-2.43,1.41,3.85
2022-11-13 14:9:10.2490,1.88,-2.45,2.42,3.92
2022-11-13 14:9:10.2500,1.31,-2.01,3.19,3.99
2022-11-13 14:9:10.2540,0.68,-1.66,3.22,3.68
2022-11-13 14:9:10.2540,-0.03,-1.29,2.6,2.9
2022-11-13 14:9:10.2730,-0.66,-1.02,1.96,2.3
2022-11-13 14:9:10.2730,-1.14,-0.63,1.54,2.01
2022-11-13 14:9:10.2780,-1.5,-0.18,1.3,1.99
2022-11-13 14:9:10.2880,-1.61,0.05,1.51,2.2
2022-11-13 14:9:10.2980,-1.46,0.24,1.96,2.45
2022-11-13 14:9:10.3480,-0.98,0.23,2.05,2.28
2022-11-13 14:9:10.3500,-0.11,-0.34,1.89,1.92
2022-11-13 14:9:10.3510,0.99,-1.38,1.71,2.41
2022-11-13 14:9:10.3540,2.14,-2.06,1.07,3.15
2022-11-13 14:9:10.3550,3.14,-2.25,0.4,3.88
2022-11-13 14:9:10.3730,3.91,-2.27,0.28,4.52
2022-11-13 14:9:10.3740,4.52,-2.15,0.58,5.03
2022-11-13 14:9:10.3790,4.99,-1.77,0.66,5.33
2022-11-13 14:9:10.3890,5.3,-1.33,0.65,5.5
2022-11-13 14:9:10.3990,5.4,-1.21,0.81,5.59
2022-11-13 14:9:10.4480,5.28,-1.5,1.26,5.63
2022-11-13 14:9:10.4500,5.05,-2.04,1.87,5.75
2022-11-13 14:9:10.4510,4.84,-2.75,2.21,5.98
2022-11-13 14:9:10.4540,4.8,-3.4,2.02,6.21
2022-11-13 14:9:10.4560,5.04,-3.54,1.39,6.31
2022-11-13 14:9:10.4590,5.3,-3.19,0.77,6.23
2022-11-13 14:9:10.4690,5.39,-2.69,0.36,6.03
2022-11-13 14:9:10.4790,5.39,-2.37,0.26,5.89
2022-11-13 14:9:10.4890,5.49,-2.13,0.54,5.91
2022-11-13 14:9:10.4990,5.48,-1.91,1.03,5.89
2022-11-13 14:9:10.5490,5.18,-1.68,1.7,5.7
2022-11-13 14:9:10.5510,4.49,-1.73,2.4,5.37
2022-11-13 14:9:10.5520,3.63,-2.02,3.01,5.13
2022-11-13 14:9:10.5540,2.68,-2.61,3.53,5.14
2022-11-13 14:9:10.5720,1.38,-3.59,4.12,5.63
2022-11-13 14:9:10.5730,-0.05,-4.66,4.89,6.75
2022-11-13 14:9:10.5740,-1.08,-5.53,5.51,7.88
2022-11-13 14:9:10.5790,-1.72,-6.19,5.57,8.5
2022-11-13 14:9:10.5890,-2.22,-6.72,5.26,8.81
2022-11-13 14:9:10.5990,-2.76,-6.84,5.33,9.1
2022-11-13 14:9:10.6500,-3.45,-6.27,5.98,9.32
2022-11-13 14:9:10.6510,-3.89,-5.05,7.01,9.47
2022-11-13 14:9:10.6520,-3.68,-3.35,8.23,9.61
2022-11-13 14:9:10.6530,-3.02,-1.6,9.31,9.91
2022-11-13 14:9:10.6720,-2.22,-0.14,9.98,10.22
2022-11-13 14:9:10.6730,-1.6,0.88,9.77,9.93
2022-11-13 14:9:10.6740,-1.19,1.41,8.75,8.94
2022-11-13 14:9:10.6800,-0.77,1.76,6.99,7.24
2022-11-13 14:9:10.6900,0.74,1.83,-0.59,2.06
2022-11-13 14:9:10.7000,2.8,-0.33,-6.47,7.05
2022-11-13 14:9:10.7500,3.57,-2.71,-1.07,4.6
2022-11-13 14:9:10.7520,4.06,-3.52,4.29,6.87
2022-11-13 14:9:10.7520,3.96,-3.83,6.45,8.48
2022-11-13 14:9:10.7540,2.48,-3.06,6.69,7.76
2022-11-13 14:9:10.7720,0.13,-1.74,5.49,5.76
2022-11-13 14:9:10.7730,-2.04,-0.8,4.68,5.16
2022-11-13 14:9:10.7740,-3.49,0.21,5.14,6.21
2022-11-13 14:9:10.7800,-4.3,1.53,5.88,7.44
2022-11-13 14:9:10.7900,-4.6,2.91,6.35,8.36
2022-11-13 14:9:10.8000,-4.54,4.2,6.37,8.87
2022-11-13 14:9:10.8510,-4.38,5.08,5.5,8.67
2022-11-13 14:9:10.8530,-4.37,5.41,4.16,8.1
2022-11-13 14:9:10.8530,-4.42,5.31,3.09,7.56
2022-11-13 14:9:10.8560,-4.48,4.89,2.29,7.01
2022-11-13 14:9:10.8580,-4.23,4.37,1.61,6.29
2022-11-13 14:9:10.8610,-3.65,3.5,1.04,5.16
2022-11-13 14:9:10.8700,-2.87,2.28,0.74,3.73
2022-11-13 14:9:10.8800,-2.04,1.35,0.87,2.59
2022-11-13 14:9:10.8900,-1.28,1.16,1.04,2.01
2022-11-13 14:9:10.9000,-0.79,1.23,0.87,1.7
2022-11-13 14:9:10.9510,-0.63,1.27,0.64,1.55
2022-11-13 14:9:10.9520,-0.49,1.26,0.56,1.46
2022-11-13 14:9:10.9540,-0.13,1.35,0.5,1.44
2022-11-13 14:9:10.9560,0.16,1.46,0.26,1.49
2022-11-13 14:9:10.9580,0.13,1.36,-0.09,1.36
2022-11-13 14:9:10.9610,-0.09,1.0,-0.48,1.11
2022-11-13 14:9:10.9700,-0.28,0.34,-1.17,1.25
2022-11-13 14:9:10.9810,-0.05,-0.41,-1.79,1.83
2022-11-13 14:9:10.9900,0.71,-0.95,-2.35,2.63
2022-11-13 14:9:11.0010,1.78,-1.36,-2.94,3.69
2022-11-13 14:9:11.0510,2.94,-1.68,-3.13,4.61
2022-11-13 14:9:11.0520,4.03,-1.78,-2.58,5.1
2022-11-13 14:9:11.0540,4.6,-1.47,-1.73,5.12
2022-11-13 14:9:11.0560,4.24,-0.86,-1.1,4.46
2022-11-13 14:9:11.0580,3.02,-0.14,-0.58,3.07
2022-11-13 14:9:11.0610,2.4,0.6,-0.15,2.47
2022-11-13 14:9:11.0710,2.21,1.27,0.28,2.56
2022-11-13 14:9:11.0810,2.0,1.54,0.89,2.67
2022-11-13 14:9:11.0910,1.8,1.47,4.08,4.69
2022-11-13 14:9:11.1010,2.13,2.34,7.16,7.82
2022-11-13 14:9:11.1520,2.4,3.27,5.35,6.71
2022-11-13 14:9:11.1530,1.0,1.5,0.58,1.89
2022-11-13 14:9:11.1540,-3.44,-4.8,-7.18,9.29
2022-11-13 14:9:11.1550,-6.48,-12.66,-13.34,19.49
2022-11-13 14:9:11.1560,-6.46,-15.28,-6.91,17.97
2022-11-13 14:9:11.1720,-5.94,-10.69,2.68,12.51
2022-11-13 14:9:11.1730,-4.69,-1.85,4.72,6.9
2022-11-13 14:9:11.1810,-4.32,3.16,2.43,5.87
2022-11-13 14:9:11.1910,-4.73,4.65,2.0,6.92
2022-11-13 14:9:11.2010,-4.94,5.14,2.35,7.5
2022-11-13 14:9:11.2520,-4.8,5.48,2.28,7.63
2022-11-13 14:9:11.2530,-4.48,5.64,1.91,7.45
2022-11-13 14:9:11.2530,-4.31,5.16,1.64,6.92
2022-11-13 14:9:11.2560,-4.17,4.02,1.49,5.98
2022-11-13 14:9:11.2580,-4.06,2.33,1.81,5.01
2022-11-13 14:9:11.2610,-4.14,0.79,2.57,4.93
2022-11-13 14:9:11.2710,-4.18,-0.16,2.97,5.13
2022-11-13 14:9:11.2810,-4.21,-0.87,2.9,5.18
2022-11-13 14:9:11.2910,-4.07,-1.56,2.21,4.88
2022-11-13 14:9:11.3010,-3.66,-2.12,1.39,4.45
2022-11-13 14:9:11.3520,-2.88,-2.31,0.43,3.71
2022-11-13 14:9:11.3530,-1.84,-2.13,0.25,2.82
2022-11-13 14:9:11.3560,-0.82,-1.65,0.76,1.99
2022-11-13 14:9:11.3580,-0.03,-0.94,0.83,1.25
2022-11-13 14:9:11.3600,0.48,-0.34,0.58,0.82
2022-11-13 14:9:11.3630,0.82,0.01,0.41,0.91
2022-11-13 14:9:11.3720,1.0,0.09,0.46,1.1
2022-11-13 14:9:11.3820,1.1,-0.02,0.59,1.24
2022-11-13 14:9:11.3920,1.19,-0.24,0.6,1.35
2022-11-13 14:9:11.4020,1.21,-0.28,0.04,1.24
2022-11-13 14:9:11.4520,1.22,-0.23,-0.72,1.43
2022-11-13 14:9:11.4540,1.26,-0.24,-1.08,1.67
2022-11-13 14:9:11.4540,1.37,-0.08,-1.08,1.74
2022-11-13 14:9:11.4550,1.3,0.24,-0.63,1.46
2022-11-13 14:9:11.4570,1.04,0.62,-0.1,1.21
2022-11-13 14:9:11.4620,0.71,0.97,0.31,1.24
2022-11-13 14:9:11.4720,0.46,1.23,0.59,1.43
2022-11-13 14:9:11.4820,0.37,1.48,0.92,1.78
2022-11-13 14:9:11.4920,0.21,1.66,1.19,2.05
2022-11-13 14:9:11.5020,-0.08,1.67,1.02,1.95
2022-11-13 14:9:11.5530,-0.18,1.57,-0.08,1.58
2022-11-13 14:9:11.5540,0.13,1.17,-1.99,2.31
2022-11-13 14:9:11.5560,0.91,0.28,-3.51,3.63
2022-11-13 14:9:11.5580,1.84,-0.7,-3.57,4.07
2022-11-13 14:9:11.5600,2.75,-1.48,-2.27,3.86
2022-11-13 14:9:11.5630,3.34,-1.86,-0.74,3.89
2022-11-13 14:9:11.5720,3.58,-1.77,-0.03,3.99
2022-11-13 14:9:11.5820,3.7,-1.37,-0.15,3.94
2022-11-13 14:9:11.5930,3.91,-0.98,-0.53,4.06
2022-11-13 14:9:11.6020,4.22,-0.92,-0.61,4.36
2022-11-13 14:9:11.6530,4.36,-1.23,-0.26,4.53
2022-11-13 14:9:11.6540,4.35,-1.67,-0.13,4.66
2022-11-13 14:9:11.6560,4.35,-2.03,-0.29,4.8
2022-11-13 14:9:11.6580,4.38,-2.19,-0.52,4.92
2022-11-13 14:9:11.6610,4.3,-2.09,-0.71,4.83
2022-11-13 14:9:11.6630,3.98,-1.77,-0.89,4.44
2022-11-13 14:9:11.6720,3.47,-1.36,-0.93,3.84
2022-11-13 14:9:11.6820,3.12,-1.23,-0.5,3.39
2022-11-13 14:9:11.6930,3.04,-1.37,0.3,3.34
2022-11-13 14:9:11.7020,3.0,-1.94,1.01,3.71
2022-11-13 14:9:11.7530,2.61,-3.02,1.15,4.15
2022-11-13 14:9:11.7540,1.93,-4.4,0.7,4.85
2022-11-13 14:9:11.7570,1.12,-5.6,-0.53,5.73
2022-11-13 14:9:11.7590,0.12,-6.42,-2.27,6.81
2022-11-13 14:9:11.7610,-1.07,-7.06,-3.38,7.9
2022-11-13 14:9:11.7630,-2.01,-7.27,-3.44,8.29
2022-11-13 14:9:11.7730,-2.48,-6.54,-3.01,7.61
2022-11-13 14:9:11.7830,-2.33,-4.85,-2.47,5.92
2022-11-13 14:9:11.7930,-1.67,-3.09,-1.67,3.88
2022-11-13 14:9:11.8030,-1.2,-2.05,-0.83,2.51
2022-11-13 14:9:11.8530,-0.93,-1.6,-0.3,1.87
2022-11-13 14:9:11.8540,-0.94,-1.57,-0.07,1.83
2022-11-13 14:9:11.8570,-1.23,-1.71,0.11,2.1
2022-11-13 14:9:11.8590,-1.48,-1.78,0.27,2.33
2022-11-13 14:9:11.8610,-1.88,-1.71,0.27,2.55
2022-11-13 14:9:11.8630,-2.19,-1.54,0.17,2.68
2022-11-13 14:9:11.8730,-2.37,-1.17,0.06,2.64
2022-11-13 14:9:11.8830,-2.52,-0.76,-0.02,2.63
2022-11-13 14:9:11.8930,-2.59,-0.46,0.04,2.63
2022-11-13 14:9:11.9030,-2.49,-0.22,0.23,2.51
2022-11-13 14:9:11.9540,-2.13,0.0,0.45,2.17
2022-11-13 14:9:11.9550,-1.65,0.16,0.88,1.87
2022-11-13 14:9:11.9570,-1.15,0.24,1.14,1.63
2022-11-13 14:9:11.9590,-0.61,0.22,0.89,1.1
2022-11-13 14:9:11.9610,-0.14,0.12,0.71,0.73
2022-11-13 14:9:11.9640,0.19,0.13,0.77,0.8
2022-11-13 14:9:11.9730,0.28,0.46,0.83,0.98
2022-11-13 14:9:11.9830,0.3,1.1,1.13,1.6
2022-11-13 14:9:11.9940,0.08,1.86,1.62,2.46
2022-11-13 14:9:12.0030,-0.55,2.49,1.93,3.19
2022-11-13 14:9:12.0540,-1.34,2.89,2.07,3.79
2022-11-13 14:9:12.0550,-2.04,3.26,2.16,4.41
2022-11-13 14:9:12.0570,-2.52,3.67,2.17,4.95
2022-11-13 14:9:12.0600,-2.78,4.18,2.05,5.42
2022-11-13 14:9:12.0620,-2.91,4.67,1.7,5.75
2022-11-13 14:9:12.0640,-2.9,5.13,1.36,6.04
2022-11-13 14:9:12.0740,-2.87,5.51,1.04,6.29
2022-11-13 14:9:12.0840,-2.8,5.81,0.86,6.5
2022-11-13 14:9:12.0940,-2.65,6.04,0.91,6.65
2022-11-13 14:9:12.1040,-2.37,6.07,1.14,6.61
2022-11-13 14:9:12.1550,-2.21,5.76,1.46,6.33
2022-11-13 14:9:12.1560,-2.09,5.18,1.53,5.79
2022-11-13 14:9:12.1580,-1.78,4.58,1.41,5.11
2022-11-13 14:9:12.1600,-1.32,4.08,1.39,4.5
2022-11-13 14:9:12.1620,-0.83,3.59,1.29,3.9
2022-11-13 14:9:12.1650,-0.31,2.8,0.8,2.92
2022-11-13 14:9:12.1740,0.32,1.42,-0.01,1.45
2022-11-13 14:9:12.1840,1.0,-0.72,-1.65,2.05
2022-11-13 14:9:12.1940,1.97,-3.72,-4.39,6.08
2022-11-13 14:9:12.2040,3.48,-7.07,-6.74,10.36
2022-11-13 14:9:12.2550,5.49,-9.38,-6.42,12.62
2022-11-13 14:9:12.2560,7.1,-10.73,-4.88,13.76
2022-11-13 14:9:12.2580,7.75,-10.31,-3.9,13.47
2022-11-13 14:9:12.2600,7.27,-5.57,-3.42,9.77
2022-11-13 14:9:12.2620,4.82,-0.62,-2.61,5.51
2022-11-13 14:9:12.2650,1.61,1.7,-2.41,3.36
2022-11-13 14:9:12.2740,-0.28,2.79,-2.26,3.6
2022-11-13 14:9:12.2840,-1.6,3.27,0.36,3.65
2022-11-13 14:9:12.2940,-3.68,2.98,2.77,5.48
2022-11-13 14:9:12.3040,-5.79,1.78,1.59,6.26
2022-11-13 14:9:12.3550,-7.24,0.27,-1.14,7.33
2022-11-13 14:9:12.3560,-8.67,-1.91,-3.78,9.64
2022-11-13 14:9:12.3570,-9.49,-5.32,-1.37,10.96
2022-11-13 14:9:12.3590,-8.82,-7.37,1.73,11.62
2022-11-13 14:9:12.3620,-5.66,-5.11,1.21,7.72
2022-11-13 14:9:12.3640,-2.91,-1.57,1.04,3.46
2022-11-13 14:9:12.3740,-2.77,-0.28,1.96,3.4
2022-11-13 14:9:12.3850,-3.1,0.16,2.88,4.23
2022-11-13 14:9:12.3950,-3.16,0.66,3.0,4.4
2022-11-13 14:9:12.4050,-3.08,1.27,2.32,4.05
2022-11-13 14:9:12.4550,-3.09,1.79,1.48,3.86
2022-11-13 14:9:12.4560,-3.22,2.1,0.87,3.94
2022-11-13 14:9:12.4580,-3.22,1.85,1.24,3.91
2022-11-13 14:9:12.4600,-2.89,1.33,2.16,3.84
2022-11-13 14:9:12.4620,-2.21,1.0,3.4,4.17
2022-11-13 14:9:12.4650,-1.36,0.89,4.67,4.94
2022-11-13 14:9:12.4750,-0.67,0.98,5.08,5.21
2022-11-13 14:9:12.4850,-0.31,1.03,4.68,4.8
2022-11-13 14:9:12.4950,-0.17,0.61,3.99,4.03
2022-11-13 14:9:12.5050,-0.32,-0.03,2.45,2.47
2022-11-13 14:9:12.5560,-0.6,-0.65,0.06,0.88
2022-11-13 14:9:12.5570,-0.63,-0.85,-1.48,1.81
2022-11-13 14:9:12.5590,-0.54,-0.62,-1.41,1.63
2022-11-13 14:9:12.5610,-0.42,-0.26,-0.68,0.84
2022-11-13 14:9:12.5630,-0.36,-0.03,-0.2,0.41
2022-11-13 14:9:12.5660,-0.33,0.21,-0.33,0.51
2022-11-13 14:9:12.5750,-0.3,0.41,-0.76,0.91
2022-11-13 14:9:12.5850,-0.31,0.56,-1.05,1.22
2022-11-13 14:9:12.5950,-0.25,0.67,-1.0,1.22
2022-11-13 14:9:12.6050,-0.15,0.82,-0.68,1.07
2022-11-13 14:9:12.6560,0.1,0.98,-0.11,0.99
2022-11-13 14:9:12.6570,0.39,1.12,0.36,1.23
2022-11-13 14:9:12.6590,0.58,1.09,0.57,1.35
2022-11-13 14:9:12.6610,0.63,0.96,0.54,1.26
2022-11-13 14:9:12.6640,0.72,0.82,0.36,1.14
2022-11-13 14:9:12.6660,0.9,0.62,0.23,1.11
2022-11-13 14:9:12.6750,1.25,0.29,0.17,1.29
2022-11-13 14:9:12.6850,1.67,-0.05,0.07,1.67
2022-11-13 14:9:12.6960,2.06,-0.33,-0.04,2.08
2022-11-13 14:9:12.7060,2.41,-0.43,-0.14,2.45
2022-11-13 14:9:12.7560,2.71,-0.42,-0.15,2.74
2022-11-13 14:9:12.7570,2.94,-0.41,-0.03,2.96
2022-11-13 14:9:12.7590,3.06,-0.45,0.12,3.09
2022-11-13 14:9:12.7610,3.09,-0.49,0.07,3.12
2022-11-13 14:9:12.7640,3.05,-0.49,-0.3,3.1
2022-11-13 14:9:12.7660,2.78,-0.52,-0.72,2.91
2022-11-13 14:9:12.7760,2.14,-0.6,-0.84,2.37
2022-11-13 14:9:12.7860,1.43,-0.55,-0.81,1.73
2022-11-13 14:9:12.7960,0.93,-0.21,-0.73,1.2
2022-11-13 14:9:12.8060,0.57,0.17,-0.56,0.81
2022-11-13 14:9:12.8560,0.37,0.38,-0.48,0.71
2022-11-13 14:9:12.8570,0.3,0.41,-0.35,0.61
2022-11-13 14:9:12.8580,0.45,0.07,-0.28,0.53
2022-11-13 14:9:12.8600,0.95,-0.58,-0.45,1.2
2022-11-13 14:9:12.8620,1.51,-1.11,-0.49,1.93
2022-11-13 14:9:12.8660,2.04,-1.51,-0.33,2.55
2022-11-13 14:9:12.8760,2.37,-1.78,-0.26,2.97
2022-11-13 14:9:12.8860,2.56,-1.75,-0.15,3.1
2022-11-13 14:9:12.8960,2.66,-1.48,-0.07,3.04
2022-11-13 14:9:12.9060,2.57,-1.13,-0.08,2.8
2022-11-13 14:9:12.9560,2.4,-0.88,-0.06,2.55
2022-11-13 14:9:12.9570,2.21,-0.86,-0.16,2.37
2022-11-13 14:9:12.9580,2.09,-0.93,-0.3,2.3
2022-11-13 14:9:12.9600,2.3,-1.1,-0.47,2.59
2022-11-13 14:9:12.9620,2.65,-1.77,-0.59,3.24
2022-11-13 14:9:12.9660,2.9,-2.5,-0.6,3.87
2022-11-13 14:9:12.9760,3.19,-2.87,-0.45,4.31
2022-11-13 14:9:12.9860,3.36,-3.38,-0.08,4.76
2022-11-13 14:9:12.9960,3.19,-4.22,0.23,5.29
2022-11-13 14:9:13.0070,2.85,-4.9,0.27,5.67
2022-11-13 14:9:13.0570,2.59,-5.32,-0.24,5.92
2022-11-13 14:9:13.0580,2.06,-5.51,-1.4,6.04
2022-11-13 14:9:13.0590,0.63,-4.98,-2.86,5.77
2022-11-13 14:9:13.0610,-0.31,-3.84,-4.18,5.68
2022-11-13 14:9:13.0630,-0.6,-2.8,-4.26,5.13
2022-11-13 14:9:13.0660,-0.83,-2.0,-2.89,3.61
2022-11-13 14:9:13.0770,-1.17,-1.64,-1.33,2.41
2022-11-13 14:9:13.0870,-1.53,-1.86,-0.39,2.43
2022-11-13 14:9:13.0970,-1.72,-2.24,0.46,2.86
2022-11-13 14:9:13.1070,-1.91,-2.45,1.26,3.35
2022-11-13 14:9:13.1580,-1.97,-2.53,1.79,3.67
2022-11-13 14:9:13.1590,-2.2,-2.51,2.0,3.89
2022-11-13 14:9:13.1610,-2.53,-2.39,2.24,4.13
2022-11-13 14:9:13.1640,-2.9,-2.15,2.62,4.46
2022-11-13 14:9:13.1660,-3.36,-1.73,2.81,4.7
2022-11-13 14:9:13.1680,-3.77,-0.98,2.79,4.79
2022-11-13 14:9:13.1770,-3.69,-0.03,2.74,4.59
2022-11-13 14:9:13.1870,-2.49,0.78,2.85,3.86
2022-11-13 14:9:13.1970,-0.82,1.16,1.53,2.08
2022-11-13 14:9:13.2070,0.48,0.77,-1.24,1.53
2022-11-13 14:9:13.2580,1.12,-0.2,-3.23,3.42
2022-11-13 14:9:13.2580,1.27,-1.19,-2.55,3.08
2022-11-13 14:9:13.2600,1.55,-1.54,0.57,2.25
2022-11-13 14:9:13.2620,1.86,-0.69,3.66,4.16
2022-11-13 14:9:13.2640,1.5,0.37,4.86,5.09
2022-11-13 14:9:13.2670,0.27,1.08,4.37,4.5
2022-11-13 14:9:13.2770,-1.31,1.48,3.45,3.97
2022-11-13 14:9:13.2870,-2.64,2.0,2.55,4.17
2022-11-13 14:9:13.2970,-3.29,2.79,2.25,4.86
2022-11-13 14:9:13.3070,-3.5,3.71,2.48,5.67
2022-11-13 14:9:13.3590,-3.57,4.6,2.62,6.38
2022-11-13 14:9:13.3600,-3.64,5.37,2.0,6.78
2022-11-13 14:9:13.3620,-3.66,5.9,1.11,7.03
2022-11-13 14:9:13.3640,-3.57,6.16,0.43,7.13
2022-11-13 14:9:13.3670,-3.43,6.07,0.22,6.97
2022-11-13 14:9:13.3690,-3.28,5.76,0.26,6.63
2022-11-13 14:9:13.3770,-3.04,5.35,0.29,6.16
2022-11-13 14:9:13.3890,-2.62,4.89,0.31,5.55
2022-11-13 14:9:13.3970,-1.98,4.43,0.37,4.86
2022-11-13 14:9:13.4070,-1.23,3.95,0.57,4.17
2022-11-13 14:9:13.4590,-0.42,3.39,1.01,3.56
2022-11-13 14:9:13.4600,0.42,2.75,1.6,3.2
2022-11-13 14:9:13.4620,1.17,2.04,2.15,3.18
2022-11-13 14:9:13.4640,1.62,1.18,2.15,2.93
2022-11-13 14:9:13.4660,1.81,0.04,2.04,2.72
2022-11-13 14:9:13.4690,1.88,-1.21,1.19,2.53
2022-11-13 14:9:13.4780,2.06,-2.36,-0.87,3.25
2022-11-13 14:9:13.4880,2.6,-3.72,-3.13,5.51
2022-11-13 14:9:13.4980,3.51,-5.06,-4.53,7.64
2022-11-13 14:9:13.5080,4.45,-6.33,-4.82,9.11
2022-11-13 14:9:13.5590,4.84,-7.09,-4.92,9.89
2022-11-13 14:9:13.5600,4.9,-6.71,-4.54,9.46
2022-11-13 14:9:13.5630,5.06,-4.89,-3.66,7.93
2022-11-13 14:9:13.5650,4.75,-2.75,-2.95,6.23
2022-11-13 14:9:13.5670,3.99,-1.16,-2.42,4.8
2022-11-13 14:9:13.5700,2.97,0.04,-1.78,3.46
2022-11-13 14:9:13.5780,1.74,0.92,-1.09,2.24
2022-11-13 14:9:13.5890,0.37,1.6,-0.63,1.75
2022-11-13 14:9:13.5980,-0.98,1.77,1.71,2.64
2022-11-13 14:9:13.6080,-2.43,0.99,5.62,6.2
2022-11-13 14:9:13.6600,-4.14,-1.01,6.18,7.5
2022-11-13 14:9:13.6610,-5.94,-3.5,2.08,7.2
2022-11-13 14:9:13.6640,-8.2,-6.02,-5.75,11.68
2022-11-13 14:9:13.6660,-8.98,-7.87,-10.14,15.66
2022-11-13 14:9:13.6680,-5.88,-7.42,-3.24,10.0
2022-11-13 14:9:13.6700,-3.27,-3.25,2.61,5.29
2022-11-13 14:9:13.6780,-3.45,0.77,1.55,3.85
2022-11-13 14:9:13.6890,-3.81,2.78,1.15,4.85
2022-11-13 14:9:13.6980,-3.86,3.78,1.53,5.61
2022-11-13 14:9:13.7080,-3.88,4.12,1.69,5.9
2022-11-13 14:9:13.7610,-3.88,4.08,1.68,5.87
2022-11-13 14:9:13.7620,-3.85,3.77,1.62,5.62
2022-11-13 14:9:13.7640,-3.88,3.44,1.29,5.34
2022-11-13 14:9:13.7660,-3.9,3.03,1.13,5.06
2022-11-13 14:9:13.7680,-3.66,2.55,1.57,4.72
2022-11-13 14:9:13.7690,-3.27,2.03,2.57,4.62
2022-11-13 14:9:13.7780,-2.91,1.56,3.56,4.85
2022-11-13 14:9:13.7890,-2.49,1.0,4.04,4.84
2022-11-13 14:9:13.7990,-1.97,0.55,4.32,4.77
2022-11-13 14:9:13.8090,-1.35,0.35,4.41,4.62
2022-11-13 14:9:13.8620,-0.74,0.29,4.16,4.23
2022-11-13 14:9:13.8620,-0.19,0.15,3.27,3.27
2022-11-13 14:9:13.8650,0.29,0.12,1.9,1.92
2022-11-13 14:9:13.8670,0.41,0.09,0.61,0.74
2022-11-13 14:9:13.8700,0.25,-0.08,-0.3,0.39
2022-11-13 14:9:13.8710,-0.02,-0.27,-0.92,0.95
2022-11-13 14:9:13.8890,-0.09,-0.33,-1.28,1.32
2022-11-13 14:9:13.8900,0.11,-0.25,-1.38,1.4
2022-11-13 14:9:13.8990,0.41,-0.14,-1.34,1.4
2022-11-13 14:9:13.9090,0.74,-0.07,-0.87,1.14
2022-11-13 14:9:13.9630,0.9,-0.12,-0.37,0.98
2022-11-13 14:9:13.9630,0.84,-0.22,-0.13,0.87
2022-11-13 14:9:13.9640,0.63,-0.27,-0.2,0.71
2022-11-13 14:9:13.9660,0.46,-0.27,-0.21,0.57
2022-11-13 14:9:13.9690,0.34,-0.12,0.25,0.43
2022-11-13 14:9:13.9700,0.14,0.18,0.92,0.94
2022-11-13 14:9:13.9790,-0.08,0.55,1.31,1.42
2022-11-13 14:9:13.9890,-0.18,1.05,1.26,1.65
2022-11-13 14:9:13.9990,-0.16,1.45,0.9,1.71
2022-11-13 14:9:14.0090,0.07,1.38,0.26,1.4
2022-11-13 14:9:14.0630,0.28,0.67,-0.49,0.87
2022-11-13 14:9:14.0640,0.47,-0.11,-1.04,1.14
2022-11-13 14:9:14.0660,0.7,-0.54,-1.22,1.5
2022-11-13 14:9:14.0690,0.89,-0.58,-1.05,1.49
2022-11-13 14:9:14.0700,1.08,-0.2,-0.65,1.27
2022-11-13 14:9:14.0720,1.28,0.18,-0.25,1.31
2022-11-13 14:9:14.0790,1.49,0.26,-0.06,1.51
2022-11-13 14:9:14.0890,1.55,0.01,-0.05,1.55
2022-11-13 14:9:14.1000,1.44,-0.45,-0.12,1.51
2022-11-13 14:9:14.1100,1.31,-0.74,-0.23,1.52
2022-11-13 14:9:14.1630,1.38,-0.68,-0.45,1.6
2022-11-13 14:9:14.1640,1.63,-0.41,-0.91,1.91
2022-11-13 14:9:14.1670,2.03,-0.09,-1.62,2.59
2022-11-13 14:9:14.1690,2.41,0.05,-2.54,3.5
2022-11-13 14:9:14.1700,2.54,-0.16,-2.66,3.68
2022-11-13 14:9:14.1880,2.58,-0.65,-0.93,2.81
2022-11-13 14:9:14.1900,2.64,-1.21,0.76,3.0
2022-11-13 14:9:14.1920,2.57,-1.64,1.16,3.26
2022-11-13 14:9:14.2000,2.66,-1.77,0.98,3.34
2022-11-13 14:9:14.2100,2.82,-1.65,0.78,3.35
2022-11-13 14:9:14.2640,2.88,-1.36,0.61,3.24
2022-11-13 14:9:14.2660,2.93,-1.02,0.22,3.11
2022-11-13 14:9:14.2660,2.96,-0.92,-0.26,3.11
2022-11-13 14:9:14.2670,2.9,-1.17,-0.44,3.15
2022-11-13 14:9:14.2700,2.78,-1.84,-0.23,3.34
2022-11-13 14:9:14.2890,2.59,-2.64,0.18,3.7
2022-11-13 14:9:14.2900,2.48,-3.42,0.36,4.23
2022-11-13 14:9:14.2930,2.25,-4.29,0.39,4.85
2022-11-13 14:9:14.3000,1.73,-5.07,0.22,5.36
2022-11-13 14:9:14.3100,1.28,-5.57,-0.15,5.71
2022-11-13 14:9:14.3650,1.19,-5.71,-0.76,5.88
2022-11-13 14:9:14.3660,1.12,-5.61,-1.6,5.94
2022-11-13 14:9:14.3670,1.07,-5.29,-2.32,5.87
2022-11-13 14:9:14.3680,1.32,-4.73,-2.57,5.54
2022-11-13 14:9:14.3690,1.59,-4.02,-2.64,5.06
2022-11-13 14:9:14.3890,1.55,-3.47,-3.04,4.86
2022-11-13 14:9:14.3900,1.22,-2.81,-3.21,4.43
2022-11-13 14:9:14.3930,1.04,-1.94,-2.71,3.49
2022-11-13 14:9:14.4000,0.8,-1.19,-2.26,2.67
2022-11-13 14:9:14.4110,0.02,-0.82,-1.68,1.86
2022-11-13 14:9:14.4650,-1.29,-0.86,-0.76,1.72
2022-11-13 14:9:14.4670,-2.53,-1.21,0.18,2.81
2022-11-13 14:9:14.4680,-3.28,-1.55,1.12,3.79
2022-11-13 14:9:14.4690,-3.62,-1.76,2.04,4.51
2022-11-13 14:9:14.4890,-3.93,-1.91,2.57,5.06
2022-11-13 14:9:14.4900,-4.36,-1.82,2.75,5.46
2022-11-13 14:9:14.4930,-4.94,-1.38,2.78,5.83
2022-11-13 14:9:14.4950,-5.52,-0.75,2.49,6.1
2022-11-13 14:9:14.5000,-5.76,-0.01,2.4,6.24
2022-11-13 14:9:14.5110,-5.32,0.66,2.48,5.9
2022-11-13 14:9:14.5660,-4.24,1.21,2.3,4.97
2022-11-13 14:9:14.5680,-2.59,1.41,1.49,3.3
2022-11-13 14:9:14.5690,-0.73,1.01,0.02,1.24
2022-11-13 14:9:14.5700,0.96,0.07,-1.39,1.69
2022-11-13 14:9:14.5890,2.26,-1.0,-0.61,2.54
2022-11-13 14:9:14.5900,3.28,-0.54,2.15,3.95
2022-11-13 14:9:14.5920,3.49,1.35,3.5,5.12
2022-11-13 14:9:14.5950,2.29,2.79,2.72,4.51
2022-11-13 14:9:14.6010,0.0,2.8,1.12,3.01
2022-11-13 14:9:14.6110,-1.93,2.31,0.65,3.07
2022-11-13 14:9:14.6660,-3.11,2.07,1.3,3.95
2022-11-13 14:9:14.6680,-3.59,2.41,2.36,4.92
2022-11-13 14:9:14.6690,-3.58,3.33,3.0,5.73
2022-11-13 14:9:14.6700,-3.11,4.46,2.77,6.1
2022-11-13 14:9:14.6720,-2.53,5.4,1.83,6.23
2022-11-13 14:9:14.6740,-2.31,6.04,0.93,6.53
2022-11-13 14:9:14.6810,-2.4,6.43,0.51,6.88
2022-11-13 14:9:14.6910,-2.56,6.69,0.48,7.17
2022-11-13 14:9:14.7010,-2.63,6.87,0.73,7.39
2022-11-13 14:9:14.7110,-2.7,7.03,1.05,7.6
2022-11-13 14:9:14.7680,-2.83,7.04,1.4,7.71
2022-11-13 14:9:14.7700,-3.11,6.31,1.62,7.21
2022-11-13 14:9:14.7710,-3.49,4.36,1.42,5.76
2022-11-13 14:9:14.7710,-3.49,2.37,0.53,4.25
2022-11-13 14:9:14.7720,-3.28,0.65,-1.77,3.78
2022-11-13 14:9:14.7880,-2.88,-0.9,-4.63,5.52
2022-11-13 14:9:14.7890,-1.93,-2.56,-6.9,7.6
2022-11-13 14:9:14.7920,-0.16,-5.08,-8.65,10.03
2022-11-13 14:9:14.8020,3.5,-7.73,-8.36,11.91
2022-11-13 14:9:14.8120,7.27,-7.81,-5.12,11.83
2022-11-13 14:9:14.8700,9.0,-7.5,-1.87,11.86
2022-11-13 14:9:14.8720,9.88,-6.82,-0.92,12.04
2022-11-13 14:9:14.8720,9.9,-3.32,-0.8,10.47
2022-11-13 14:9:14.8730,8.11,0.08,-0.7,8.14
2022-11-13 14:9:14.8740,3.91,0.43,-0.62,3.98
2022-11-13 14:9:14.8900,-0.35,-0.6,-0.97,1.19
2022-11-13 14:9:14.8910,-3.13,-1.02,-1.62,3.66
2022-11-13 14:9:14.8920,-4.51,-0.41,-1.93,4.92
2022-11-13 14:9:14.9020,-4.72,0.52,-2.6,5.41
2022-11-13 14:9:14.9120,-3.66,1.49,-1.48,4.21
2022-11-13 14:9:14.9700,-2.11,2.25,1.34,3.36
2022-11-13 14:9:14.9720,-1.3,2.11,3.07,3.94
2022-11-13 14:9:14.9720,-2.09,-0.03,0.91,2.27
2022-11-13 14:9:14.9730,-3.03,-4.35,-0.97,5.38
2022-11-13 14:9:14.9740,-3.36,-8.92,-0.4,9.54
2022-11-13 14:9:14.9900,-2.86,-11.27,0.48,11.63
2022-11-13 14:9:14.9910,-2.15,-9.32,2.76,9.95
2022-11-13 14:9:14.9920,-2.25,-3.46,3.11,5.16
2022-11-13 14:9:15.0020,-2.26,0.55,0.85,2.47
2022-11-13 14:9:15.0120,-2.74,2.16,-0.16,3.49
2022-11-13 14:9:15.0700,-3.48,2.84,-0.19,4.49
2022-11-13 14:9:15.0720,-4.51,3.14,0.14,5.49
2022-11-13 14:9:15.0730,-5.74,3.27,0.51,6.62
2022-11-13 14:9:15.0740,-6.23,3.54,0.54,7.18
2022-11-13 14:9:15.0740,-5.95,4.16,0.52,7.27
2022-11-13 14:9:15.0900,-5.67,4.55,0.72,7.3
2022-11-13 14:9:15.0910,-5.63,4.4,1.33,7.26
2022-11-13 14:9:15.0920,-5.87,3.98,2.03,7.37
2022-11-13 14:9:15.1020,-6.0,3.58,2.83,7.53
2022-11-13 14:9:15.1130,-6.03,2.91,3.62,7.61
2022-11-13 14:9:15.1710,-6.1,2.34,3.8,7.55
2022-11-13 14:9:15.1730,-5.93,1.8,3.17,6.96
2022-11-13 14:9:15.1740,-5.46,1.2,2.32,6.05
2022-11-13 14:9:15.1900,-4.85,0.87,1.39,5.11
2022-11-13 14:9:15.1900,-4.4,0.62,0.46,4.46
2022-11-13 14:9:15.1910,-3.92,0.38,-0.17,3.94
2022-11-13 14:9:15.1920,-3.38,0.0,-0.44,3.4
2022-11-13 14:9:15.1950,-2.84,-0.36,-0.53,2.91
2022-11-13 14:9:15.2030,-2.4,-0.47,-0.11,2.44
2022-11-13 14:9:15.2130,-1.97,-0.18,0.7,2.09
2022-11-13 14:9:15.2710,-1.66,0.24,1.39,2.17
2022-11-13 14:9:15.2730,-1.54,0.44,1.73,2.35
2022-11-13 14:9:15.2740,-1.46,0.47,1.85,2.4
2022-11-13 14:9:15.2890,-1.34,0.42,1.91,2.37
2022-11-13 14:9:15.2900,-1.13,0.37,2.08,2.39
2022-11-13 14:9:15.2910,-0.81,0.36,2.38,2.53
2022-11-13 14:9:15.2910,-0.57,0.33,2.56,2.64
2022-11-13 14:9:15.3060,-0.46,0.25,2.61,2.66
2022-11-13 14:9:15.3070,-0.35,0.14,2.67,2.69
2022-11-13 14:9:15.3130,-0.15,-0.04,2.84,2.84
2022-11-13 14:9:15.3720,0.19,-0.25,3.11,3.12
2022-11-13 14:9:15.3730,0.61,-0.45,3.37,3.45
2022-11-13 14:9:15.3740,1.11,-0.58,3.36,3.58
2022-11-13 14:9:15.3890,1.59,-0.67,3.06,3.51
2022-11-13 14:9:15.3890,2.01,-0.76,2.66,3.41
2022-11-13 14:9:15.3900,2.39,-0.86,2.18,3.34
2022-11-13 14:9:15.3910,2.69,-0.89,1.66,3.28
2022-11-13 14:9:15.4060,2.85,-0.91,1.16,3.2
2022-11-13 14:9:15.4070,2.9,-1.01,0.77,3.16
2022-11-13 14:9:15.4130,2.82,-1.1,0.22,3.03
2022-11-13 14:9:15.4740,2.5,-1.07,-0.57,2.77
2022-11-13 14:9:15.4760,1.95,-0.83,-1.29,2.48
2022-11-13 14:9:15.4770,1.32,-0.56,-1.49,2.06
2022-11-13 14:9:15.4890,0.94,-0.29,-1.22,1.56
2022-11-13 14:9:15.4900,0.69,-0.09,-0.87,1.11
2022-11-13 14:9:15.4900,0.45,-0.01,-0.63,0.77
2022-11-13 14:9:15.4910,0.24,0.02,-0.62,0.66
2022-11-13 14:9:15.5060,0.05,0.0,-0.66,0.66
2022-11-13 14:9:15.5070,-0.09,-0.04,-0.46,0.47
2022-11-13 14:9:15.5140,-0.15,-0.1,-0.1,0.2
2022-11-13 14:9:15.5740,-0.17,-0.24,0.32,0.43
2022-11-13 14:9:15.5760,-0.28,-0.48,0.48,0.73
2022-11-13 14:9:15.5760,-0.37,-0.91,0.45,1.08
2022-11-13 14:9:15.5890,-0.22,-1.33,0.65,1.49
2022-11-13 14:9:15.5890,0.03,-1.45,1.04,1.78
2022-11-13 14:9:15.5900,0.39,-1.02,1.42,1.79
2022-11-13 14:9:15.5910,0.82,-0.22,1.56,1.77
2022-11-13 14:9:15.6060,1.21,0.52,1.5,1.99
2022-11-13 14:9:15.6070,1.43,0.94,1.4,2.21
2022-11-13 14:9:15.6140,1.51,1.11,1.22,2.23
2022-11-13 14:9:15.6740,1.52,1.13,1.03,2.15
2022-11-13 14:9:15.6760,1.5,1.03,0.82,1.99
2022-11-13 14:9:15.6770,1.44,0.8,0.62,1.76
2022-11-13 14:9:15.6890,1.22,0.4,0.31,1.32
2022-11-13 14:9:15.6890,0.85,-0.16,-0.24,0.89
2022-11-13 14:9:15.6900,0.35,-0.93,-1.24,1.58
2022-11-13 14:9:15.6910,-0.32,-1.72,-2.04,2.68
2022-11-13 14:9:15.7050,-0.98,-2.19,-1.97,3.1
2022-11-13 14:9:15.7060,-1.63,-2.46,-1.84,3.47
2022-11-13 14:9:15.7140,-2.36,-2.57,-1.72,3.89
2022-11-13 14:9:15.7750,-3.17,-2.44,-1.51,4.27
2022-11-13 14:9:15.7770,-4.02,-2.18,-1.31,4.75
2022-11-13 14:9:15.7780,-4.8,-1.8,-1.3,5.28
2022-11-13 14:9:15.7890,-5.54,-1.38,-1.41,5.88
2022-11-13 14:9:15.7890,-6.14,-0.95,-1.25,6.33
2022-11-13 14:9:15.7900,-6.61,-0.42,-0.9,6.68
2022-11-13 14:9:15.7910,-7.03,0.18,-0.67,7.06
2022-11-13 14:9:15.8060,-7.31,0.83,-0.48,7.37
2022-11-13 14:9:15.8060,-7.39,1.54,-0.31,7.55
2022-11-13 14:9:15.8140,-7.39,2.3,-0.28,7.74
2022-11-13 14:9:15.8750,-7.16,3.03,-0.23,7.77
2022-11-13 14:9:15.8770,-6.48,3.65,0.08,7.43
2022-11-13 14:9:15.8780,-5.17,4.01,0.64,6.57
2022-11-13 14:9:15.8890,-3.68,3.56,1.45,5.32
2022-11-13 14:9:15.8890,-2.76,2.56,2.32,4.42
2022-11-13 14:9:15.8900,-2.03,1.66,2.98,3.96
2022-11-13 14:9:15.8910,-1.14,0.96,3.07,3.41
2022-11-13 14:9:15.9060,-0.16,0.3,2.6,2.62
2022-11-13 14:9:15.9070,0.75,-0.55,1.38,1.66
2022-11-13 14:9:15.9150,1.45,-1.4,0.09,2.01
2022-11-13 14:9:15.9780,1.95,-2.01,-0.51,2.84
2022-11-13 14:9:15.9800,2.26,-2.24,-0.25,3.19
2022-11-13 14:9:15.9800,2.21,-2.03,0.41,3.02
2022-11-13 14:9:15.9870,1.73,-1.55,1.03,2.54
2022-11-13 14:9:15.9870,1.22,-0.99,1.19,1.97
2022-11-13 14:9:15.9880,0.75,-0.64,0.94,1.36
2022-11-13 14:9:15.9890,0.26,-0.56,0.53,0.81
2022-11-13 14:9:16.0050,-0.03,-0.49,0.03,0.49
2022-11-13 14:9:16.0060,-0.03,-0.31,-0.58,0.65
2022-11-13 14:9:16.0150,0.06,-0.19,-1.04,1.05
2022-11-13 14:9:16.0770,0.16,-0.18,-0.99,1.01
2022-11-13 14:9:16.0790,0.42,-0.13,-0.59,0.73
2022-11-13 14:9:16.0800,0.85,-0.08,-0.07,0.85
2022-11-13 14:9:16.0870,1.47,-0.11,0.56,1.57
2022-11-13 14:9:16.0880,2.24,-0.12,0.96,2.44
2022-11-13 14:9:16.0890,2.95,-0.12,1.0,3.11
2022-11-13 14:9:16.0890,3.45,-0.14,0.98,3.58
2022-11-13 14:9:16.1050,3.62,-0.14,0.86,3.72
2022-11-13 14:9:16.1060,3.52,0.09,0.7,3.59
2022-11-13 14:9:16.1150,2.95,0.53,0.64,3.06
2022-11-13 14:9:16.1770,2.14,0.87,0.6,2.38
2022-11-13 14:9:16.1790,1.54,1.22,0.59,2.05
2022-11-13 14:9:16.1800,1.14,1.53,0.63,2.0
2022-11-13 14:9:16.1880,0.95,1.75,0.63,2.08
2022-11-13 14:9:16.1890,0.85,1.87,0.56,2.12
2022-11-13 14:9:16.1890,0.79,1.86,0.33,2.04
2022-11-13 14:9:16.1900,0.87,1.82,0.07,2.01
2022-11-13 14:9:16.2050,0.95,1.81,-0.15,2.04
2022-11-13 14:9:16.2060,0.95,1.88,-0.29,2.12
2022-11-13 14:9:16.2160,0.86,1.98,-0.45,2.2
2022-11-13 14:9:16.2780,0.73,2.08,-0.5,2.26
2022-11-13 14:9:16.2800,0.67,2.15,-0.36,2.28
2022-11-13 14:9:16.2810,0.7,2.17,-0.19,2.28
2022-11-13 14:9:16.2820,0.78,2.15,-0.21,2.29
2022-11-13 14:9:16.2840,0.82,2.03,-0.34,2.21
2022-11-13 14:9:16.2860,0.79,1.86,-0.61,2.11
2022-11-13 14:9:16.2870,0.7,1.63,-0.96,2.01
2022-11-13 14:9:16.3060,0.63,1.36,-1.27,1.96
2022-11-13 14:9:16.3060,0.65,1.16,-1.51,2.01
2022-11-13 14:9:16.3160,0.74,1.03,-1.62,2.05
2022-11-13 14:9:16.3780,0.92,0.97,-1.55,2.04
2022-11-13 14:9:16.3800,1.27,0.95,-1.53,2.2
2022-11-13 14:9:16.3800,1.76,0.85,-1.66,2.56
2022-11-13 14:9:16.3880,2.21,0.68,-2.14,3.15
2022-11-13 14:9:16.3890,2.39,0.37,-2.41,3.41
2022-11-13 14:9:16.3900,2.43,-0.08,-2.83,3.73
2022-11-13 14:9:16.3910,2.58,-0.72,-3.89,4.72
2022-11-13 14:9:16.4050,2.99,-1.47,-5.2,6.17
2022-11-13 14:9:16.4060,3.74,-2.39,-5.0,6.68
2022-11-13 14:9:16.4160,4.28,-2.89,-2.41,5.69
2022-11-13 14:9:16.4780,3.55,-2.44,0.21,4.31
2022-11-13 14:9:16.4790,1.5,-1.46,1.38,2.5
2022-11-13 14:9:16.4810,-0.17,-0.59,1.17,1.32
2022-11-13 14:9:16.4830,-1.73,-0.1,-1.11,2.05
2022-11-13 14:9:16.4850,-3.17,-0.09,-3.62,4.81
2022-11-13 14:9:16.4860,-3.4,-0.41,-3.41,4.83
2022-11-13 14:9:16.4880,-2.33,-0.66,-0.58,2.49
2022-11-13 14:9:16.4960,-1.14,-0.5,1.84,2.22
2022-11-13 14:9:16.5070,-1.27,-0.38,1.99,2.39
2022-11-13 14:9:16.5170,-2.04,-0.36,0.39,2.1
2022-11-13 14:9:16.5790,-2.71,-0.56,-0.89,2.9
2022-11-13 14:9:16.5800,-2.99,-0.69,-0.38,3.09
2022-11-13 14:9:16.5820,-2.84,-0.39,0.69,2.94
2022-11-13 14:9:16.5840,-2.49,0.21,1.23,2.78
2022-11-13 14:9:16.5860,-2.17,0.83,1.55,2.79
2022-11-13 14:9:16.5870,-1.95,1.37,1.99,3.1
2022-11-13 14:9:16.6050,-1.77,1.76,2.4,3.46
2022-11-13 14:9:16.6060,-1.47,1.97,2.82,3.74
2022-11-13 14:9:16.6070,-1.04,1.83,3.35,3.95
2022-11-13 14:9:16.6170,-0.53,1.29,3.87,4.11
2022-11-13 14:9:16.6790,-0.09,0.62,4.3,4.34
2022-11-13 14:9:16.6800,0.19,0.04,4.29,4.29
2022-11-13 14:9:16.6820,0.36,-0.5,3.74,3.79
2022-11-13 14:9:16.6840,0.63,-0.96,2.73,2.96
2022-11-13 14:9:16.6860,0.97,-1.39,1.48,2.25
2022-11-13 14:9:16.6870,1.32,-1.82,0.47,2.29
2022-11-13 14:9:16.7050,1.62,-2.12,0.2,2.67
2022-11-13 14:9:16.7060,1.88,-2.19,0.58,2.94
2022-11-13 14:9:16.7070,2.07,-2.12,0.94,3.1
2022-11-13 14:9:16.7170,2.2,-1.85,0.93,3.02
2022-11-13 14:9:16.7800,2.26,-1.43,0.68,2.75
2022-11-13 14:9:16.7810,2.09,-0.95,0.43,2.33
2022-11-13 14:9:16.7830,1.88,-0.55,0.25,1.97
2022-11-13 14:9:16.7860,1.74,-0.23,0.09,1.75
2022-11-13 14:9:16.7870,1.6,0.02,-0.11,1.6
2022-11-13 14:9:16.8050,1.56,0.19,-0.2,1.58
2022-11-13 14:9:16.8060,1.54,0.35,0.0,1.57
2022-11-13 14:9:16.8070,1.33,0.43,0.15,1.4
2022-11-13 14:9:16.8100,1.07,0.55,-0.03,1.2
2022-11-13 14:9:16.8170,0.76,0.68,-0.43,1.1
2022-11-13 14:9:16.8790,0.46,0.85,-0.97,1.36
2022-11-13 14:9:16.8800,0.1,0.95,-1.4,1.69
2022-11-13 14:9:16.8820,-0.28,0.95,-1.55,1.83
2022-11-13 14:9:16.8840,-0.57,0.83,-1.46,1.77
2022-11-13 14:9:16.8860,-0.73,0.74,-1.27,1.64
2022-11-13 14:9:16.8870,-0.75,0.46,-0.9,1.25
2022-11-13 14:9:16.9050,-0.55,0.04,-0.58,0.8
2022-11-13 14:9:16.9060,-0.14,-0.36,-0.47,0.6
2022-11-13 14:9:16.9080,0.42,-0.53,-0.46,0.81
2022-11-13 14:9:16.9180,1.04,-0.46,-0.48,1.23
2022-11-13 14:9:16.9800,1.61,-0.46,-0.55,1.76
2022-11-13 14:9:16.9810,2.06,-0.72,-0.53,2.24
2022-11-13 14:9:16.9830,2.32,-1.04,-0.46,2.58
2022-11-13 14:9:16.9860,2.5,-1.17,-0.45,2.79
2022-11-13 14:9:16.9870,2.6,-1.03,-0.5,2.84
2022-11-13 14:9:17.0050,2.6,-0.73,-0.53,2.75
2022-11-13 14:9:17.0060,2.51,-0.32,-0.64,2.61
2022-11-13 14:9:17.0070,2.41,0.0,-1.09,2.64
2022-11-13 14:9:17.0080,2.41,0.07,-1.52,2.85
2022-11-13 14:9:17.0180,2.5,-0.2,-1.42,2.88
2022-11-13 14:9:17.0800,2.54,-0.79,-0.81,2.78
2022-11-13 14:9:17.0810,2.65,-1.31,-0.36,2.97
2022-11-13 14:9:17.0830,2.78,-1.46,-0.29,3.15
2022-11-13 14:9:17.0860,2.75,-1.33,-0.28,3.06
2022-11-13 14:9:17.0870,2.58,-1.05,-0.52,2.83
2022-11-13 14:9:17.1060,2.33,-0.8,-0.61,2.53
2022-11-13 14:9:17.1070,2.21,-0.71,-0.52,2.37
2022-11-13 14:9:17.1070,2.31,-0.81,-0.6,2.52
2022-11-13 14:9:17.1100,2.65,-1.11,-0.73,2.96
2022-11-13 14:9:17.1180,2.96,-1.83,-0.54,3.52
2022-11-13 14:9:17.1800,3.04,-2.65,-0.19,4.03
2022-11-13 14:9:17.1810,2.93,-3.52,0.12,4.58
2022-11-13 14:9:17.1830,2.62,-4.47,0.12,5.18
2022-11-13 14:9:17.1860,2.31,-5.29,-0.24,5.77
2022-11-13 14:9:17.1870,2.14,-5.81,-0.96,6.26
2022-11-13 14:9:17.2050,1.79,-6.1,-2.13,6.7
2022-11-13 14:9:17.2060,0.65,-5.65,-3.66,6.76
2022-11-13 14:9:17.2070,-0.21,-4.3,-5.11,6.68
2022-11-13 14:9:17.2080,-0.2,-3.16,-5.01,5.92
2022-11-13 14:9:17.2190,-0.04,-2.7,-3.17,4.16
2022-11-13 14:9:17.2810,-0.25,-2.48,-1.49,2.9
2022-11-13 14:9:17.2820,-0.79,-2.48,-0.67,2.68
2022-11-13 14:9:17.2840,-1.36,-2.76,0.09,3.07
2022-11-13 14:9:17.2860,-1.62,-2.9,0.98,3.46
2022-11-13 14:9:17.2870,-1.83,-2.88,1.63,3.78
2022-11-13 14:9:17.3050,-2.23,-2.8,1.94,4.07
2022-11-13 14:9:17.3060,-2.7,-2.64,2.01,4.27
2022-11-13 14:9:17.3070,-3.41,-2.58,2.21,4.81
2022-11-13 14:9:17.3090,-4.05,-2.31,2.34,5.21
2022-11-13 14:9:17.3190,-4.48,-1.66,2.25,5.28
2022-11-13 14:9:17.3810,-4.67,-0.74,1.93,5.1
2022-11-13 14:9:17.3820,-4.23,0.26,1.78,4.59
2022-11-13 14:9:17.3840,-2.72,1.15,1.78,3.44
2022-11-13 14:9:17.3860,-0.92,1.42,1.68,2.38
2022-11-13 14:9:17.3870,0.53,1.04,1.5,1.9
2022-11-13 14:9:17.4050,1.41,0.3,0.97,1.73
2022-11-13 14:9:17.4060,2.1,-0.57,1.0,2.39
2022-11-13 14:9:17.4090,2.59,-0.7,1.92,3.29
2022-11-13 14:9:17.4110,2.58,0.57,2.93,3.94
2022-11-13 14:9:17.4190,1.39,2.11,2.91,3.85
2022-11-13 14:9:17.4810,-0.28,2.61,2.46,3.59
2022-11-13 14:9:17.4820,-1.57,2.78,2.32,3.94
2022-11-13 14:9:17.4840,-2.46,3.03,2.5,4.63
2022-11-13 14:9:17.4860,-2.98,3.39,2.82,5.32
2022-11-13 14:9:17.4870,-3.2,3.88,3.02,5.86
2022-11-13 14:9:17.5050,-3.27,4.35,2.95,6.19
2022-11-13 14:9:17.5060,-3.29,4.63,2.44,6.18
2022-11-13 14:9:17.5090,-3.35,4.67,1.74,6.0
2022-11-13 14:9:17.5110,-3.31,4.61,1.02,5.76
2022-11-13 14:9:17.5190,-3.16,4.38,0.59,5.43
2022-11-13 14:9:17.5810,-2.94,4.04,0.6,5.03
2022-11-13 14:9:17.5820,-2.58,3.65,0.85,4.54
2022-11-13 14:9:17.5840,-2.04,3.37,1.02,4.06
2022-11-13 14:9:17.5860,-1.33,3.25,1.0,3.65
2022-11-13 14:9:17.5870,-0.76,3.19,0.82,3.38
2022-11-13 14:9:17.6050,-0.5,3.02,0.69,3.13
2022-11-13 14:9:17.6060,-0.43,2.74,0.6,2.83
2022-11-13 14:9:17.6070,-0.33,2.34,0.55,2.42
2022-11-13 14:9:17.6100,-0.01,1.82,0.53,1.89
2022-11-13 14:9:17.6200,0.53,1.24,0.36,1.39
2022-11-13 14:9:17.6810,1.17,0.56,-0.35,1.34
2022-11-13 14:9:17.6820,1.67,-0.28,-1.76,2.44
2022-11-13 14:9:17.6840,2.09,-1.46,-3.26,4.13
2022-11-13 14:9:17.6860,2.62,-2.99,-3.97,5.61
2022-11-13 14:9:17.6870,3.31,-5.01,-3.93,7.17
2022-11-13 14:9:17.7050,3.87,-6.92,-3.69,8.74
2022-11-13 14:9:17.7060,4.2,-7.68,-3.68,9.49
2022-11-13 14:9:17.7070,3.89,-5.86,-3.78,7.98
2022-11-13 14:9:17.7100,2.92,-2.95,-3.49,5.42
2022-11-13 14:9:17.7200,1.78,-1.37,-3.38,4.05
2022-11-13 14:9:17.7810,0.85,-0.3,-3.8,3.9
2022-11-13 14:9:17.7820,0.72,0.33,-4.2,4.27
2022-11-13 14:9:17.7850,0.35,0.91,-1.12,1.48
2022-11-13 14:9:17.7850,-1.26,0.96,3.12,3.49
2022-11-13 14:9:17.7870,-3.79,-0.54,3.81,5.4
2022-11-13 14:9:17.7900,-5.68,-2.53,0.4,6.23
2022-11-13 14:9:17.7920,-7.35,-3.99,-4.48,9.48
2022-11-13 14:9:17.8000,-8.06,-5.09,-3.58,10.18
2022-11-13 14:9:17.8100,-6.44,-4.64,2.11,8.21
2022-11-13 14:9:17.8200,-3.85,-1.03,2.55,4.73
2022-11-13 14:9:17.8810,-2.94,1.45,1.72,3.7
2022-11-13 14:9:17.8820,-3.33,1.75,1.75,4.14
2022-11-13 14:9:17.8840,-3.76,1.48,1.89,4.46
2022-11-13 14:9:17.8860,-3.84,1.31,1.74,4.41
2022-11-13 14:9:17.8870,-3.7,1.56,1.35,4.23
2022-11-13 14:9:17.9050,-3.45,2.14,0.9,4.15
2022-11-13 14:9:17.9060,-3.23,2.53,1.09,4.24
2022-11-13 14:9:17.9060,-3.03,2.45,2.02,4.38
2022-11-13 14:9:17.9110,-2.64,2.02,3.15,4.57
2022-11-13 14:9:17.9210,-2.12,1.6,3.79,4.62
2022-11-13 14:9:17.9810,-1.53,1.37,4.1,4.58
2022-11-13 14:9:17.9820,-0.76,1.12,4.79,4.97
2022-11-13 14:9:17.9840,-0.22,0.8,5.17,5.23
2022-11-13 14:9:17.9860,-0.1,0.55,4.88,4.91
2022-11-13 14:9:17.9870,-0.08,0.29,3.92,3.93
2022-11-13 14:9:18.0050,-0.07,-0.04,2.31,2.31
2022-11-13 14:9:18.0060,-0.03,-0.16,0.63,0.65
2022-11-13 14:9:18.0070,-0.04,-0.11,-0.65,0.66
2022-11-13 14:9:18.0110,0.04,-0.13,-1.09,1.09
2022-11-13 14:9:18.0210,0.1,-0.09,-1.13,1.13
2022-11-13 14:9:18.0820,0.11,0.01,-1.12,1.12
2022-11-13 14:9:18.0830,0.29,0.16,-0.81,0.87
2022-11-13 14:9:18.0850,0.5,0.26,-0.47,0.73
2022-11-13 14:9:18.0860,0.69,0.25,-0.23,0.76
2022-11-13 14:9:18.1050,0.68,0.19,-0.25,0.74
2022-11-13 14:9:18.1060,0.52,0.06,-0.24,0.57
2022-11-13 14:9:18.1070,0.41,0.05,0.11,0.42
2022-11-13 14:9:18.1080,0.32,0.36,0.49,0.68
2022-11-13 14:9:18.1210,0.18,0.86,0.38,0.95
2022-11-13 14:9:18.1220,0.01,1.31,0.07,1.31
2022-11-13 14:9:18.1820,0.04,1.45,-0.1,1.45
2022-11-13 14:9:18.1840,0.45,1.18,-0.14,1.27
2022-11-13 14:9:18.1850,0.9,0.62,-0.32,1.13
2022-11-13 14:9:18.1860,1.21,0.1,-0.39,1.27
2022-11-13 14:9:18.2050,1.54,-0.23,-0.31,1.58
2022-11-13 14:9:18.2060,1.92,-0.4,-0.23,1.97
2022-11-13 14:9:18.2070,2.29,-0.34,-0.34,2.33
2022-11-13 14:9:18.2080,2.51,-0.37,-0.51,2.58
2022-11-13 14:9:18.2210,2.46,-0.51,-0.62,2.58
2022-11-13 14:9:18.2220,2.3,-0.51,-0.86,2.5
2022-11-13 14:9:18.2830,1.83,-0.31,-1.15,2.18
2022-11-13 14:9:18.2840,1.09,0.03,-1.42,1.79
2022-11-13 14:9:18.2850,0.56,0.37,-1.43,1.57
2022-11-13 14:9:18.2860,0.49,0.38,-1.27,1.41
2022-11-13 14:9:18.3050,0.67,-0.07,-0.74,1.0
2022-11-13 14:9:18.3060,1.06,-0.88,0.2,1.39
2022-11-13 14:9:18.3070,1.73,-1.75,0.87,2.61
2022-11-13 14:9:18.3080,2.47,-2.37,0.92,3.54
2022-11-13 14:9:18.3120,3.05,-2.61,0.59,4.05
2022-11-13 14:9:18.3220,3.68,-2.69,0.35,4.57
2022-11-13 14:9:18.3830,4.24,-2.59,-0.04,4.96
2022-11-13 14:9:18.3840,4.42,-2.37,-0.53,5.04
2022-11-13 14:9:18.3850,4.17,-2.13,-0.99,4.78
2022-11-13 14:9:18.3860,3.71,-1.97,-1.32,4.4
2022-11-13 14:9:18.4050,3.31,-1.98,-1.17,4.03
2022-11-13 14:9:18.4060,3.16,-2.22,-0.64,3.91
2022-11-13 14:9:18.4070,3.25,-2.87,0.08,4.33
2022-11-13 14:9:18.4080,3.14,-3.81,0.87,5.01
2022-11-13 14:9:18.4120,2.81,-4.66,1.02,5.53
2022-11-13 14:9:18.4220,2.68,-5.57,0.29,6.18
2022-11-13 14:9:18.4830,2.57,-6.37,-0.8,6.91
2022-11-13 14:9:18.4840,2.21,-6.82,-2.04,7.45
2022-11-13 14:9:18.4860,1.67,-6.73,-3.68,7.85
2022-11-13 14:9:18.4870,1.14,-5.14,-4.72,7.07
2022-11-13 14:9:18.5050,1.24,-2.73,-4.3,5.24
2022-11-13 14:9:18.5060,1.26,-1.14,-2.89,3.35
2022-11-13 14:9:18.5070,0.56,-0.88,-1.41,1.75
2022-11-13 14:9:18.5080,-0.87,-1.74,-0.25,1.96
2022-11-13 14:9:18.5210,-2.02,-2.85,0.97,3.62
2022-11-13 14:9:18.5220,-2.22,-3.3,2.02,4.46
2022-11-13 14:9:18.5830,-2.28,-3.58,2.46,4.9
2022-11-13 14:9:18.5850,-2.48,-3.86,2.8,5.37
2022-11-13 14:9:18.5850,-2.82,-3.7,3.35,5.73
2022-11-13 14:9:18.5860,-3.38,-3.2,3.68,5.93
2022-11-13 14:9:18.5870,-3.95,-2.32,4.06,6.12
2022-11-13 14:9:18.6050,-4.57,-1.42,4.06,6.27
2022-11-13 14:9:18.6060,-4.32,-0.06,3.32,5.44
2022-11-13 14:9:18.6070,-3.04,1.39,1.65,3.72
2022-11-13 14:9:18.6130,-1.48,2.16,-0.16,2.62
2022-11-13 14:9:18.6230,-0.02,2.02,-1.41,2.46
2022-11-13 14:9:18.6840,1.01,1.19,-1.21,1.97
2022-11-13 14:9:18.6840,1.71,0.59,0.94,2.03
2022-11-13 14:9:18.6870,2.14,0.85,3.51,4.19
2022-11-13 14:9:18.6890,1.86,1.68,4.72,5.34
2022-11-13 14:9:18.6910,0.27,2.01,4.05,4.52
2022-11-13 14:9:18.6940,-1.65,1.93,2.66,3.67
2022-11-13 14:9:18.6960,-2.88,2.14,2.26,4.24
2022-11-13 14:9:18.7030,-3.5,2.84,2.57,5.18
2022-11-13 14:9:18.7130,-3.72,3.78,3.04,6.11
2022-11-13 14:9:18.7230,-3.78,4.67,3.47,6.93
2022-11-13 14:9:18.7840,-3.84,5.48,3.3,7.46
2022-11-13 14:9:18.7850,-4.0,6.1,2.43,7.68
2022-11-13 14:9:18.7860,-4.0,6.51,1.31,7.75
2022-11-13 14:9:18.7880,-3.7,6.65,0.44,7.62
2022-11-13 14:9:18.7900,-3.42,6.54,-0.03,7.38
2022-11-13 14:9:18.7930,-3.27,6.32,0.01,7.11
2022-11-13 14:9:18.7950,-3.04,5.96,0.41,6.7
2022-11-13 14:9:18.8030,-2.49,5.36,0.79,5.96
2022-11-13 14:9:18.8130,-1.61,4.49,1.02,4.87
2022-11-13 14:9:18.8230,-0.68,3.35,1.2,3.62
2022-11-13 14:9:18.8840,0.2,1.89,1.1,2.19
2022-11-13 14:9:18.8850,0.91,-0.04,0.31,0.96
2022-11-13 14:9:18.8860,1.48,-2.42,-1.27,3.1
2022-11-13 14:9:18.8880,2.3,-5.02,-3.34,6.45
2022-11-13 14:9:18.8900,3.62,-7.58,-5.24,9.9
2022-11-13 14:9:18.8920,5.43,-9.62,-5.46,12.32
2022-11-13 14:9:18.8950,6.83,-10.4,-4.16,13.11
2022-11-13 14:9:18.9030,7.67,-9.63,-3.29,12.74
2022-11-13 14:9:18.9130,7.77,-5.48,-3.04,9.98
2022-11-13 14:9:18.9240,6.11,-1.14,-2.28,6.62
2022-11-13 14:9:18.9840,2.97,0.83,-1.67,3.5
2022-11-13 14:9:18.9850,0.65,1.79,-2.04,2.79
2022-11-13 14:9:18.9860,-0.26,2.34,-0.84,2.49
2022-11-13 14:9:18.9880,-1.01,3.28,3.24,4.71
2022-11-13 14:9:18.9900,-2.6,4.26,5.18,7.19
2022-11-13 14:9:18.9920,-5.16,3.56,3.54,7.19
2022-11-13 14:9:18.9950,-7.4,1.15,0.78,7.52
2022-11-13 14:9:19.0040,-9.03,-2.1,-2.21,9.53
2022-11-13 14:9:19.0140,-10.32,-6.25,-6.17,13.55
2022-11-13 14:9:19.0240,-8.8,-9.36,-2.06,13.01
2022-11-13 14:9:19.0840,-5.22,-7.86,3.82,10.17
2022-11-13 14:9:19.0850,-2.55,-2.68,2.39,4.4
2022-11-13 14:9:19.0860,-2.07,0.59,1.01,2.37
2022-11-13 14:9:19.0890,-2.9,1.41,1.45,3.53
2022-11-13 14:9:19.0910,-3.5,1.56,2.0,4.32
2022-11-13 14:9:19.0930,-3.52,1.96,1.83,4.42
2022-11-13 14:9:19.0950,-3.38,2.47,1.26,4.37
2022-11-13 14:9:19.1040,-3.27,2.92,0.8,4.45
2022-11-13 14:9:19.1140,-3.25,3.15,0.85,4.6
2022-11-13 14:9:19.1240,-3.16,3.09,1.68,4.72
2022-11-13 14:9:19.1850,-2.84,2.64,3.02,4.91
2022-11-13 14:9:19.1860,-2.42,2.06,3.84,4.98
2022-11-13 14:9:19.1870,-1.95,1.64,3.96,4.7
2022-11-13 14:9:19.1890,-1.36,1.42,4.07,4.52
2022-11-13 14:9:19.1910,-0.71,1.06,4.22,4.4
2022-11-13 14:9:19.1930,-0.25,0.52,4.54,4.57
2022-11-13 14:9:19.1960,0.08,0.1,4.39,4.39
2022-11-13 14:9:19.2040,0.32,0.07,2.88,2.89
2022-11-13 14:9:19.2140,0.54,-0.02,0.89,1.04
2022-11-13 14:9:19.2240,0.73,-0.3,-0.44,0.9
2022-11-13 14:9:19.2860,0.72,-0.64,-1.01,1.39
2022-11-13 14:9:19.2860,0.51,-0.73,-1.35,1.61
2022-11-13 14:9:19.2890,0.37,-0.44,-1.7,1.79
2022-11-13 14:9:19.2910,0.45,-0.11,-1.76,1.81
2022-11-13 14:9:19.2930,0.72,0.06,-1.32,1.5
2022-11-13 14:9:19.2960,0.9,0.2,-0.74,1.18
2022-11-13 14:9:19.2980,0.82,0.29,-0.41,0.96
2022-11-13 14:9:19.3050,0.69,0.25,-0.28,0.78
2022-11-13 14:9:19.3150,0.75,0.26,-0.14,0.8
2022-11-13 14:9:19.3250,0.92,0.33,0.4,1.05
2022-11-13 14:9:19.3860,0.95,0.51,0.92,1.41
2022-11-13 14:9:19.3870,0.87,0.78,1.1,1.6
2022-11-13 14:9:19.3890,0.79,1.0,1.0,1.61
2022-11-13 14:9:19.3910,0.75,0.97,0.69,1.4
2022-11-13 14:9:19.3940,0.77,0.58,0.26,0.99
2022-11-13 14:9:19.3960,0.93,0.26,-0.15,0.97
2022-11-13 14:9:19.3980,1.26,0.11,-0.44,1.33
2022-11-13 14:9:19.4050,1.59,0.05,-0.6,1.7
2022-11-13 14:9:19.4150,1.76,0.01,-0.47,1.82
2022-11-13 14:9:19.4250,1.81,-0.01,-0.23,1.82
2022-11-13 14:9:19.4860,1.71,-0.08,-0.04,1.71
2022-11-13 14:9:19.4870,1.56,-0.21,-0.12,1.57
2022-11-13 14:9:19.4880,1.26,-0.34,-0.42,1.37
2022-11-13 14:9:19.4900,0.85,-0.43,-1.04,1.41
2022-11-13 14:9:19.4920,0.59,-0.48,-1.7,1.86
2022-11-13 14:9:19.4940,0.54,-0.44,-1.77,1.9
2022-11-13 14:9:19.4970,0.73,-0.43,-1.36,1.6
2022-11-13 14:9:19.5050,1.26,-0.67,-0.8,1.63
2022-11-13 14:9:19.5150,2.1,-1.28,-0.27,2.47
2022-11-13 14:9:19.5260,2.99,-1.92,0.07,3.55
2022-11-13 14:9:19.5860,3.8,-2.31,0.24,4.45
2022-11-13 14:9:19.5870,4.47,-2.53,0.36,5.14
2022-11-13 14:9:19.5890,4.99,-2.66,0.32,5.66
2022-11-13 14:9:19.5910,5.36,-2.75,0.0,6.02
2022-11-13 14:9:19.5940,5.45,-2.84,-0.39,6.15
2022-11-13 14:9:19.5960,5.13,-2.82,-0.57,5.88
2022-11-13 14:9:19.5980,4.46,-2.66,-0.21,5.19
2022-11-13 14:9:19.6050,3.84,-2.8,0.73,4.8
2022-11-13 14:9:19.6160,3.31,-3.72,1.7,5.26
2022-11-13 14:9:19.6260,2.59,-5.03,1.86,5.95
2022-11-13 14:9:19.6860,1.76,-6.05,1.2,6.41
2022-11-13 14:9:19.6870,0.96,-6.71,0.1,6.77
2022-11-13 14:9:19.6890,0.63,-6.9,-1.24,7.03
2022-11-13 14:9:19.6920,0.74,-6.45,-2.84,7.08
2022-11-13 14:9:19.6940,0.76,-5.33,-3.92,6.65
2022-11-13 14:9:19.6960,0.95,-3.82,-4.11,5.69
2022-11-13 14:9:19.6980,1.04,-2.59,-3.32,4.33
2022-11-13 14:9:19.7060,0.62,-2.05,-1.97,2.9
2022-11-13 14:9:19.7160,-0.21,-1.85,-0.9,2.06
2022-11-13 14:9:19.7260,-1.13,-1.73,-0.22,2.07
2022-11-13 14:9:19.7870,-1.83,-1.86,0.3,2.62
2022-11-13 14:9:19.7880,-2.43,-2.31,0.94,3.48
2022-11-13 14:9:19.7900,-2.87,-2.76,1.5,4.25
2022-11-13 14:9:19.7930,-3.13,-2.79,1.65,4.5
2022-11-13 14:9:19.7950,-3.46,-2.65,1.49,4.6
2022-11-13 14:9:19.7970,-3.94,-2.6,1.4,4.92
2022-11-13 14:9:19.7990,-4.63,-2.4,1.52,5.43
2022-11-13 14:9:19.8060,-5.38,-1.9,1.51,5.9
2022-11-13 14:9:19.8160,-6.03,-1.07,1.39,6.27
2022-11-13 14:9:19.8260,-6.4,-0.12,1.55,6.58
2022-11-13 14:9:19.8880,-5.84,0.83,1.82,6.17
2022-11-13 14:9:19.8900,-4.27,1.48,1.05,4.63
2022-11-13 14:9:19.8900,-2.41,1.52,0.41,2.87
2022-11-13 14:9:19.8910,-0.89,1.23,0.71,1.67
2022-11-13 14:9:19.8920,0.1,0.73,1.42,1.59
2022-11-13 14:9:19.9050,0.95,0.55,2.81,3.01
2022-11-13 14:9:19.9060,1.46,1.27,4.12,4.55
2022-11-13 14:9:19.9090,1.19,2.48,4.63,5.38
2022-11-13 14:9:19.9160,0.08,3.41,3.89,5.17
2022-11-13 14:9:19.9270,-1.39,3.83,2.86,4.97
2022-11-13 14:9:19.9880,-2.57,4.18,2.63,5.56
2022-11-13 14:9:19.9900,-3.33,4.76,2.7,6.4
2022-11-13 14:9:19.9900,-3.78,5.56,2.62,7.21
2022-11-13 14:9:19.9910,-4.03,6.3,2.33,7.83
2022-11-13 14:9:19.9920,-4.05,6.86,1.65,8.13
2022-11-13 14:9:20.0050,-3.83,7.18,0.77,8.17
2022-11-13 14:9:20.0060,-3.65,7.24,-0.01,8.1
2022-11-13 14:9:20.0070,-3.67,7.04,-0.32,7.94
2022-11-13 14:9:20.0170,-3.66,6.78,-0.2,7.7
2022-11-13 14:9:20.0270,-3.39,6.59,0.12,7.41
2022-11-13 14:9:20.0880,-2.86,6.32,0.37,6.94
2022-11-13 14:9:20.0890,-2.23,5.55,0.82,6.03
2022-11-13 14:9:20.0900,-1.62,3.97,1.43,4.51
2022-11-13 14:9:20.0910,-1.05,1.15,1.02,1.86
2022-11-13 14:9:20.0920,0.02,-3.71,-1.54,4.01
2022-11-13 14:9:20.1040,2.29,-9.36,-3.85,10.37
2022-11-13 14:9:20.1050,5.67,-12.7,-3.65,14.37
2022-11-13 14:9:20.1070,8.8,-15.15,-4.34,18.04
2022-11-13 14:9:20.1170,10.52,-14.73,-5.94,19.05
2022-11-13 14:9:20.1270,10.77,-6.98,-5.65,14.02
2022-11-13 14:9:20.1880,9.23,0.4,-4.81,10.41
2022-11-13 14:9:20.1900,5.77,3.0,-3.58,7.42
2022-11-13 14:9:20.1910,1.51,2.73,1.54,3.47
2022-11-13 14:9:20.1920,-1.77,2.65,6.18,6.95
2022-11-13 14:9:20.1930,-4.47,2.75,4.89,7.17
2022-11-13 14:9:20.2050,-6.44,1.11,2.51,7.0
2022-11-13 14:9:20.2060,-7.99,-1.47,1.09,8.19
2022-11-13 14:9:20.2070,-9.27,-4.17,-0.5,10.17
2022-11-13 14:9:20.2170,-9.75,-6.62,-2.31,12.0
2022-11-13 14:9:20.2270,-8.38,-7.18,-1.44,11.12
2022-11-13 14:9:20.2880,-5.76,-4.26,-0.24,7.16
2022-11-13 14:9:20.2900,-3.75,-0.73,0.31,3.83
2022-11-13 14:9:20.2910,-2.96,1.01,1.06,3.3
2022-11-13 14:9:20.2920,-2.76,1.66,1.65,3.61
2022-11-13 14:9:20.2930,-2.85,2.2,1.82,4.03
2022-11-13 14:9:20.3050,-2.98,2.77,1.43,4.31
2022-11-13 14:9:20.3060,-2.94,3.3,0.91,4.51
2022-11-13 14:9:20.3070,-2.98,3.75,0.75,4.84
2022-11-13 14:9:20.3180,-3.07,3.63,1.39,4.95
2022-11-13 14:9:20.3280,-2.71,3.1,2.37,4.75
2022-11-13 14:9:20.3900,-2.15,2.72,3.13,4.67
2022-11-13 14:9:20.3910,-1.4,2.34,3.78,4.66
2022-11-13 14:9:20.3920,-0.65,1.71,4.62,4.96
2022-11-13 14:9:20.3930,-0.32,0.92,5.32,5.4
2022-11-13 14:9:20.3940,-0.18,0.35,4.72,4.73
2022-11-13 14:9:20.4050,-0.38,-0.07,3.01,3.03
2022-11-13 14:9:20.4060,-0.18,-0.24,1.17,1.2
2022-11-13 14:9:20.4080,-0.03,-0.26,-0.74,0.78
2022-11-13 14:9:20.4180,0.6,-0.42,-2.03,2.15
2022-11-13 14:9:20.4280,0.92,-0.8,-2.35,2.64
2022-11-13 14:9:20.4890,0.99,-1.01,-1.95,2.4
2022-11-13 14:9:20.4910,0.96,-0.92,-1.1,1.72
2022-11-13 14:9:20.4920,0.75,-0.47,-0.43,0.98
2022-11-13 14:9:20.4930,0.54,0.06,-0.24,0.59
2022-11-13 14:9:20.4930,0.41,0.45,-0.24,0.65
2022-11-13 14:9:20.5050,0.21,0.65,-0.15,0.69
2022-11-13 14:9:20.5060,-0.08,0.62,0.23,0.66
2022-11-13 14:9:20.5080,-0.24,0.7,0.82,1.1
2022-11-13 14:9:20.5180,-0.39,0.93,1.21,1.57
2022-11-13 14:9:20.5280,-0.48,1.31,1.25,1.87
2022-11-13 14:9:20.5900,-0.45,1.68,0.87,1.94
2022-11-13 14:9:20.5920,-0.34,1.65,0.31,1.71
2022-11-13 14:9:20.5930,-0.14,1.04,-0.31,1.09
2022-11-13 14:9:20.6050,0.15,0.27,-0.79,0.84
2022-11-13 14:9:20.6060,0.49,-0.25,-0.87,1.02
2022-11-13 14:9:20.6060,0.78,-0.43,-0.54,1.04
2022-11-13 14:9:20.6070,1.07,-0.32,-0.07,1.11
2022-11-13 14:9:20.6220,1.34,-0.15,0.28,1.37
2022-11-13 14:9:20.6230,1.5,-0.08,0.4,1.55
2022-11-13 14:9:20.6280,1.52,-0.2,0.3,1.56
2022-11-13 14:9:20.6890,1.37,-0.42,0.12,1.43
2022-11-13 14:9:20.6910,1.14,-0.55,-0.25,1.29
2022-11-13 14:9:20.6920,0.81,-0.41,-0.73,1.16
2022-11-13 14:9:20.6920,0.58,0.01,-1.2,1.33
2022-11-13 14:9:20.6930,0.61,0.38,-1.3,1.48
2022-11-13 14:9:20.7050,0.99,0.47,-1.12,1.56
2022-11-13 14:9:20.7060,1.55,0.1,-0.99,1.84
2022-11-13 14:9:20.7090,2.01,-0.47,-0.21,2.07
2022-11-13 14:9:20.7190,2.36,-0.82,0.68,2.58
2022-11-13 14:9:20.7290,2.6,-0.85,1.1,2.94
2022-11-13 14:9:20.7900,2.87,-0.58,1.18,3.15
2022-11-13 14:9:20.7920,3.04,-0.3,1.19,3.27
2022-11-13 14:9:20.7930,2.99,-0.24,1.15,3.21
2022-11-13 14:9:20.8050,2.7,-0.4,0.88,2.86
2022-11-13 14:9:20.8060,2.29,-0.8,0.5,2.47
2022-11-13 14:9:20.8060,1.7,-1.44,0.26,2.24
2022-11-13 14:9:20.8070,0.98,-2.1,-0.17,2.32
2022-11-13 14:9:20.8220,0.55,-3.16,-0.76,3.29
2022-11-13 14:9:20.8230,-0.18,-4.45,-1.18,4.6
2022-11-13 14:9:20.8290,-1.12,-5.47,-1.46,5.77
2022-11-13 14:9:20.8900,-1.57,-6.21,-1.62,6.6
2022-11-13 14:9:20.8920,-1.57,-6.7,-1.93,7.14
2022-11-13 14:9:20.8920,-1.51,-6.27,-2.72,6.99
2022-11-13 14:9:20.9050,-1.09,-4.58,-3.53,5.88
2022-11-13 14:9:20.9060,-0.41,-2.8,-3.81,4.74
2022-11-13 14:9:20.9070,-0.28,-1.88,-3.75,4.2
2022-11-13 14:9:20.9070,-0.94,-1.45,-3.36,3.77
2022-11-13 14:9:20.9220,-1.87,-1.05,-2.29,3.13
2022-11-13 14:9:20.9230,-2.76,-0.76,-1.56,3.26
2022-11-13 14:9:20.9290,-3.46,-0.68,-1.1,3.69
2022-11-13 14:9:20.9900,-3.95,-1.0,-0.31,4.08
2022-11-13 14:9:20.9920,-4.45,-1.4,0.5,4.69
2022-11-13 14:9:20.9920,-4.99,-1.68,1.05,5.36
2022-11-13 14:9:21.0050,-5.57,-1.55,1.23,5.91
2022-11-13 14:9:21.0060,-6.13,-0.91,1.0,6.27
2022-11-13 14:9:21.0070,-6.61,0.08,0.51,6.63
2022-11-13 14:9:21.0070,-6.83,1.33,-0.07,6.95
2022-11-13 14:9:21.0220,-6.72,2.59,-0.35,7.21
2022-11-13 14:9:21.0230,-6.1,3.48,-0.24,7.02
2022-11-13 14:9:21.0300,-4.46,3.41,0.36,5.62
2022-11-13 14:9:21.0900,-2.69,2.39,1.31,3.82
2022-11-13 14:9:21.0920,-1.85,1.07,1.88,2.84
2022-11-13 14:9:21.0930,-1.37,0.04,1.94,2.37
2022-11-13 14:9:21.1050,-0.8,-0.83,1.65,2.01
2022-11-13 14:9:21.1060,-0.19,-1.12,0.94,1.47
2022-11-13 14:9:21.1060,0.32,-0.76,0.94,1.25
2022-11-13 14:9:21.1070,0.42,0.29,1.38,1.47
2022-11-13 14:9:21.1220,-0.34,1.78,1.77,2.53
2022-11-13 14:9:21.1230,-1.69,2.72,1.78,3.66
2022-11-13 14:9:21.1300,-2.96,3.07,1.58,4.54
2022-11-13 14:9:21.1910,-3.95,3.24,1.53,5.33
2022-11-13 14:9:21.1930,-4.5,3.41,1.51,5.84
2022-11-13 14:9:21.1930,-4.72,3.65,1.37,6.12
2022-11-13 14:9:21.2050,-4.57,4.15,1.06,6.26
2022-11-13 14:9:21.2060,-4.13,4.87,0.67,6.42
2022-11-13 14:9:21.2060,-3.77,5.57,0.15,6.72
2022-11-13 14:9:21.2070,-3.75,6.14,-0.38,7.2
2022-11-13 14:9:21.2220,-3.89,6.52,-0.71,7.62
2022-11-13 14:9:21.2230,-4.04,6.61,-0.84,7.79
2022-11-13 14:9:21.2300,-4.2,6.38,-0.62,7.66
2022-11-13 14:9:21.2910,-4.13,5.94,0.06,7.23
2022-11-13 14:9:21.2930,-3.83,5.24,1.03,6.57
2022-11-13 14:9:21.2940,-3.32,4.26,2.04,5.77
2022-11-13 14:9:21.3050,-2.57,2.83,2.79,4.73
2022-11-13 14:9:21.3060,-1.4,0.97,3.32,3.73
2022-11-13 14:9:21.3060,0.07,-0.91,2.91,3.04
2022-11-13 14:9:21.3070,1.97,-2.77,1.57,3.74
2022-11-13 14:9:21.3220,4.14,-4.35,0.09,6.0
2022-11-13 14:9:21.3220,6.22,-5.29,-0.56,8.18
2022-11-13 14:9:21.3310,7.95,-5.52,-0.6,9.69
2022-11-13 14:9:21.3920,9.04,-5.31,0.44,10.49
2022-11-13 14:9:21.3940,9.49,-5.03,1.23,10.81
2022-11-13 14:9:21.3940,9.14,-4.7,0.59,10.29
2022-11-13 14:9:21.4050,7.46,-4.28,-0.77,8.63
2022-11-13 14:9:21.4050,5.32,-3.98,-1.05,6.72
2022-11-13 14:9:21.4060,3.4,-3.62,-0.91,5.04
2022-11-13 14:9:21.4070,1.69,-3.35,-0.82,3.84
2022-11-13 14:9:21.4220,0.17,-3.22,-0.53,3.26
2022-11-13 14:9:21.4230,-1.14,-3.1,-0.43,3.33
2022-11-13 14:9:21.4310,-2.71,-3.17,-0.8,4.24
2022-11-13 14:9:21.4910,-4.7,-3.53,-1.38,6.03
2022-11-13 14:9:21.4930,-6.75,-3.5,-2.06,7.87
2022-11-13 14:9:21.4940,-8.32,-2.43,-3.05,9.18
2022-11-13 14:9:21.5050,-8.48,-0.37,-3.76,9.28
2022-11-13 14:9:21.5060,-7.99,1.95,-4.33,9.29
2022-11-13 14:9:21.5070,-7.94,3.79,-4.81,10.02
2022-11-13 14:9:21.5070,-8.23,4.88,-4.87,10.73
2022-11-13 14:9:21.5220,-8.39,5.17,-4.18,10.7
2022-11-13 14:9:21.5230,-8.16,4.64,-2.5,9.71
