time,ax,ay,az,atotal
2022-11-11 9:33:10.4450,-0.02,-0.16,0.79,0.8
2022-11-11 9:33:10.4470,-0.05,-0.18,0.87,0.88
2022-11-11 9:33:10.4660,-0.01,-0.12,0.89,0.89
2022-11-11 9:33:10.4660,0.06,-0.03,0.96,0.96
2022-11-11 9:33:10.4980,0.14,0.03,0.94,0.95
2022-11-11 9:33:10.4980,0.23,0.11,0.85,0.88
2022-11-11 9:33:10.5110,0.34,0.17,0.89,0.96
2022-11-11 9:33:10.5110,0.51,0.2,1.01,1.14
2022-11-11 9:33:10.5280,0.75,0.2,0.99,1.25
2022-11-11 9:33:10.5290,0.97,0.14,0.89,1.32
2022-11-11 9:33:10.5440,1.1,0.06,0.89,1.41
2022-11-11 9:33:10.5450,1.16,0.01,0.89,1.46
2022-11-11 9:33:10.5610,1.23,0.0,0.88,1.51
2022-11-11 9:33:10.5620,1.3,0.03,0.92,1.59
2022-11-11 9:33:10.5930,1.33,0.02,0.86,1.58
2022-11-11 9:33:10.5930,1.35,0.0,0.91,1.62
2022-11-11 9:33:10.6120,1.33,-0.03,0.91,1.61
2022-11-11 9:33:10.6130,1.3,-0.11,0.83,1.54
2022-11-11 9:33:10.6280,1.26,-0.27,0.83,1.53
2022-11-11 9:33:10.6290,1.24,-0.43,0.77,1.52
2022-11-11 9:33:10.6440,1.25,-0.6,0.6,1.51
2022-11-11 9:33:10.6450,1.23,-0.88,0.33,1.54
2022-11-11 9:33:10.6610,1.23,-1.13,0.15,1.67
2022-11-11 9:33:10.6610,1.19,-1.24,0.04,1.71
2022-11-11 9:33:10.6930,1.06,-1.28,0.06,1.66
2022-11-11 9:33:10.6940,0.97,-1.36,-0.05,1.67
2022-11-11 9:33:10.7130,0.93,-1.47,-0.27,1.76
2022-11-11 9:33:10.7130,0.91,-1.49,-0.24,1.76
2022-11-11 9:33:10.7280,0.82,-1.45,-0.17,1.67
2022-11-11 9:33:10.7290,0.73,-1.46,-0.27,1.65
2022-11-11 9:33:10.7440,0.69,-1.46,-0.25,1.63
2022-11-11 9:33:10.7440,0.63,-1.37,-0.09,1.51
2022-11-11 9:33:10.7600,0.62,-1.27,-0.09,1.41
2022-11-11 9:33:10.7610,0.64,-1.2,-0.13,1.36
2022-11-11 9:33:10.7930,0.72,-1.23,-0.14,1.43
2022-11-11 9:33:10.7940,0.82,-1.33,-0.32,1.59
2022-11-11 9:33:10.8130,0.93,-1.37,-0.48,1.72
2022-11-11 9:33:10.8140,0.91,-1.29,-0.48,1.65
2022-11-11 9:33:10.8280,0.83,-1.14,-0.49,1.49
2022-11-11 9:33:10.8290,0.84,-0.97,-0.51,1.38
2022-11-11 9:33:10.8440,0.88,-0.77,-0.46,1.25
2022-11-11 9:33:10.8450,0.89,-0.56,-0.38,1.11
2022-11-11 9:33:10.8610,0.88,-0.36,-0.18,0.96
2022-11-11 9:33:10.8610,0.9,-0.21,-0.03,0.92
2022-11-11 9:33:10.8930,0.86,-0.07,0.07,0.86
2022-11-11 9:33:10.8940,0.78,0.02,0.14,0.79
2022-11-11 9:33:10.9120,0.74,0.09,0.12,0.75
2022-11-11 9:33:10.9130,0.72,0.14,0.11,0.74
2022-11-11 9:33:10.9280,0.67,0.18,0.12,0.7
2022-11-11 9:33:10.9290,0.65,0.19,0.12,0.68
2022-11-11 9:33:10.9440,0.66,0.1,-0.01,0.66
2022-11-11 9:33:10.9450,0.63,-0.02,-0.14,0.64
2022-11-11 9:33:10.9610,0.57,-0.1,-0.16,0.6
2022-11-11 9:33:10.9610,0.44,-0.13,-0.17,0.48
2022-11-11 9:33:10.9930,0.22,-0.14,-0.16,0.3
2022-11-11 9:33:10.9940,0.08,-0.15,-0.19,0.25
2022-11-11 9:33:11.0120,-0.02,-0.17,-0.18,0.24
2022-11-11 9:33:11.0130,-0.13,-0.2,-0.06,0.24
2022-11-11 9:33:11.0280,-0.28,-0.19,0.11,0.35
2022-11-11 9:33:11.0290,-0.44,-0.12,0.29,0.54
2022-11-11 9:33:11.0440,-0.58,-0.04,0.5,0.76
2022-11-11 9:33:11.0440,-0.71,-0.04,0.72,1.01
2022-11-11 9:33:11.0610,-0.77,-0.16,0.91,1.2
2022-11-11 9:33:11.0620,-0.78,-0.31,0.98,1.29
2022-11-11 9:33:11.0940,-0.85,-0.44,1.22,1.55
2022-11-11 9:33:11.0950,-0.96,-0.51,1.48,1.83
2022-11-11 9:33:11.1130,-1.1,-0.6,1.57,2.0
2022-11-11 9:33:11.1140,-1.19,-0.78,1.62,2.15
2022-11-11 9:33:11.1280,-1.19,-1.02,1.56,2.21
2022-11-11 9:33:11.1290,-1.19,-1.24,1.39,2.21
2022-11-11 9:33:11.1440,-1.25,-1.36,1.23,2.21
2022-11-11 9:33:11.1440,-1.39,-1.36,1.02,2.19
2022-11-11 9:33:11.1600,-1.59,-1.24,0.9,2.2
2022-11-11 9:33:11.1610,-1.77,-1.1,0.77,2.22
2022-11-11 9:33:11.1930,-1.89,-0.96,0.62,2.2
2022-11-11 9:33:11.1940,-2.0,-0.88,0.54,2.25
2022-11-11 9:33:11.2130,-2.11,-0.83,0.51,2.32
2022-11-11 9:33:11.2130,-2.21,-0.78,0.45,2.38
2022-11-11 9:33:11.2280,-2.24,-0.74,0.46,2.4
2022-11-11 9:33:11.2290,-2.25,-0.77,0.46,2.42
2022-11-11 9:33:11.2440,-2.26,-0.84,0.42,2.44
2022-11-11 9:33:11.2450,-2.24,-0.93,0.44,2.46
2022-11-11 9:33:11.2610,-2.24,-1.05,0.39,2.5
2022-11-11 9:33:11.2610,-2.21,-1.15,0.35,2.51
2022-11-11 9:33:11.2930,-2.15,-1.19,0.3,2.47
2022-11-11 9:33:11.2940,-2.11,-1.22,0.17,2.44
2022-11-11 9:33:11.3130,-2.09,-1.2,0.15,2.41
2022-11-11 9:33:11.3130,-2.03,-1.17,0.04,2.34
2022-11-11 9:33:11.3280,-1.97,-1.07,-0.19,2.24
2022-11-11 9:33:11.3290,-1.98,-0.94,-0.23,2.2
2022-11-11 9:33:11.3440,-2.07,-0.81,-0.2,2.23
2022-11-11 9:33:11.3450,-2.1,-0.75,-0.24,2.24
2022-11-11 9:33:11.3610,-2.07,-0.78,-0.29,2.23
2022-11-11 9:33:11.3620,-2.03,-0.85,-0.24,2.21
2022-11-11 9:33:11.3930,-2.01,-0.92,-0.2,2.21
2022-11-11 9:33:11.3940,-1.98,-0.94,-0.13,2.19
2022-11-11 9:33:11.4120,-1.98,-0.94,0.07,2.19
2022-11-11 9:33:11.4130,-1.98,-0.9,0.22,2.18
2022-11-11 9:33:11.4280,-1.84,-0.94,0.41,2.1
2022-11-11 9:33:11.4290,-1.67,-1.04,0.43,2.01
2022-11-11 9:33:11.4440,-1.57,-1.14,0.46,1.99
2022-11-11 9:33:11.4440,-1.48,-1.21,0.48,1.97
2022-11-11 9:33:11.4600,-1.46,-1.2,0.49,1.95
2022-11-11 9:33:11.4610,-1.45,-1.14,0.55,1.92
2022-11-11 9:33:11.4930,-1.44,-1.06,0.58,1.87
2022-11-11 9:33:11.4940,-1.48,-0.98,0.67,1.89
2022-11-11 9:33:11.5120,-1.47,-0.96,0.9,1.97
2022-11-11 9:33:11.5130,-1.42,-0.92,1.08,2.0
2022-11-11 9:33:11.5280,-1.3,-0.88,1.23,1.99
2022-11-11 9:33:11.5290,-1.16,-0.89,1.32,1.96
2022-11-11 9:33:11.5440,-1.05,-0.96,1.32,1.94
2022-11-11 9:33:11.5450,-0.98,-0.99,1.26,1.87
2022-11-11 9:33:11.5610,-0.94,-1.02,1.16,1.8
2022-11-11 9:33:11.5620,-0.86,-1.08,0.91,1.65
2022-11-11 9:33:11.5930,-0.76,-1.1,0.48,1.42
2022-11-11 9:33:11.5940,-0.64,-1.05,0.1,1.23
2022-11-11 9:33:11.6130,-0.5,-0.94,-0.18,1.07
2022-11-11 9:33:11.6130,-0.41,-0.79,-0.48,1.01
2022-11-11 9:33:11.6280,-0.38,-0.54,-0.74,0.99
2022-11-11 9:33:11.6290,-0.41,-0.24,-0.93,1.04
2022-11-11 9:33:11.6440,-0.45,0.07,-1.0,1.09
2022-11-11 9:33:11.6450,-0.56,0.41,-1.05,1.25
2022-11-11 9:33:11.6610,-0.64,0.67,-1.02,1.37
2022-11-11 9:33:11.6610,-0.69,0.8,-0.95,1.42
2022-11-11 9:33:11.6930,-0.63,0.81,-0.9,1.36
2022-11-11 9:33:11.6940,-0.52,0.79,-0.79,1.23
2022-11-11 9:33:11.7130,-0.4,0.77,-0.77,1.16
2022-11-11 9:33:11.7130,-0.3,0.76,-0.73,1.09
2022-11-11 9:33:11.7280,-0.24,0.83,-0.61,1.05
2022-11-11 9:33:11.7290,-0.22,0.92,-0.43,1.03
2022-11-11 9:33:11.7440,-0.18,0.98,-0.27,1.03
2022-11-11 9:33:11.7450,-0.15,1.04,-0.17,1.06
2022-11-11 9:33:11.7610,-0.13,1.11,0.04,1.11
2022-11-11 9:33:11.7610,-0.08,1.18,0.13,1.18
2022-11-11 9:33:11.7940,0.0,1.22,0.15,1.22
2022-11-11 9:33:11.7940,0.11,1.2,0.07,1.2
2022-11-11 9:33:11.8120,0.21,1.18,0.0,1.19
2022-11-11 9:33:11.8130,0.19,1.23,0.0,1.24
2022-11-11 9:33:11.8280,0.15,1.35,0.02,1.35
2022-11-11 9:33:11.8290,0.15,1.38,-0.09,1.39
2022-11-11 9:33:11.8440,0.17,1.33,-0.17,1.35
2022-11-11 9:33:11.8450,0.18,1.27,-0.23,1.3
2022-11-11 9:33:11.8610,0.2,1.28,-0.36,1.34
2022-11-11 9:33:11.8610,0.22,1.31,-0.31,1.36
2022-11-11 9:33:11.8930,0.28,1.32,-0.29,1.38
2022-11-11 9:33:11.8940,0.25,1.28,-0.41,1.36
2022-11-11 9:33:11.9130,0.23,1.22,-0.59,1.37
2022-11-11 9:33:11.9130,0.19,1.22,-0.62,1.38
2022-11-11 9:33:11.9280,0.16,1.22,-0.56,1.35
2022-11-11 9:33:11.9290,0.12,1.23,-0.55,1.35
2022-11-11 9:33:11.9440,0.05,1.22,-0.43,1.29
2022-11-11 9:33:11.9440,0.03,1.15,-0.39,1.21
2022-11-11 9:33:11.9600,-0.01,1.05,-0.37,1.11
2022-11-11 9:33:11.9610,-0.06,0.99,-0.3,1.03
2022-11-11 9:33:11.9930,-0.11,0.95,-0.25,0.98
2022-11-11 9:33:11.9940,-0.17,0.88,-0.28,0.93
2022-11-11 9:33:12.0120,-0.21,0.83,-0.31,0.91
2022-11-11 9:33:12.0130,-0.18,0.81,-0.28,0.87
2022-11-11 9:33:12.0280,-0.18,0.81,-0.32,0.88
2022-11-11 9:33:12.0290,-0.22,0.79,-0.29,0.86
2022-11-11 9:33:12.0440,-0.23,0.74,-0.33,0.84
2022-11-11 9:33:12.0440,-0.24,0.64,-0.34,0.76
2022-11-11 9:33:12.0610,-0.22,0.49,-0.26,0.59
2022-11-11 9:33:12.0620,-0.18,0.31,-0.34,0.49
2022-11-11 9:33:12.0940,-0.08,0.17,-0.38,0.42
2022-11-11 9:33:12.0940,-0.04,0.09,-0.36,0.37
2022-11-11 9:33:12.1130,-0.09,0.08,-0.39,0.4
2022-11-11 9:33:12.1130,-0.16,0.12,-0.31,0.36
2022-11-11 9:33:12.1280,-0.2,0.22,-0.27,0.4
2022-11-11 9:33:12.1290,-0.19,0.27,-0.31,0.45
2022-11-11 9:33:12.1440,-0.16,0.27,-0.28,0.42
2022-11-11 9:33:12.1450,-0.13,0.24,-0.24,0.36
2022-11-11 9:33:12.1600,-0.09,0.21,-0.26,0.34
2022-11-11 9:33:12.1610,-0.05,0.18,-0.27,0.32
2022-11-11 9:33:12.1930,0.0,0.16,-0.25,0.29
2022-11-11 9:33:12.1940,0.06,0.14,-0.24,0.28
2022-11-11 9:33:12.2130,0.12,0.12,-0.28,0.32
2022-11-11 9:33:12.2130,0.15,0.14,-0.4,0.44
2022-11-11 9:33:12.2280,0.17,0.19,-0.4,0.47
2022-11-11 9:33:12.2290,0.2,0.23,-0.38,0.48
2022-11-11 9:33:12.2440,0.22,0.22,-0.42,0.52
2022-11-11 9:33:12.2450,0.2,0.15,-0.42,0.48
2022-11-11 9:33:12.2610,0.19,0.12,-0.36,0.42
2022-11-11 9:33:12.2610,0.16,0.19,-0.27,0.36
2022-11-11 9:33:12.2930,0.1,0.3,-0.12,0.33
2022-11-11 9:33:12.2940,0.03,0.35,0.1,0.36
2022-11-11 9:33:12.3130,0.07,0.4,0.32,0.51
2022-11-11 9:33:12.3140,0.05,0.46,0.43,0.63
2022-11-11 9:33:12.3280,0.02,0.43,0.5,0.65
2022-11-11 9:33:12.3290,0.09,0.29,0.47,0.55
2022-11-11 9:33:12.3440,0.13,0.19,0.41,0.47
2022-11-11 9:33:12.3440,0.14,0.13,0.2,0.27
2022-11-11 9:33:12.3600,0.22,0.02,0.02,0.22
2022-11-11 9:33:12.3610,0.22,-0.08,-0.16,0.28
2022-11-11 9:33:12.3920,0.17,-0.06,-0.35,0.39
2022-11-11 9:33:12.3930,0.11,0.05,-0.48,0.49
2022-11-11 9:33:12.4130,-0.02,0.21,-0.58,0.61
2022-11-11 9:33:12.4140,-0.15,0.38,-0.7,0.81
2022-11-11 9:33:12.4280,-0.19,0.49,-0.87,1.01
2022-11-11 9:33:12.4290,-0.22,0.48,-1.01,1.13
2022-11-11 9:33:12.4440,-0.33,0.4,-0.99,1.11
2022-11-11 9:33:12.4450,-0.43,0.38,-0.85,1.02
2022-11-11 9:33:12.4610,-0.43,0.35,-0.79,0.96
2022-11-11 9:33:12.4620,-0.41,0.27,-0.73,0.87
2022-11-11 9:33:12.4940,-0.37,0.15,-0.61,0.72
2022-11-11 9:33:12.4950,-0.31,0.09,-0.53,0.62
2022-11-11 9:33:12.5120,-0.3,0.13,-0.49,0.58
2022-11-11 9:33:12.5130,-0.32,0.21,-0.46,0.59
2022-11-11 9:33:12.5280,-0.39,0.3,-0.4,0.63
2022-11-11 9:33:12.5290,-0.44,0.35,-0.33,0.65
2022-11-11 9:33:12.5440,-0.42,0.4,-0.24,0.62
2022-11-11 9:33:12.5440,-0.42,0.44,-0.26,0.66
2022-11-11 9:33:12.5600,-0.43,0.42,-0.31,0.67
2022-11-11 9:33:12.5610,-0.35,0.42,-0.31,0.62
2022-11-11 9:33:12.5930,-0.34,0.45,-0.36,0.66
2022-11-11 9:33:12.5930,-0.43,0.53,-0.35,0.76
2022-11-11 9:33:12.6130,-0.64,0.66,-0.37,0.99
2022-11-11 9:33:12.6130,-0.84,0.76,-0.34,1.18
2022-11-11 9:33:12.6280,-0.91,0.8,-0.27,1.24
2022-11-11 9:33:12.6290,-0.86,0.8,-0.32,1.21
2022-11-11 9:33:12.6440,-0.88,0.73,-0.45,1.22
2022-11-11 9:33:12.6450,-0.86,0.55,-0.47,1.12
2022-11-11 9:33:12.6610,-0.85,0.45,-0.32,1.01
2022-11-11 9:33:12.6610,-0.92,0.47,-0.16,1.04
2022-11-11 9:33:12.6940,-0.98,0.48,-0.05,1.09
2022-11-11 9:33:12.6940,-0.99,0.46,-0.03,1.09
2022-11-11 9:33:12.7120,-1.02,0.44,-0.1,1.11
2022-11-11 9:33:12.7130,-1.05,0.42,-0.22,1.15
2022-11-11 9:33:12.7280,-1.11,0.34,-0.25,1.18
2022-11-11 9:33:12.7290,-1.12,0.24,-0.23,1.16
2022-11-11 9:33:12.7440,-1.06,0.24,-0.34,1.13
2022-11-11 9:33:12.7440,-0.92,0.33,-0.52,1.1
2022-11-11 9:33:12.7600,-0.83,0.42,-0.57,1.09
2022-11-11 9:33:12.7610,-0.83,0.44,-0.52,1.07
2022-11-11 9:33:12.7930,-0.86,0.41,-0.45,1.05
2022-11-11 9:33:12.7930,-0.92,0.39,-0.33,1.05
2022-11-11 9:33:12.8130,-0.96,0.38,-0.23,1.05
2022-11-11 9:33:12.8130,-0.96,0.36,-0.15,1.03
2022-11-11 9:33:12.8280,-0.91,0.32,-0.03,0.96
2022-11-11 9:33:12.8290,-0.88,0.32,0.01,0.93
2022-11-11 9:33:12.8430,-0.84,0.35,-0.13,0.91
2022-11-11 9:33:12.8440,-0.81,0.34,-0.25,0.91
2022-11-11 9:33:12.8600,-0.81,0.35,-0.37,0.95
2022-11-11 9:33:12.8610,-0.83,0.35,-0.51,1.03
2022-11-11 9:33:12.8920,-0.79,0.28,-0.65,1.06
2022-11-11 9:33:12.8930,-0.67,0.23,-0.78,1.05
2022-11-11 9:33:12.9120,-0.55,0.27,-0.8,1.0
2022-11-11 9:33:12.9130,-0.48,0.34,-0.69,0.9
2022-11-11 9:33:12.9280,-0.49,0.43,-0.41,0.77
2022-11-11 9:33:12.9290,-0.65,0.51,-0.25,0.86
2022-11-11 9:33:12.9440,-0.84,0.53,-0.26,1.02
2022-11-11 9:33:12.9450,-0.95,0.51,-0.2,1.09
2022-11-11 9:33:12.9620,-1.0,0.48,-0.13,1.11
2022-11-11 9:33:12.9630,-0.98,0.5,-0.07,1.1
2022-11-11 9:33:12.9930,-0.88,0.53,0.05,1.02
2022-11-11 9:33:12.9940,-0.84,0.57,0.2,1.03
2022-11-11 9:33:13.0130,-0.82,0.59,0.34,1.06
2022-11-11 9:33:13.0130,-0.77,0.57,0.48,1.07
2022-11-11 9:33:13.0280,-0.69,0.55,0.67,1.1
2022-11-11 9:33:13.0290,-0.58,0.5,0.77,1.08
2022-11-11 9:33:13.0440,-0.38,0.44,0.88,1.05
2022-11-11 9:33:13.0450,-0.19,0.41,0.66,0.79
2022-11-11 9:33:13.0610,-0.18,0.43,0.27,0.53
2022-11-11 9:33:13.0610,-0.33,0.43,0.0,0.54
2022-11-11 9:33:13.0930,-0.63,0.39,-0.09,0.74
2022-11-11 9:33:13.0930,-0.91,0.35,0.07,0.97
2022-11-11 9:33:13.1140,-1.07,0.32,0.42,1.19
2022-11-11 9:33:13.1140,-1.16,0.32,0.66,1.37
2022-11-11 9:33:13.1280,-1.08,0.28,0.67,1.3
2022-11-11 9:33:13.1290,-0.86,0.23,0.58,1.06
2022-11-11 9:33:13.1440,-0.76,0.17,0.43,0.88
2022-11-11 9:33:13.1450,-0.68,0.16,0.31,0.76
2022-11-11 9:33:13.1610,-0.59,0.13,0.23,0.64
2022-11-11 9:33:13.1610,-0.53,0.11,0.1,0.55
2022-11-11 9:33:13.2210,-0.49,0.14,-0.05,0.51
2022-11-11 9:33:13.2220,-0.48,0.24,-0.12,0.54
2022-11-11 9:33:13.2230,-0.53,0.27,-0.2,0.62
2022-11-11 9:33:13.2260,-0.54,0.22,-0.21,0.61
2022-11-11 9:33:13.2270,-0.46,0.13,-0.21,0.52
2022-11-11 9:33:13.2450,-0.27,0.09,-0.25,0.37
2022-11-11 9:33:13.2450,-0.15,0.06,-0.33,0.36
2022-11-11 9:33:13.2600,-0.08,-0.09,-0.49,0.5
2022-11-11 9:33:13.2610,0.0,-0.31,-0.54,0.62
2022-11-11 9:33:13.2770,0.0,-0.49,-0.34,0.59
2022-11-11 9:33:13.3070,0.08,-0.49,-0.04,0.49
2022-11-11 9:33:13.3080,0.32,-0.1,0.03,0.33
2022-11-11 9:33:13.3090,0.26,-0.1,-0.15,0.31
2022-11-11 9:33:13.3280,0.3,-0.43,-0.26,0.58
2022-11-11 9:33:13.3280,0.49,-0.68,-0.01,0.83
2022-11-11 9:33:13.3440,0.6,-0.38,0.28,0.76
2022-11-11 9:33:13.3440,0.62,0.14,0.29,0.69
2022-11-11 9:33:13.3610,0.5,0.29,0.32,0.66
2022-11-11 9:33:13.3610,0.42,0.11,0.52,0.67
2022-11-11 9:33:13.3770,0.39,-0.06,0.59,0.7
2022-11-11 9:33:13.4110,0.43,-0.1,0.5,0.66
2022-11-11 9:33:13.4120,0.58,-0.04,0.39,0.7
2022-11-11 9:33:13.4290,0.73,0.06,0.43,0.84
2022-11-11 9:33:13.4300,0.8,0.14,0.49,0.94
2022-11-11 9:33:13.4450,0.9,0.23,0.39,1.0
2022-11-11 9:33:13.4460,0.96,0.32,0.16,1.02
2022-11-11 9:33:13.4610,0.98,0.37,-0.02,1.04
2022-11-11 9:33:13.4610,0.98,0.38,-0.21,1.07
2022-11-11 9:33:13.4770,0.97,0.38,-0.48,1.14
2022-11-11 9:33:13.4780,0.91,0.36,-0.74,1.22
2022-11-11 9:33:13.5090,0.81,0.32,-0.96,1.29
2022-11-11 9:33:13.5100,0.74,0.24,-1.05,1.3
2022-11-11 9:33:13.5290,0.74,0.13,-1.03,1.27
2022-11-11 9:33:13.5300,0.72,0.19,-0.93,1.19
2022-11-11 9:33:13.5450,0.58,0.36,-0.52,0.85
2022-11-11 9:33:13.5450,0.45,0.43,-0.17,0.64
2022-11-11 9:33:13.5610,0.41,0.35,-0.04,0.54
2022-11-11 9:33:13.5610,0.37,0.26,0.02,0.45
2022-11-11 9:33:13.5770,0.35,0.23,0.08,0.42
2022-11-11 9:33:13.5780,0.3,0.18,0.21,0.4
2022-11-11 9:33:13.6100,0.28,0.1,0.37,0.47
2022-11-11 9:33:13.6110,0.32,0.0,0.46,0.56
2022-11-11 9:33:13.6290,0.37,-0.07,0.5,0.62
2022-11-11 9:33:13.6290,0.42,-0.11,0.37,0.57
2022-11-11 9:33:13.6450,0.56,-0.09,0.09,0.57
2022-11-11 9:33:13.6460,0.67,0.0,-0.13,0.68
2022-11-11 9:33:13.6610,0.65,0.09,-0.26,0.7
2022-11-11 9:33:13.6610,0.52,0.14,-0.17,0.56
2022-11-11 9:33:13.6780,0.26,0.16,-0.25,0.39
2022-11-11 9:33:13.6780,-0.01,0.21,-0.37,0.42
2022-11-11 9:33:13.7100,-0.31,0.22,-0.53,0.65
2022-11-11 9:33:13.7110,-0.55,0.14,-0.53,0.77
2022-11-11 9:33:13.7290,-0.65,0.14,-0.3,0.72
2022-11-11 9:33:13.7290,-0.67,0.27,0.04,0.72
2022-11-11 9:33:13.7450,-0.65,0.41,0.23,0.8
2022-11-11 9:33:13.7450,-0.68,0.51,0.29,0.89
2022-11-11 9:33:13.7610,-0.71,0.51,0.18,0.89
2022-11-11 9:33:13.7610,-0.71,0.48,0.13,0.86
2022-11-11 9:33:13.7770,-0.71,0.51,0.26,0.91
2022-11-11 9:33:13.7780,-0.78,0.59,0.46,1.08
2022-11-11 9:33:13.8100,-0.81,0.65,0.68,1.24
2022-11-11 9:33:13.8100,-0.78,0.68,0.85,1.33
2022-11-11 9:33:13.8290,-0.68,0.63,0.99,1.35
2022-11-11 9:33:13.8300,-0.61,0.51,0.97,1.25
2022-11-11 9:33:13.8450,-0.55,0.41,0.91,1.13
2022-11-11 9:33:13.8460,-0.48,0.33,0.86,1.03
2022-11-11 9:33:13.8600,-0.44,0.24,0.77,0.91
2022-11-11 9:33:13.8610,-0.44,0.16,0.58,0.74
2022-11-11 9:33:13.8770,-0.42,0.11,0.42,0.6
2022-11-11 9:33:13.8780,-0.39,0.15,0.35,0.54
2022-11-11 9:33:13.9100,-0.42,0.25,0.27,0.55
2022-11-11 9:33:13.9110,-0.52,0.34,0.16,0.64
2022-11-11 9:33:13.9320,-0.56,0.42,0.13,0.71
2022-11-11 9:33:13.9320,-0.55,0.42,0.18,0.71
2022-11-11 9:33:13.9450,-0.54,0.38,0.1,0.66
2022-11-11 9:33:13.9460,-0.56,0.32,0.02,0.64
2022-11-11 9:33:13.9600,-0.51,0.21,-0.05,0.55
2022-11-11 9:33:13.9610,-0.44,0.06,-0.17,0.47
2022-11-11 9:33:13.9770,-0.37,-0.13,-0.36,0.53
2022-11-11 9:33:13.9780,-0.29,-0.28,-0.5,0.64
2022-11-11 9:33:14.0100,-0.27,-0.37,-0.54,0.7
2022-11-11 9:33:14.0110,-0.26,-0.34,-0.49,0.65
2022-11-11 9:33:14.0290,-0.32,-0.28,-0.42,0.59
2022-11-11 9:33:14.0300,-0.38,-0.22,-0.4,0.59
2022-11-11 9:33:14.0460,-0.45,-0.17,-0.51,0.7
2022-11-11 9:33:14.0460,-0.51,-0.15,-0.63,0.82
2022-11-11 9:33:14.0470,-0.54,-0.1,-0.58,0.79
2022-11-11 9:33:14.0600,-0.53,-0.09,-0.57,0.78
2022-11-11 9:33:14.0610,-0.5,-0.14,-0.61,0.8
2022-11-11 9:33:14.0770,-0.52,-0.16,-0.55,0.77
2022-11-11 9:33:14.1080,-0.57,-0.16,-0.44,0.73
2022-11-11 9:33:14.1090,-0.52,-0.21,-0.38,0.67
2022-11-11 9:33:14.1290,-0.45,-0.27,-0.3,0.6
2022-11-11 9:33:14.1290,-0.33,-0.3,-0.32,0.54
2022-11-11 9:33:14.1450,-0.21,-0.34,-0.36,0.53
2022-11-11 9:33:14.1450,-0.16,-0.39,-0.3,0.51
2022-11-11 9:33:14.1600,-0.16,-0.43,-0.06,0.46
2022-11-11 9:33:14.1610,-0.17,-0.46,-0.11,0.5
2022-11-11 9:33:14.1770,-0.22,-0.49,-0.39,0.66
2022-11-11 9:33:14.1780,-0.25,-0.48,-0.61,0.81
2022-11-11 9:33:14.2100,-0.28,-0.41,-0.71,0.86
2022-11-11 9:33:14.2100,-0.35,-0.41,-0.67,0.85
2022-11-11 9:33:14.2290,-0.42,-0.46,-0.46,0.77
2022-11-11 9:33:14.2300,-0.43,-0.43,-0.17,0.63
2022-11-11 9:33:14.2450,-0.43,-0.35,0.06,0.55
2022-11-11 9:33:14.2450,-0.31,-0.3,0.2,0.47
2022-11-11 9:33:14.2600,-0.18,-0.26,0.32,0.44
2022-11-11 9:33:14.2610,-0.09,-0.18,0.46,0.5
2022-11-11 9:33:14.2770,-0.04,-0.08,0.65,0.65
2022-11-11 9:33:14.2780,-0.03,-0.01,0.76,0.76
2022-11-11 9:33:14.3100,-0.01,0.07,0.66,0.66
2022-11-11 9:33:14.3100,0.04,0.11,0.52,0.53
2022-11-11 9:33:14.3290,0.07,0.13,0.38,0.4
2022-11-11 9:33:14.3300,0.08,0.14,0.24,0.28
2022-11-11 9:33:14.3450,0.1,0.16,0.15,0.24
2022-11-11 9:33:14.3450,0.12,0.2,0.17,0.28
2022-11-11 9:33:14.3600,0.15,0.22,0.15,0.3
2022-11-11 9:33:14.3610,0.12,0.26,0.14,0.31
2022-11-11 9:33:14.3770,0.11,0.29,0.16,0.34
2022-11-11 9:33:14.3780,0.14,0.34,0.16,0.4
2022-11-11 9:33:14.4100,0.17,0.42,0.33,0.56
2022-11-11 9:33:14.4100,0.12,0.51,0.33,0.61
2022-11-11 9:33:14.4290,0.07,0.55,0.14,0.57
2022-11-11 9:33:14.4290,0.09,0.5,-0.01,0.5
2022-11-11 9:33:14.4450,0.08,0.49,0.07,0.5
2022-11-11 9:33:14.4450,0.11,0.51,0.16,0.54
2022-11-11 9:33:14.4600,0.17,0.51,0.1,0.54
2022-11-11 9:33:14.4610,0.24,0.48,-0.07,0.54
2022-11-11 9:33:14.4770,0.29,0.41,-0.33,0.6
2022-11-11 9:33:14.4780,0.34,0.33,-0.55,0.72
2022-11-11 9:33:14.5090,0.29,0.3,-0.56,0.69
2022-11-11 9:33:14.5100,0.25,0.27,-0.41,0.55
2022-11-11 9:33:14.5290,0.22,0.26,-0.25,0.42
2022-11-11 9:33:14.5300,0.16,0.27,-0.15,0.34
2022-11-11 9:33:14.5450,0.13,0.25,-0.14,0.31
2022-11-11 9:33:14.5450,0.09,0.2,-0.12,0.25
2022-11-11 9:33:14.5600,0.09,0.1,-0.19,0.23
2022-11-11 9:33:14.5610,0.14,-0.02,-0.24,0.27
2022-11-11 9:33:14.5770,0.19,-0.09,-0.22,0.3
2022-11-11 9:33:14.5780,0.22,-0.1,-0.13,0.27
2022-11-11 9:33:14.6100,0.25,-0.02,0.05,0.25
2022-11-11 9:33:14.6110,0.23,0.06,0.21,0.31
2022-11-11 9:33:14.6290,0.21,0.12,0.1,0.26
2022-11-11 9:33:14.6300,0.21,0.15,0.03,0.25
2022-11-11 9:33:14.6450,0.16,0.17,0.05,0.23
2022-11-11 9:33:14.6450,0.11,0.13,0.11,0.2
2022-11-11 9:33:14.6600,0.13,0.03,0.1,0.16
2022-11-11 9:33:14.6610,0.19,-0.06,0.04,0.2
2022-11-11 9:33:14.6770,0.18,-0.09,0.06,0.21
2022-11-11 9:33:14.6780,0.19,-0.09,0.18,0.27
2022-11-11 9:33:14.7100,0.17,-0.08,0.2,0.27
2022-11-11 9:33:14.7100,0.14,-0.07,0.06,0.16
2022-11-11 9:33:14.7290,0.13,-0.07,-0.08,0.16
2022-11-11 9:33:14.7290,0.05,-0.06,-0.15,0.16
2022-11-11 9:33:14.7440,-0.07,-0.04,-0.15,0.17
2022-11-11 9:33:14.7450,-0.15,-0.04,-0.15,0.21
2022-11-11 9:33:14.7600,-0.18,0.02,-0.19,0.26
2022-11-11 9:33:14.7610,-0.22,0.13,-0.24,0.35
2022-11-11 9:33:14.7770,-0.27,0.18,-0.16,0.36
2022-11-11 9:33:14.7780,-0.23,0.15,-0.06,0.28
2022-11-11 9:33:14.8100,-0.18,0.14,-0.08,0.24
2022-11-11 9:33:14.8100,-0.14,0.16,-0.13,0.24
2022-11-11 9:33:14.8290,-0.13,0.18,-0.1,0.24
2022-11-11 9:33:14.8300,-0.13,0.17,-0.12,0.24
2022-11-11 9:33:14.8440,-0.11,0.2,-0.16,0.27
2022-11-11 9:33:14.8450,-0.13,0.23,-0.14,0.29
2022-11-11 9:33:14.8600,-0.13,0.23,-0.1,0.28
2022-11-11 9:33:14.8610,-0.13,0.21,-0.02,0.24
2022-11-11 9:33:14.8770,-0.1,0.21,0.01,0.23
2022-11-11 9:33:14.8780,-0.04,0.23,-0.01,0.23
2022-11-11 9:33:14.9100,-0.03,0.23,-0.05,0.23
2022-11-11 9:33:14.9100,-0.12,0.24,-0.04,0.27
2022-11-11 9:33:14.9290,-0.19,0.25,0.07,0.32
2022-11-11 9:33:14.9290,-0.19,0.24,0.07,0.31
2022-11-11 9:33:14.9300,-0.1,0.21,-0.08,0.24
2022-11-11 9:33:14.9450,-0.09,0.16,-0.17,0.25
2022-11-11 9:33:14.9450,-0.15,0.12,-0.22,0.29
2022-11-11 9:33:14.9600,-0.22,0.11,-0.25,0.35
2022-11-11 9:33:14.9610,-0.22,0.11,-0.25,0.35
2022-11-11 9:33:14.9610,-0.22,0.11,-0.17,0.29
2022-11-11 9:33:14.9910,-0.17,0.1,-0.12,0.23
2022-11-11 9:33:14.9920,-0.14,0.08,-0.01,0.16
2022-11-11 9:33:15.0110,-0.1,0.08,0.03,0.13
2022-11-11 9:33:15.0110,-0.08,0.1,-0.02,0.12
2022-11-11 9:33:15.0280,-0.08,0.06,-0.05,0.11
2022-11-11 9:33:15.0290,-0.07,0.05,-0.02,0.08
2022-11-11 9:33:15.0440,-0.05,0.07,-0.07,0.11
2022-11-11 9:33:15.0440,0.01,0.11,-0.1,0.14
2022-11-11 9:33:15.0600,0.06,0.14,-0.12,0.19
2022-11-11 9:33:15.0610,-0.03,0.14,-0.07,0.15
2022-11-11 9:33:15.0930,-0.13,0.1,-0.11,0.19
2022-11-11 9:33:15.0940,-0.17,0.06,-0.23,0.29
2022-11-11 9:33:15.1120,-0.2,0.05,-0.39,0.44
2022-11-11 9:33:15.1130,-0.17,0.07,-0.44,0.47
2022-11-11 9:33:15.1280,-0.19,0.12,-0.35,0.41
2022-11-11 9:33:15.1290,-0.2,0.14,-0.19,0.3
2022-11-11 9:33:15.1440,-0.18,0.14,-0.17,0.28
2022-11-11 9:33:15.1440,-0.15,0.18,-0.16,0.28
2022-11-11 9:33:15.1600,-0.1,0.2,-0.15,0.26
2022-11-11 9:33:15.1610,-0.08,0.2,-0.01,0.21
2022-11-11 9:33:15.1930,-0.06,0.18,0.09,0.21
2022-11-11 9:33:15.1940,-0.01,0.17,0.06,0.18
2022-11-11 9:33:15.2120,0.02,0.15,-0.04,0.15
2022-11-11 9:33:15.2130,0.03,0.13,-0.07,0.15
2022-11-11 9:33:15.2280,0.04,0.14,-0.04,0.15
2022-11-11 9:33:15.2290,0.0,0.17,0.02,0.17
2022-11-11 9:33:15.2440,0.02,0.19,0.09,0.21
2022-11-11 9:33:15.2440,-0.03,0.24,0.22,0.32
2022-11-11 9:33:15.2600,-0.06,0.27,0.29,0.4
2022-11-11 9:33:15.2610,-0.07,0.29,0.28,0.4
2022-11-11 9:33:15.2930,-0.05,0.3,0.26,0.4
2022-11-11 9:33:15.2930,0.04,0.26,0.23,0.34
2022-11-11 9:33:15.3120,0.07,0.23,0.24,0.33
2022-11-11 9:33:15.3130,0.08,0.21,0.17,0.28
2022-11-11 9:33:15.3280,0.04,0.21,0.07,0.22
2022-11-11 9:33:15.3290,0.0,0.2,-0.02,0.2
2022-11-11 9:33:15.3440,-0.04,0.23,0.01,0.23
2022-11-11 9:33:15.3440,-0.09,0.27,0.1,0.3
2022-11-11 9:33:15.3600,-0.17,0.32,0.24,0.43
2022-11-11 9:33:15.3610,-0.18,0.34,0.3,0.48
2022-11-11 9:33:15.3930,-0.15,0.31,0.13,0.36
2022-11-11 9:33:15.3940,-0.16,0.25,-0.04,0.29
2022-11-11 9:33:15.4130,-0.17,0.23,-0.04,0.28
2022-11-11 9:33:15.4130,-0.17,0.2,-0.03,0.26
2022-11-11 9:33:15.4280,-0.15,0.14,0.02,0.2
2022-11-11 9:33:15.4290,-0.09,0.07,0.06,0.12
2022-11-11 9:33:15.4440,-0.07,0.05,0.0,0.08
2022-11-11 9:33:15.4440,0.0,0.0,-0.09,0.09
2022-11-11 9:33:15.4600,0.04,-0.04,-0.13,0.14
2022-11-11 9:33:15.4610,0.01,-0.02,-0.09,0.09
2022-11-11 9:33:15.4930,-0.05,0.01,-0.14,0.14
2022-11-11 9:33:15.4940,-0.12,0.03,-0.21,0.24
2022-11-11 9:33:15.5120,-0.17,0.08,-0.12,0.22
2022-11-11 9:33:15.5130,-0.15,0.12,-0.03,0.19
2022-11-11 9:33:15.5280,-0.1,0.11,-0.05,0.15
2022-11-11 9:33:15.5290,-0.07,0.1,-0.11,0.16
2022-11-11 9:33:15.5440,-0.02,0.08,-0.27,0.28
2022-11-11 9:33:15.5440,-0.05,0.07,-0.33,0.34
2022-11-11 9:33:15.5600,-0.11,0.09,-0.28,0.31
2022-11-11 9:33:15.5610,-0.11,0.1,-0.26,0.29
2022-11-11 9:33:15.5930,-0.09,0.11,-0.26,0.29
2022-11-11 9:33:15.5930,-0.05,0.09,-0.24,0.26
2022-11-11 9:33:15.6120,-0.01,0.08,-0.24,0.25
2022-11-11 9:33:15.6130,-0.09,0.09,-0.22,0.25
2022-11-11 9:33:15.6280,0.01,0.06,-0.18,0.19
2022-11-11 9:33:15.6290,0.04,0.02,-0.08,0.09
2022-11-11 9:33:15.6440,0.04,0.0,-0.08,0.08
2022-11-11 9:33:15.6440,0.0,-0.01,-0.09,0.09
2022-11-11 9:33:15.6600,-0.03,-0.01,-0.13,0.13
2022-11-11 9:33:15.6610,-0.09,0.01,-0.17,0.19
2022-11-11 9:33:15.6930,-0.14,0.06,-0.15,0.21
2022-11-11 9:33:15.6930,-0.16,0.08,-0.08,0.19
2022-11-11 9:33:15.7120,-0.15,0.08,-0.04,0.17
2022-11-11 9:33:15.7130,-0.08,0.05,-0.08,0.12
2022-11-11 9:33:15.7280,-0.06,0.05,-0.12,0.14
2022-11-11 9:33:15.7280,-0.05,0.04,-0.12,0.13
2022-11-11 9:33:15.7430,-0.03,0.04,-0.06,0.07
2022-11-11 9:33:15.7440,-0.02,0.06,-0.06,0.08
2022-11-11 9:33:15.7600,0.02,0.06,-0.07,0.09
2022-11-11 9:33:15.7610,0.01,0.07,-0.05,0.08
2022-11-11 9:33:15.7930,0.03,0.08,-0.03,0.09
2022-11-11 9:33:15.7940,0.01,0.1,0.01,0.1
2022-11-11 9:33:15.8120,0.0,0.11,0.05,0.12
2022-11-11 9:33:15.8130,-0.02,0.09,0.08,0.12
2022-11-11 9:33:15.8280,0.03,0.07,0.04,0.08
2022-11-11 9:33:15.8290,0.05,0.07,-0.01,0.08
2022-11-11 9:33:15.8440,0.02,0.09,-0.04,0.1
2022-11-11 9:33:15.8450,0.01,0.06,-0.1,0.11
2022-11-11 9:33:15.8600,0.0,0.0,-0.15,0.15
2022-11-11 9:33:15.8610,0.0,-0.01,-0.19,0.19
2022-11-11 9:33:15.8930,-0.05,0.03,-0.19,0.19
2022-11-11 9:33:15.8930,-0.1,0.08,-0.17,0.21
2022-11-11 9:33:15.9110,-0.13,0.13,-0.16,0.24
2022-11-11 9:33:15.9120,-0.14,0.18,-0.1,0.24
2022-11-11 9:33:15.9280,-0.14,0.21,-0.04,0.25
2022-11-11 9:33:15.9280,-0.15,0.22,0.0,0.26
2022-11-11 9:33:15.9440,-0.16,0.19,0.01,0.24
2022-11-11 9:33:15.9440,-0.16,0.11,0.09,0.21
2022-11-11 9:33:15.9600,-0.09,0.01,0.06,0.1
2022-11-11 9:33:15.9610,-0.05,-0.1,-0.18,0.21
2022-11-11 9:33:15.9930,-0.13,-0.32,-1.53,1.56
2022-11-11 9:33:15.9940,-0.23,-0.34,-0.6,0.72
2022-11-11 9:33:16.0130,-0.2,-0.2,0.94,0.98
2022-11-11 9:33:16.0130,-0.1,0.1,0.69,0.7
2022-11-11 9:33:16.0280,-0.1,0.16,0.29,0.34
2022-11-11 9:33:16.0290,-0.15,0.13,0.44,0.48
2022-11-11 9:33:16.0430,-0.16,0.27,0.44,0.54
2022-11-11 9:33:16.0440,-0.22,0.41,0.35,0.58
2022-11-11 9:33:16.0600,-0.19,0.42,0.32,0.56
2022-11-11 9:33:16.0610,-0.15,0.4,0.38,0.57
2022-11-11 9:33:16.0930,-0.04,0.41,0.32,0.52
2022-11-11 9:33:16.0930,0.03,0.38,0.19,0.42
2022-11-11 9:33:16.1120,0.06,0.38,0.32,0.5
2022-11-11 9:33:16.1130,0.06,0.41,0.29,0.5
2022-11-11 9:33:16.1280,0.11,0.42,0.08,0.44
2022-11-11 9:33:16.1280,0.18,0.48,-0.14,0.53
2022-11-11 9:33:16.1430,0.12,0.46,-0.24,0.53
2022-11-11 9:33:16.1440,0.11,0.28,-0.18,0.35
2022-11-11 9:33:16.1600,0.15,0.18,-0.27,0.35
2022-11-11 9:33:16.1610,0.13,0.11,-0.41,0.44
2022-11-11 9:33:16.1930,0.15,0.07,-0.41,0.44
2022-11-11 9:33:16.1940,0.18,0.02,-0.37,0.41
2022-11-11 9:33:16.2110,0.18,0.0,-0.26,0.31
2022-11-11 9:33:16.2120,0.17,0.0,-0.12,0.2
2022-11-11 9:33:16.2120,0.14,-0.03,-0.04,0.14
2022-11-11 9:33:16.2280,0.06,-0.06,0.13,0.15
2022-11-11 9:33:16.2280,0.0,-0.05,0.22,0.22
2022-11-11 9:33:16.2440,0.01,-0.02,0.2,0.2
2022-11-11 9:33:16.2440,-0.02,0.0,0.17,0.17
2022-11-11 9:33:16.2600,-0.1,0.04,0.17,0.2
2022-11-11 9:33:16.2920,-0.12,0.1,0.1,0.18
2022-11-11 9:33:16.2930,-0.13,0.1,0.02,0.16
2022-11-11 9:33:16.3120,-0.14,0.04,0.02,0.14
2022-11-11 9:33:16.3130,-0.15,0.02,0.07,0.16
2022-11-11 9:33:16.3280,-0.1,0.09,0.24,0.27
2022-11-11 9:33:16.3280,-0.02,0.11,-0.02,0.11
2022-11-11 9:33:16.3440,-0.03,0.06,-0.23,0.23
2022-11-11 9:33:16.3440,-0.11,-0.04,-0.35,0.36
2022-11-11 9:33:16.3600,-0.21,-0.1,-0.3,0.37
2022-11-11 9:33:16.3610,-0.3,-0.11,-0.16,0.35
2022-11-11 9:33:16.3930,-0.33,-0.06,-0.07,0.34
2022-11-11 9:33:16.3940,-0.32,-0.02,-0.09,0.33
2022-11-11 9:33:16.4120,-0.28,-0.01,-0.06,0.28
2022-11-11 9:33:16.4130,-0.25,-0.02,0.02,0.25
2022-11-11 9:33:16.4280,-0.22,0.0,0.12,0.25
2022-11-11 9:33:16.4290,-0.21,0.04,0.18,0.27
2022-11-11 9:33:16.4440,-0.23,0.04,0.13,0.26
2022-11-11 9:33:16.4440,-0.24,0.02,0.05,0.24
2022-11-11 9:33:16.4600,-0.23,0.05,-0.02,0.23
2022-11-11 9:33:16.4610,-0.27,0.07,-0.1,0.29
2022-11-11 9:33:16.4930,-0.31,0.09,-0.09,0.33
2022-11-11 9:33:16.4940,-0.33,0.11,0.08,0.35
2022-11-11 9:33:16.5120,-0.35,0.14,0.17,0.41
2022-11-11 9:33:16.5130,-0.33,0.16,0.13,0.38
2022-11-11 9:33:16.5280,-0.22,0.12,0.12,0.27
2022-11-11 9:33:16.5280,-0.09,0.07,0.12,0.16
2022-11-11 9:33:16.5440,-0.07,0.07,0.08,0.12
2022-11-11 9:33:16.5440,-0.12,0.07,0.05,0.14
2022-11-11 9:33:16.5600,-0.09,0.05,0.07,0.12
2022-11-11 9:33:16.5610,-0.06,0.07,0.09,0.12
2022-11-11 9:33:16.5930,-0.03,0.13,0.07,0.15
2022-11-11 9:33:16.5940,0.01,0.19,0.1,0.21
2022-11-11 9:33:16.6120,0.01,0.2,0.06,0.2
2022-11-11 9:33:16.6130,0.01,0.18,0.02,0.18
2022-11-11 9:33:16.6280,0.02,0.15,-0.07,0.16
2022-11-11 9:33:16.6280,0.02,0.12,-0.08,0.14
2022-11-11 9:33:16.6430,0.07,0.09,-0.08,0.13
2022-11-11 9:33:16.6440,0.11,0.09,-0.26,0.29
2022-11-11 9:33:16.6600,0.14,0.14,-0.32,0.37
2022-11-11 9:33:16.6610,0.14,0.27,-0.17,0.34
2022-11-11 9:33:16.6940,0.06,0.38,0.1,0.39
2022-11-11 9:33:16.6940,-0.04,0.43,0.32,0.53
2022-11-11 9:33:16.7120,-0.08,0.39,0.37,0.54
2022-11-11 9:33:16.7130,0.01,0.26,0.25,0.36
2022-11-11 9:33:16.7280,0.14,0.09,0.17,0.23
2022-11-11 9:33:16.7280,0.25,-0.04,0.06,0.26
2022-11-11 9:33:16.7440,0.35,0.0,0.02,0.35
2022-11-11 9:33:16.7440,0.35,0.11,0.07,0.37
2022-11-11 9:33:16.7600,0.21,0.1,0.24,0.33
2022-11-11 9:33:16.7610,-0.06,0.03,0.35,0.35
2022-11-11 9:33:16.7940,-0.21,0.05,0.45,0.49
2022-11-11 9:33:16.7950,-0.19,0.21,0.49,0.56
2022-11-11 9:33:16.8120,-0.1,-0.2,0.42,0.47
2022-11-11 9:33:16.8130,-0.04,-0.24,0.37,0.44
2022-11-11 9:33:16.8280,0.5,-0.18,0.43,0.68
2022-11-11 9:33:16.8290,0.84,-0.65,0.54,1.19
2022-11-11 9:33:16.8440,0.63,-0.09,0.21,0.67
2022-11-11 9:33:16.8440,1.04,0.27,-0.33,1.12
2022-11-11 9:33:16.8600,1.09,0.03,-0.73,1.31
2022-11-11 9:33:16.8610,1.11,-0.43,-0.3,1.22
2022-11-11 9:33:16.8940,1.39,-0.76,0.97,1.85
2022-11-11 9:33:16.8950,1.74,-0.85,1.72,2.59
2022-11-11 9:33:16.9120,1.16,-0.89,1.13,1.84
2022-11-11 9:33:16.9130,0.2,-0.64,0.21,0.7
2022-11-11 9:33:16.9280,-0.73,-0.16,0.42,0.85
2022-11-11 9:33:16.9280,-0.95,0.43,0.89,1.37
2022-11-11 9:33:16.9440,-0.53,0.39,0.36,0.75
2022-11-11 9:33:16.9440,-0.2,-0.23,-0.26,0.4
2022-11-11 9:33:16.9600,-0.13,-0.74,-0.53,0.91
2022-11-11 9:33:16.9610,-0.12,-0.81,-0.45,0.93
2022-11-11 9:33:16.9930,-0.23,-0.69,-0.15,0.74
2022-11-11 9:33:16.9940,-0.17,-0.78,-0.18,0.81
2022-11-11 9:33:17.0120,0.32,-1.14,-0.39,1.24
2022-11-11 9:33:17.0130,0.63,-1.28,-0.56,1.53
2022-11-11 9:33:17.0280,0.5,-1.04,-0.7,1.34
2022-11-11 9:33:17.0290,-0.01,-0.66,-0.85,1.07
2022-11-11 9:33:17.0440,-0.66,-0.26,-0.88,1.13
2022-11-11 9:33:17.0450,-1.08,0.02,-1.09,1.53
2022-11-11 9:33:17.0600,-1.26,0.09,-1.38,1.87
2022-11-11 9:33:17.0610,-1.33,0.12,-1.34,1.89
2022-11-11 9:33:17.0940,-1.31,0.14,-1.14,1.74
2022-11-11 9:33:17.0950,-1.15,0.43,-1.76,2.14
2022-11-11 9:33:17.1120,-0.82,0.97,-1.6,2.04
2022-11-11 9:33:17.1130,-0.28,1.34,-0.63,1.5
2022-11-11 9:33:17.1280,0.97,0.64,0.25,1.18
2022-11-11 9:33:17.1280,1.2,-0.48,0.67,1.45
2022-11-11 9:33:17.1440,0.76,-0.64,0.12,1.0
2022-11-11 9:33:17.1440,0.48,-0.35,0.66,0.88
2022-11-11 9:33:17.1600,0.34,0.1,0.87,0.93
2022-11-11 9:33:17.1610,0.25,0.26,-0.26,0.44
2022-11-11 9:33:17.1930,-0.2,0.31,-0.64,0.73
2022-11-11 9:33:17.1940,-0.75,0.43,-0.63,1.06
2022-11-11 9:33:17.2120,-0.98,0.31,-1.08,1.49
2022-11-11 9:33:17.2120,-0.83,-0.19,-1.04,1.34
2022-11-11 9:33:17.2280,-0.07,-0.45,-0.55,0.71
2022-11-11 9:33:17.2290,0.71,-0.52,-0.43,0.97
2022-11-11 9:33:17.2440,0.68,-0.42,-0.45,0.91
2022-11-11 9:33:17.2450,0.34,-0.35,-0.37,0.61
2022-11-11 9:33:17.2600,0.1,-0.35,-0.33,0.49
2022-11-11 9:33:17.2610,0.06,-0.39,-0.54,0.66
2022-11-11 9:33:17.2930,0.12,-0.51,-0.7,0.87
2022-11-11 9:33:17.2940,0.03,-0.67,-0.8,1.04
2022-11-11 9:33:17.3120,-0.18,-0.78,-0.97,1.25
2022-11-11 9:33:17.3130,-0.23,-0.81,-1.37,1.6
2022-11-11 9:33:17.3280,-0.25,-0.83,-1.37,1.62
2022-11-11 9:33:17.3280,0.03,-0.71,-0.79,1.06
2022-11-11 9:33:17.3430,0.64,-0.53,-0.36,0.9
2022-11-11 9:33:17.3440,0.97,-0.38,-0.45,1.13
2022-11-11 9:33:17.3600,1.23,-0.39,-0.26,1.31
2022-11-11 9:33:17.3610,1.55,-0.26,-0.06,1.57
2022-11-11 9:33:17.3930,1.52,-0.3,-0.45,1.61
2022-11-11 9:33:17.3940,1.18,-0.71,-0.97,1.68
2022-11-11 9:33:17.4120,0.94,-1.12,-1.48,2.08
2022-11-11 9:33:17.4130,0.6,-1.41,-1.91,2.44
2022-11-11 9:33:17.4280,0.47,-1.62,-2.06,2.66
2022-11-11 9:33:17.4290,0.44,-1.62,-2.11,2.69
2022-11-11 9:33:17.4440,0.4,-1.72,-2.06,2.71
2022-11-11 9:33:17.4440,0.21,-1.81,-1.98,2.69
2022-11-11 9:33:17.4600,0.21,-1.93,-2.09,2.85
2022-11-11 9:33:17.4610,0.49,-2.27,-2.12,3.14
2022-11-11 9:33:17.4930,0.85,-2.64,-1.61,3.2
2022-11-11 9:33:17.4940,0.81,-3.13,-0.96,3.37
2022-11-11 9:33:17.5120,0.02,-3.41,-0.53,3.45
2022-11-11 9:33:17.5130,-0.73,-3.83,-0.57,3.94
2022-11-11 9:33:17.5280,-0.5,-3.66,-0.64,3.74
2022-11-11 9:33:17.5280,-0.62,-2.86,-0.35,2.94
2022-11-11 9:33:17.5440,-0.52,-2.68,-0.04,2.73
2022-11-11 9:33:17.5440,-0.13,-2.45,0.11,2.45
2022-11-11 9:33:17.5600,0.04,-2.22,0.26,2.23
2022-11-11 9:33:17.5610,0.0,-2.08,0.35,2.1
2022-11-11 9:33:17.5940,-0.04,-2.37,0.39,2.4
2022-11-11 9:33:17.5950,-0.26,-2.72,0.65,2.8
2022-11-11 9:33:17.6120,-1.1,-2.44,1.02,2.86
2022-11-11 9:33:17.6130,-1.67,-2.54,1.06,3.21
2022-11-11 9:33:17.6280,-1.35,-2.47,1.24,3.07
2022-11-11 9:33:17.6280,-0.6,-2.14,1.92,2.93
2022-11-11 9:33:17.6440,0.0,-1.67,2.26,2.81
2022-11-11 9:33:17.6440,0.73,-1.29,2.43,2.84
2022-11-11 9:33:17.6600,1.27,-1.0,2.99,3.39
2022-11-11 9:33:17.6610,1.26,-0.99,3.37,3.73
2022-11-11 9:33:17.6940,1.2,-1.02,3.39,3.73
2022-11-11 9:33:17.6950,1.07,-0.74,3.32,3.56
2022-11-11 9:33:17.7130,1.52,-0.73,3.06,3.49
2022-11-11 9:33:17.7130,1.76,-1.04,2.85,3.5
2022-11-11 9:33:17.7280,1.19,-1.39,2.77,3.31
2022-11-11 9:33:17.7280,0.41,-0.94,3.08,3.24
2022-11-11 9:33:17.7440,0.06,-0.12,2.65,2.65
2022-11-11 9:33:17.7440,0.34,0.15,2.24,2.27
2022-11-11 9:33:17.7600,0.69,0.13,2.38,2.48
2022-11-11 9:33:17.7610,1.14,0.23,2.65,2.89
2022-11-11 9:33:17.7940,1.65,0.38,3.0,3.44
2022-11-11 9:33:17.7950,2.67,0.66,2.95,4.03
2022-11-11 9:33:17.8120,3.27,0.98,2.7,4.35
2022-11-11 9:33:17.8130,3.63,1.27,2.44,4.55
2022-11-11 9:33:17.8280,3.89,1.69,1.65,4.55
2022-11-11 9:33:17.8280,3.94,2.04,0.89,4.52
2022-11-11 9:33:17.8440,4.19,2.34,0.5,4.82
2022-11-11 9:33:17.8440,4.63,2.64,-0.15,5.33
2022-11-11 9:33:17.8600,4.69,2.92,-0.72,5.57
2022-11-11 9:33:17.8610,4.48,3.5,-0.49,5.7
2022-11-11 9:33:17.8940,3.85,4.15,-2.41,6.15
2022-11-11 9:33:17.8950,5.69,5.53,-2.04,8.19
2022-11-11 9:33:17.9120,6.92,6.41,2.24,9.69
2022-11-11 9:33:17.9120,7.34,4.89,-0.93,8.86
2022-11-11 9:33:17.9280,8.46,3.79,-1.45,9.38
2022-11-11 9:33:17.9280,3.82,5.46,-6.79,9.51
2022-11-11 9:33:17.9440,2.79,4.55,-10.44,11.72
2022-11-11 9:33:17.9440,4.4,1.64,-5.89,7.53
2022-11-11 9:33:17.9600,4.03,0.45,0.68,4.11
2022-11-11 9:33:17.9610,1.23,1.12,3.0,3.43
2022-11-11 9:33:17.9950,-0.03,0.95,1.29,1.6
2022-11-11 9:33:17.9960,0.51,2.69,0.47,2.77
2022-11-11 9:33:18.0120,1.73,4.41,-3.05,5.63
2022-11-11 9:33:18.0130,3.7,3.49,-5.09,7.19
2022-11-11 9:33:18.0280,2.75,2.25,-3.64,5.08
2022-11-11 9:33:18.0280,0.73,1.49,-1.46,2.21
2022-11-11 9:33:18.0440,-0.09,0.92,-0.5,1.05
2022-11-11 9:33:18.0440,-0.09,0.63,-0.63,0.89
2022-11-11 9:33:18.0600,0.92,1.27,0.41,1.62
2022-11-11 9:33:18.0610,1.18,2.02,0.08,2.34
2022-11-11 9:33:18.0950,0.55,2.21,-1.08,2.52
2022-11-11 9:33:18.0950,-0.75,1.4,-1.97,2.53
2022-11-11 9:33:18.1120,-1.91,0.14,-2.46,3.11
2022-11-11 9:33:18.1130,-3.15,-1.19,-2.81,4.38
2022-11-11 9:33:18.1280,-2.44,-0.61,-1.39,2.87
2022-11-11 9:33:18.1280,-0.94,1.38,0.54,1.75
2022-11-11 9:33:18.1440,-0.88,1.48,-0.07,1.72
2022-11-11 9:33:18.1440,-0.65,1.44,-0.12,1.58
2022-11-11 9:33:18.1600,-0.38,1.6,-0.08,1.64
2022-11-11 9:33:18.1610,-0.26,1.66,-0.57,1.77
2022-11-11 9:33:18.1940,-0.27,1.69,-1.24,2.11
2022-11-11 9:33:18.1950,-0.84,1.98,-1.92,2.88
2022-11-11 9:33:18.2120,-1.3,2.02,-1.96,3.1
2022-11-11 9:33:18.2130,-1.72,1.71,-1.81,3.02
2022-11-11 9:33:18.2280,-1.93,1.22,-1.28,2.61
2022-11-11 9:33:18.2290,-2.08,0.84,-0.49,2.29
2022-11-11 9:33:18.2290,-2.11,0.51,-0.33,2.19
2022-11-11 9:33:18.2440,-2.32,0.4,-0.49,2.4
2022-11-11 9:33:18.2450,-2.92,0.43,-0.23,2.96
2022-11-11 9:33:18.2610,-3.61,0.55,0.19,3.65
2022-11-11 9:33:18.2930,-3.76,0.56,0.37,3.81
2022-11-11 9:33:18.2940,-3.43,0.43,0.42,3.48
2022-11-11 9:33:18.3120,-2.83,0.25,0.33,2.86
2022-11-11 9:33:18.3130,-1.76,0.04,-0.08,1.76
2022-11-11 9:33:18.3130,-0.99,-0.14,-0.32,1.04
2022-11-11 9:33:18.3270,-0.66,-0.34,-0.12,0.75
2022-11-11 9:33:18.3270,-0.79,-0.7,0.03,1.05
2022-11-11 9:33:18.3440,-0.94,-0.55,-0.4,1.16
2022-11-11 9:33:18.3440,-1.05,-0.34,-0.66,1.28
2022-11-11 9:33:18.3600,-1.44,0.05,-0.72,1.61
2022-11-11 9:33:18.3940,-1.28,0.29,-0.87,1.57
2022-11-11 9:33:18.3940,-0.96,0.42,-1.0,1.44
2022-11-11 9:33:18.4120,-1.0,0.89,-0.85,1.58
2022-11-11 9:33:18.4130,-1.11,1.39,-0.71,1.91
2022-11-11 9:33:18.4280,-0.77,1.49,-0.84,1.87
2022-11-11 9:33:18.4290,-0.58,1.71,-0.91,2.02
2022-11-11 9:33:18.4440,-0.83,1.65,-0.92,2.06
2022-11-11 9:33:18.4440,-1.27,1.65,-0.88,2.26
2022-11-11 9:33:18.4600,-1.33,1.82,-0.94,2.44
2022-11-11 9:33:18.4610,-1.01,2.58,-1.08,2.97
2022-11-11 9:33:18.4940,0.03,1.89,-0.23,1.9
2022-11-11 9:33:18.4940,0.59,1.58,-0.02,1.68
2022-11-11 9:33:18.5120,1.09,2.0,0.26,2.29
2022-11-11 9:33:18.5130,1.52,2.42,1.01,3.03
2022-11-11 9:33:18.5280,1.44,1.66,0.68,2.3
2022-11-11 9:33:18.5280,1.45,1.54,0.45,2.16
2022-11-11 9:33:18.5430,1.55,1.35,0.61,2.14
2022-11-11 9:33:18.5440,1.07,0.98,0.57,1.55
2022-11-11 9:33:18.5600,0.08,0.72,0.8,1.07
2022-11-11 9:33:18.5610,-0.67,0.23,1.24,1.42
2022-11-11 9:33:18.5940,-1.01,-0.13,1.22,1.58
2022-11-11 9:33:18.5950,-0.63,-0.36,0.98,1.21
2022-11-11 9:33:18.6120,-0.14,-0.54,0.85,1.01
2022-11-11 9:33:18.6130,-0.15,-0.12,0.77,0.79
2022-11-11 9:33:18.6280,0.1,-0.11,0.67,0.68
2022-11-11 9:33:18.6290,0.41,0.57,0.61,0.93
2022-11-11 9:33:18.6440,0.92,1.61,0.09,1.85
2022-11-11 9:33:18.6440,1.86,2.21,0.04,2.88
2022-11-11 9:33:18.6600,1.95,4.08,0.38,4.53
2022-11-11 9:33:18.6610,3.28,2.58,1.03,4.29
2022-11-11 9:33:18.6940,3.2,2.33,1.53,4.24
2022-11-11 9:33:18.6940,2.41,2.77,2.13,4.24
2022-11-11 9:33:18.7120,2.29,0.38,2.68,3.54
2022-11-11 9:33:18.7130,1.35,-0.88,2.06,2.61
2022-11-11 9:33:18.7280,0.53,-0.39,1.24,1.4
2022-11-11 9:33:18.7280,0.29,-1.62,0.73,1.8
2022-11-11 9:33:18.7440,-0.4,-2.18,-0.41,2.25
2022-11-11 9:33:18.7440,-1.22,-2.49,-0.81,2.88
2022-11-11 9:33:18.7600,-1.78,-3.15,-1.21,3.81
2022-11-11 9:33:18.7610,-1.27,-3.35,-1.87,4.04
2022-11-11 9:33:18.7940,-0.26,-2.97,-1.84,3.5
2022-11-11 9:33:18.7940,-0.19,-1.91,-1.29,2.31
2022-11-11 9:33:18.8120,-0.57,-1.02,-0.7,1.36
2022-11-11 9:33:18.8130,-0.68,-0.7,-0.54,1.11
2022-11-11 9:33:18.8280,-0.82,-0.37,-0.47,1.01
2022-11-11 9:33:18.8280,-0.57,-0.13,-0.33,0.67
2022-11-11 9:33:18.8430,0.91,0.39,-0.27,1.02
2022-11-11 9:33:18.8440,2.81,1.17,0.15,3.04
2022-11-11 9:33:18.8610,4.3,1.61,1.37,4.79
2022-11-11 9:33:18.8610,4.4,1.62,1.83,5.03
2022-11-11 9:33:18.8950,2.92,1.32,1.88,3.71
2022-11-11 9:33:18.8950,1.13,1.13,2.16,2.68
2022-11-11 9:33:18.9120,0.99,0.86,2.23,2.58
2022-11-11 9:33:18.9130,0.78,0.08,1.34,1.55
2022-11-11 9:33:18.9280,-0.96,-1.55,0.23,1.83
2022-11-11 9:33:18.9280,-1.25,-2.23,0.68,2.64
2022-11-11 9:33:18.9440,-1.39,-1.4,0.66,2.08
2022-11-11 9:33:18.9440,-0.49,0.35,0.09,0.6
2022-11-11 9:33:18.9600,0.95,1.87,-1.78,2.75
2022-11-11 9:33:18.9610,0.99,1.18,-0.57,1.64
2022-11-11 9:33:18.9950,0.93,-1.68,2.84,3.42
2022-11-11 9:33:18.9960,-0.31,-3.6,2.14,4.19
2022-11-11 9:33:19.0120,-0.81,-3.4,1.28,3.72
2022-11-11 9:33:19.0120,-0.76,-1.76,1.88,2.68
2022-11-11 9:33:19.0280,-0.74,-0.15,1.77,1.92
2022-11-11 9:33:19.0280,-0.42,0.94,1.07,1.48
2022-11-11 9:33:19.0440,0.58,2.03,1.05,2.35
2022-11-11 9:33:19.0440,2.74,4.04,1.79,5.19
2022-11-11 9:33:19.0600,3.79,5.84,1.29,7.08
2022-11-11 9:33:19.0610,2.72,6.15,1.27,6.84
2022-11-11 9:33:19.0950,1.15,5.67,3.0,6.51
2022-11-11 9:33:19.0950,-2.07,5.02,-3.49,6.45
2022-11-11 9:33:19.1120,-3.65,3.34,-9.58,10.78
2022-11-11 9:33:19.1130,-3.44,2.57,-8.88,9.86
2022-11-11 9:33:19.1280,-3.31,2.18,-6.73,7.81
2022-11-11 9:33:19.1280,-2.43,2.18,-2.86,4.34
2022-11-11 9:33:19.1440,-1.16,2.86,-0.68,3.16
2022-11-11 9:33:19.1440,0.23,3.02,0.5,3.06
2022-11-11 9:33:19.1600,0.83,2.18,1.12,2.58
2022-11-11 9:33:19.1610,0.88,1.97,1.27,2.5
2022-11-11 9:33:19.1950,0.76,2.0,1.47,2.59
2022-11-11 9:33:19.1950,0.38,2.06,1.63,2.65
2022-11-11 9:33:19.2120,-0.35,2.9,1.59,3.32
2022-11-11 9:33:19.2130,-1.29,4.07,1.36,4.48
2022-11-11 9:33:19.2280,-1.47,3.72,0.97,4.11
2022-11-11 9:33:19.2280,-3.73,2.12,0.09,4.29
2022-11-11 9:33:19.2430,-5.73,0.23,-0.53,5.75
2022-11-11 9:33:19.2440,-4.95,-0.95,0.06,5.04
2022-11-11 9:33:19.2600,-2.43,-1.11,1.64,3.13
2022-11-11 9:33:19.2610,0.42,-0.88,2.62,2.79
2022-11-11 9:33:19.2950,2.01,-0.67,2.47,3.25
2022-11-11 9:33:19.2950,1.41,-0.24,0.88,1.67
2022-11-11 9:33:19.3120,0.38,0.71,-0.17,0.82
2022-11-11 9:33:19.3120,0.37,1.75,-0.12,1.79
2022-11-11 9:33:19.3270,1.74,2.6,0.63,3.19
2022-11-11 9:33:19.3280,3.06,3.58,1.19,4.85
2022-11-11 9:33:19.3440,3.96,4.59,1.01,6.14
2022-11-11 9:33:19.3440,3.83,5.41,0.44,6.64
2022-11-11 9:33:19.3600,2.81,5.21,0.34,5.92
2022-11-11 9:33:19.3610,1.72,3.92,0.83,4.36
2022-11-11 9:33:19.3940,0.8,2.79,1.17,3.12
2022-11-11 9:33:19.3950,0.07,0.41,1.2,1.27
2022-11-11 9:33:19.4120,-0.75,-4.67,1.44,4.94
2022-11-11 9:33:19.4130,-2.8,-8.72,1.75,9.32
2022-11-11 9:33:19.4280,-5.92,-11.85,2.62,13.5
2022-11-11 9:33:19.4280,-9.17,-14.44,2.65,17.3
2022-11-11 9:33:19.4430,-13.69,-15.9,3.8,21.32
2022-11-11 9:33:19.4440,-12.59,-11.6,3.03,17.38
2022-11-11 9:33:19.4600,-5.88,-2.81,0.28,6.52
2022-11-11 9:33:19.4610,-1.82,1.57,-3.65,4.37
2022-11-11 9:33:19.4940,0.73,4.01,-11.18,11.89
2022-11-11 9:33:19.4950,1.74,4.65,-9.83,11.01
2022-11-11 9:33:19.5120,1.18,3.33,-4.37,5.61
2022-11-11 9:33:19.5130,0.54,1.52,-2.02,2.58
2022-11-11 9:33:19.5280,-0.02,-0.2,-0.53,0.56
2022-11-11 9:33:19.5280,-0.42,-1.4,0.32,1.49
2022-11-11 9:33:19.5440,-0.69,-1.88,0.82,2.16
2022-11-11 9:33:19.5450,-0.65,-1.54,1.29,2.11
2022-11-11 9:33:19.5600,-0.38,-0.69,1.61,1.79
2022-11-11 9:33:19.5610,-0.07,0.01,1.75,1.75
2022-11-11 9:33:19.5950,0.15,0.37,1.79,1.83
2022-11-11 9:33:19.5960,0.28,0.5,1.74,1.83
2022-11-11 9:33:19.6090,0.38,0.64,1.49,1.66
2022-11-11 9:33:19.6100,0.43,0.67,1.16,1.4
2022-11-11 9:33:19.6260,0.42,0.58,0.92,1.16
2022-11-11 9:33:19.6260,0.39,0.4,0.64,0.84
2022-11-11 9:33:19.6430,0.3,0.12,0.29,0.43
2022-11-11 9:33:19.6440,0.21,-0.01,-0.1,0.23
2022-11-11 9:33:19.6600,0.13,-0.05,-0.49,0.5
2022-11-11 9:33:19.6610,1.04,-0.17,-0.82,1.33
2022-11-11 9:33:19.6950,0.84,-0.31,-1.07,1.39
2022-11-11 9:33:19.6960,0.21,-0.2,-1.17,1.2
2022-11-11 9:33:19.7120,-0.07,-0.05,-1.05,1.05
2022-11-11 9:33:19.7130,-0.77,0.06,-0.79,1.1
2022-11-11 9:33:19.7280,-1.28,0.15,-0.54,1.39
2022-11-11 9:33:19.7290,-1.09,0.24,-0.43,1.19
2022-11-11 9:33:19.7440,-0.55,0.3,-0.38,0.73
2022-11-11 9:33:19.7440,-0.27,0.27,-0.3,0.48
2022-11-11 9:33:19.7600,-0.13,0.15,-0.13,0.23
2022-11-11 9:33:19.7610,-0.2,-0.06,0.08,0.22
2022-11-11 9:33:19.7950,-0.26,-0.12,0.26,0.38
2022-11-11 9:33:19.7960,-0.17,0.06,0.41,0.44
2022-11-11 9:33:19.8120,-0.03,0.17,0.51,0.53
2022-11-11 9:33:19.8130,0.08,0.1,0.54,0.55
2022-11-11 9:33:19.8280,0.13,-0.06,0.44,0.46
2022-11-11 9:33:19.8280,0.03,-0.2,0.34,0.39
2022-11-11 9:33:19.8430,0.06,-0.13,0.32,0.35
2022-11-11 9:33:19.8440,0.05,-0.05,0.35,0.35
2022-11-11 9:33:19.8600,0.06,0.02,0.3,0.3
2022-11-11 9:33:19.8610,0.1,0.1,0.12,0.18
2022-11-11 9:33:19.8950,0.12,0.15,-0.09,0.21
2022-11-11 9:33:19.8960,0.06,0.14,-0.28,0.31
2022-11-11 9:33:19.9120,-0.03,0.1,-0.38,0.39
2022-11-11 9:33:19.9130,-0.08,0.0,-0.31,0.32
2022-11-11 9:33:19.9280,-0.09,-0.09,-0.18,0.22
2022-11-11 9:33:19.9280,-0.03,-0.1,0.0,0.1
2022-11-11 9:33:19.9430,0.07,-0.04,0.19,0.2
2022-11-11 9:33:19.9440,0.15,0.05,0.3,0.33
2022-11-11 9:33:19.9600,0.19,0.13,0.27,0.35
2022-11-11 9:33:19.9610,0.2,0.14,0.21,0.32
2022-11-11 9:33:19.9940,0.22,0.06,0.16,0.27
2022-11-11 9:33:19.9950,0.22,-0.05,0.08,0.23
2022-11-11 9:33:20.0120,0.22,-0.13,-0.03,0.25
2022-11-11 9:33:20.0130,0.2,-0.18,-0.16,0.31
2022-11-11 9:33:20.0280,0.17,-0.19,-0.29,0.38
2022-11-11 9:33:20.0280,0.15,-0.17,-0.44,0.49
2022-11-11 9:33:20.0430,0.13,-0.15,-0.56,0.59
2022-11-11 9:33:20.0440,0.1,-0.12,-0.55,0.57
2022-11-11 9:33:20.0600,0.11,-0.14,-0.38,0.41
2022-11-11 9:33:20.0610,0.12,-0.15,-0.17,0.25
2022-11-11 9:33:20.0950,0.14,-0.18,0.01,0.22
2022-11-11 9:33:20.0960,0.18,-0.18,0.13,0.28
2022-11-11 9:33:20.1120,0.18,-0.07,0.2,0.27
2022-11-11 9:33:20.1130,0.13,0.09,0.23,0.27
2022-11-11 9:33:20.1280,0.05,0.22,0.23,0.32
2022-11-11 9:33:20.1280,-0.07,0.31,0.22,0.38
2022-11-11 9:33:20.1440,-0.2,0.33,0.18,0.42
2022-11-11 9:33:20.1450,-0.35,0.25,0.18,0.46
2022-11-11 9:33:20.1600,-0.48,0.16,0.16,0.53
2022-11-11 9:33:20.1610,-0.57,0.06,0.15,0.59
2022-11-11 9:33:20.1960,-0.62,0.02,0.13,0.63
2022-11-11 9:33:20.1960,-0.62,0.05,0.12,0.63
2022-11-11 9:33:20.2120,-0.56,0.11,0.07,0.57
2022-11-11 9:33:20.2130,-0.42,0.19,0.04,0.46
2022-11-11 9:33:20.2280,-0.3,0.13,0.05,0.33
2022-11-11 9:33:20.2280,-0.18,0.04,0.05,0.19
2022-11-11 9:33:20.2440,-0.06,0.08,0.05,0.11
2022-11-11 9:33:20.2440,0.05,0.14,0.04,0.15
2022-11-11 9:33:20.2600,0.07,0.14,0.03,0.15
2022-11-11 9:33:20.2610,0.04,0.09,0.04,0.1
2022-11-11 9:33:20.2940,0.0,0.03,0.07,0.07
2022-11-11 9:33:20.2950,-0.03,0.02,0.08,0.08
2022-11-11 9:33:20.3120,-0.04,0.07,0.09,0.12
2022-11-11 9:33:20.3130,-0.07,0.1,0.09,0.15
2022-11-11 9:33:20.3280,-0.08,0.09,0.09,0.15
2022-11-11 9:33:20.3290,-0.09,0.07,0.09,0.14
2022-11-11 9:33:20.3440,-0.04,0.07,0.07,0.1
2022-11-11 9:33:20.3440,0.09,0.1,-0.01,0.13
2022-11-11 9:33:20.3600,0.19,0.09,-0.11,0.23
2022-11-11 9:33:20.3610,0.21,0.01,-0.17,0.27
2022-11-11 9:33:20.3950,0.19,-0.15,-0.18,0.3
2022-11-11 9:33:20.3950,0.18,-0.27,-0.14,0.35
2022-11-11 9:33:20.4120,0.17,-0.3,-0.14,0.37
2022-11-11 9:33:20.4130,0.17,-0.22,-0.21,0.34
2022-11-11 9:33:20.4280,0.15,-0.03,-0.34,0.37
2022-11-11 9:33:20.4290,0.09,0.1,-0.47,0.48
2022-11-11 9:33:20.4440,0.03,0.14,-0.55,0.56
2022-11-11 9:33:20.4450,0.01,0.1,-0.55,0.55
2022-11-11 9:33:20.4610,0.02,-0.02,-0.44,0.44
2022-11-11 9:33:20.4620,0.07,-0.1,-0.3,0.32
2022-11-11 9:33:20.4950,0.14,-0.07,-0.16,0.22
2022-11-11 9:33:20.4960,0.22,-0.01,-0.06,0.22
2022-11-11 9:33:20.5130,0.28,0.0,0.01,0.28
2022-11-11 9:33:20.5130,0.24,-0.02,0.06,0.24
2022-11-11 9:33:20.5280,0.14,0.02,0.07,0.15
2022-11-11 9:33:20.5290,0.09,0.2,0.06,0.22
2022-11-11 9:33:20.5450,0.04,0.33,0.1,0.34
2022-11-11 9:33:20.5450,0.0,0.38,0.16,0.41
2022-11-11 9:33:20.5610,-0.03,0.36,0.23,0.42
2022-11-11 9:33:20.5620,-0.07,0.26,0.28,0.38
2022-11-11 9:33:20.5950,-0.07,0.16,0.31,0.35
2022-11-11 9:33:20.5960,-0.06,0.08,0.27,0.28
2022-11-11 9:33:20.6130,-0.03,0.03,0.17,0.17
2022-11-11 9:33:20.6130,0.03,0.01,0.03,0.04
2022-11-11 9:33:20.6290,0.07,-0.01,-0.13,0.14
2022-11-11 9:33:20.6290,0.1,-0.06,-0.25,0.27
2022-11-11 9:33:20.6450,0.11,-0.1,-0.3,0.33
2022-11-11 9:33:20.6450,0.09,-0.09,-0.32,0.34
2022-11-11 9:33:20.6610,-0.05,-0.05,-0.28,0.28
2022-11-11 9:33:20.6620,-0.17,0.05,-0.26,0.31
2022-11-11 9:33:20.6960,-0.19,0.16,-0.24,0.34
2022-11-11 9:33:20.6970,-0.19,0.22,-0.2,0.35
2022-11-11 9:33:20.7130,-0.13,0.24,-0.15,0.31
2022-11-11 9:33:20.7130,-0.06,0.25,-0.06,0.26
2022-11-11 9:33:20.7290,0.0,0.22,0.1,0.24
2022-11-11 9:33:20.7290,0.03,0.1,0.26,0.28
2022-11-11 9:33:20.7450,0.01,-0.16,0.42,0.44
2022-11-11 9:33:20.7450,0.01,-0.38,0.49,0.62
2022-11-11 9:33:20.7610,0.08,-0.38,0.42,0.57
2022-11-11 9:33:20.7620,0.22,-0.2,0.27,0.4
2022-11-11 9:33:20.7960,0.35,0.02,0.07,0.35
2022-11-11 9:33:20.7970,0.4,0.11,-0.12,0.43
2022-11-11 9:33:20.8130,0.34,0.08,-0.2,0.4
2022-11-11 9:33:20.8140,0.2,0.05,-0.16,0.26
2022-11-11 9:33:20.8290,0.14,0.1,-0.09,0.19
2022-11-11 9:33:20.8300,0.1,0.18,-0.05,0.21
2022-11-11 9:33:20.8450,0.05,0.28,-0.04,0.28
2022-11-11 9:33:20.8460,-0.01,0.22,-0.07,0.23
2022-11-11 9:33:20.8600,-0.05,0.02,-0.09,0.1
2022-11-11 9:33:20.8610,-0.09,-0.17,-0.09,0.21
2022-11-11 9:33:20.8950,-0.1,-0.31,-0.11,0.34
2022-11-11 9:33:20.8950,-0.07,-0.35,-0.17,0.39
2022-11-11 9:33:20.9140,0.0,-0.2,-0.24,0.31
2022-11-11 9:33:20.9140,0.09,-0.02,-0.25,0.26
2022-11-11 9:33:20.9270,0.13,0.01,-0.2,0.23
2022-11-11 9:33:20.9280,0.09,-0.11,-0.08,0.16
2022-11-11 9:33:20.9450,0.0,-0.19,0.06,0.19
2022-11-11 9:33:20.9450,-0.02,-0.11,0.13,0.17
2022-11-11 9:33:20.9620,0.01,0.07,0.11,0.13
2022-11-11 9:33:20.9630,0.02,0.21,0.08,0.22
2022-11-11 9:33:20.9970,0.01,0.25,0.08,0.26
2022-11-11 9:33:20.9980,0.02,0.26,0.1,0.27
2022-11-11 9:33:21.0130,0.02,0.28,0.11,0.3
2022-11-11 9:33:21.0140,0.0,0.23,0.14,0.26
2022-11-11 9:33:21.0280,-0.03,0.14,0.17,0.22
2022-11-11 9:33:21.0290,-0.05,0.05,0.17,0.18
2022-11-11 9:33:21.0450,-0.03,0.02,0.13,0.13
2022-11-11 9:33:21.0460,-0.02,-0.01,0.1,0.1
2022-11-11 9:33:21.0610,-0.01,-0.04,0.03,0.05
2022-11-11 9:33:21.0620,0.01,-0.07,-0.02,0.07
2022-11-11 9:33:21.0970,0.04,-0.07,-0.05,0.09
2022-11-11 9:33:21.0980,0.07,-0.05,-0.06,0.1
2022-11-11 9:33:21.1130,0.08,-0.03,-0.08,0.11
2022-11-11 9:33:21.1140,0.07,-0.03,-0.09,0.11
2022-11-11 9:33:21.1290,0.07,-0.02,-0.09,0.11
2022-11-11 9:33:21.1300,0.07,-0.01,-0.07,0.09
2022-11-11 9:33:21.1300,0.06,0.01,-0.04,0.07
2022-11-11 9:33:21.1450,0.05,0.02,0.0,0.05
2022-11-11 9:33:21.1450,0.0,0.05,0.05,0.07
2022-11-11 9:33:21.1620,-0.05,0.05,0.11,0.13
2022-11-11 9:33:21.1960,-0.07,0.08,0.13,0.16
2022-11-11 9:33:21.1960,-0.05,0.13,0.11,0.17
2022-11-11 9:33:21.2130,-0.02,0.14,0.11,0.17
2022-11-11 9:33:21.2140,0.01,0.13,0.08,0.15
2022-11-11 9:33:21.2290,0.03,0.13,0.03,0.13
2022-11-11 9:33:21.2300,0.06,0.13,0.0,0.14
2022-11-11 9:33:21.2450,0.08,0.14,-0.04,0.16
2022-11-11 9:33:21.2460,0.07,0.11,-0.05,0.13
2022-11-11 9:33:21.2620,0.06,0.06,-0.04,0.09
2022-11-11 9:33:21.2620,0.04,-0.01,-0.02,0.04
2022-11-11 9:33:21.2960,0.01,-0.06,0.03,0.06
2022-11-11 9:33:21.2970,-0.04,-0.07,0.07,0.1
2022-11-11 9:33:21.3140,-0.07,-0.04,0.12,0.14
2022-11-11 9:33:21.3140,-0.09,0.02,0.14,0.16
2022-11-11 9:33:21.3290,-0.11,0.06,0.17,0.21
2022-11-11 9:33:21.3300,-0.17,0.02,0.2,0.26
2022-11-11 9:33:21.3450,-0.19,0.03,0.21,0.28
2022-11-11 9:33:21.3460,-0.17,0.08,0.23,0.29
2022-11-11 9:33:21.3620,-0.14,0.11,0.27,0.32
2022-11-11 9:33:21.3630,-0.08,0.12,0.28,0.31
2022-11-11 9:33:21.3960,-0.01,0.09,0.28,0.29
2022-11-11 9:33:21.3970,0.04,0.07,0.22,0.23
2022-11-11 9:33:21.4140,0.09,0.05,0.06,0.11
2022-11-11 9:33:21.4140,0.14,0.03,-0.15,0.2
2022-11-11 9:33:21.4300,0.19,0.02,-0.38,0.42
2022-11-11 9:33:21.4300,0.26,-0.01,-0.59,0.64
2022-11-11 9:33:21.4450,0.32,-0.07,-0.71,0.78
2022-11-11 9:33:21.4460,0.35,-0.16,-0.73,0.82
2022-11-11 9:33:21.4620,0.35,-0.27,-0.69,0.81
2022-11-11 9:33:21.4630,0.33,-0.29,-0.58,0.72
2022-11-11 9:33:21.4970,0.28,-0.25,-0.41,0.55
2022-11-11 9:33:21.4980,0.13,-0.19,-0.22,0.31
2022-11-11 9:33:21.5140,0.0,-0.11,-0.07,0.13
2022-11-11 9:33:21.5140,-0.07,-0.02,0.04,0.08
2022-11-11 9:33:21.5300,-0.12,0.07,0.13,0.19
2022-11-11 9:33:21.5310,-0.16,0.15,0.22,0.31
2022-11-11 9:33:21.5460,-0.17,0.23,0.27,0.39
2022-11-11 9:33:21.5460,-0.14,0.25,0.29,0.4
2022-11-11 9:33:21.5620,-0.09,0.19,0.28,0.35
2022-11-11 9:33:21.5630,-0.03,0.07,0.24,0.25
2022-11-11 9:33:21.5980,0.01,-0.04,0.2,0.2
2022-11-11 9:33:21.5980,0.06,-0.1,0.12,0.16
2022-11-11 9:33:21.6140,0.1,-0.1,-0.01,0.14
2022-11-11 9:33:21.6150,0.12,-0.1,-0.16,0.22
2022-11-11 9:33:21.6300,0.14,-0.09,-0.29,0.33
2022-11-11 9:33:21.6300,0.13,-0.08,-0.38,0.4
2022-11-11 9:33:21.6450,0.07,-0.08,-0.36,0.37
2022-11-11 9:33:21.6460,-0.01,-0.05,-0.26,0.26
2022-11-11 9:33:21.6620,-0.07,-0.01,-0.12,0.13
2022-11-11 9:33:21.6630,-0.1,0.01,-0.01,0.1
2022-11-11 9:33:21.6970,-0.12,0.05,0.1,0.16
2022-11-11 9:33:21.6980,-0.12,0.09,0.16,0.21
2022-11-11 9:33:21.7140,-0.09,0.18,0.19,0.27
2022-11-11 9:33:21.7150,-0.05,0.22,0.21,0.3
2022-11-11 9:33:21.7300,0.0,0.16,0.22,0.27
2022-11-11 9:33:21.7310,0.03,0.05,0.18,0.18
2022-11-11 9:33:21.7460,0.06,-0.02,0.14,0.15
2022-11-11 9:33:21.7460,0.09,-0.06,0.07,0.12
2022-11-11 9:33:21.7620,0.1,-0.07,-0.01,0.12
2022-11-11 9:33:21.7630,0.09,-0.07,-0.09,0.14
2022-11-11 9:33:21.7980,0.09,-0.05,-0.14,0.17
2022-11-11 9:33:21.7990,0.07,0.01,-0.18,0.19
2022-11-11 9:33:21.8140,0.02,0.03,-0.16,0.16
2022-11-11 9:33:21.8150,0.0,0.05,-0.1,0.11
2022-11-11 9:33:21.8300,-0.01,0.07,0.02,0.07
2022-11-11 9:33:21.8310,0.0,0.05,0.13,0.13
2022-11-11 9:33:21.8460,0.02,0.05,0.19,0.19
2022-11-11 9:33:21.8470,0.04,0.08,0.22,0.23
2022-11-11 9:33:21.8470,0.06,0.09,0.21,0.23
2022-11-11 9:33:21.8630,0.06,0.07,0.17,0.19
2022-11-11 9:33:21.8960,0.07,0.04,0.15,0.17
2022-11-11 9:33:21.8970,0.08,0.03,0.1,0.13
2022-11-11 9:33:21.9140,0.1,0.03,0.06,0.12
2022-11-11 9:33:21.9150,0.12,0.02,0.03,0.12
2022-11-11 9:33:21.9280,0.13,0.01,-0.01,0.13
2022-11-11 9:33:21.9290,0.11,-0.01,-0.04,0.11
2022-11-11 9:33:21.9460,0.1,-0.02,-0.06,0.11
2022-11-11 9:33:21.9470,0.1,0.0,-0.07,0.12
2022-11-11 9:33:21.9630,0.08,0.01,-0.09,0.12
2022-11-11 9:33:21.9640,0.05,0.0,-0.1,0.11
2022-11-11 9:33:21.9970,0.02,0.0,-0.09,0.09
2022-11-11 9:33:21.9980,0.0,0.01,-0.07,0.07
2022-11-11 9:33:22.0150,-0.03,0.02,-0.06,0.06
2022-11-11 9:33:22.0150,-0.03,0.04,-0.04,0.06
2022-11-11 9:33:22.0300,-0.05,0.05,-0.01,0.07
2022-11-11 9:33:22.0310,-0.08,0.03,0.03,0.09
2022-11-11 9:33:22.0450,-0.06,0.03,0.06,0.09
2022-11-11 9:33:22.0460,-0.04,0.04,0.08,0.09
2022-11-11 9:33:22.0630,-0.02,0.05,0.08,0.09
2022-11-11 9:33:22.0640,0.0,0.05,0.06,0.07
2022-11-11 9:33:22.0980,0.03,0.05,0.03,0.06
2022-11-11 9:33:22.0980,0.05,0.04,-0.03,0.07
2022-11-11 9:33:22.1130,0.05,0.03,-0.08,0.09
2022-11-11 9:33:22.1130,0.04,0.01,-0.11,0.11
2022-11-11 9:33:22.1290,0.04,0.0,-0.14,0.14
2022-11-11 9:33:22.1300,0.03,0.0,-0.16,0.16
2022-11-11 9:33:22.1460,-0.01,0.0,-0.14,0.14
2022-11-11 9:33:22.1460,-0.05,-0.02,-0.1,0.11
2022-11-11 9:33:22.1630,-0.07,0.0,-0.06,0.09
2022-11-11 9:33:22.1640,-0.08,0.04,-0.02,0.09
2022-11-11 9:33:22.1960,-0.08,0.06,0.01,0.1
2022-11-11 9:33:22.1970,-0.08,0.06,0.02,0.1
2022-11-11 9:33:22.2150,-0.06,0.05,0.01,0.07
2022-11-11 9:33:22.2150,0.0,0.04,-0.03,0.05
2022-11-11 9:33:22.2300,0.05,0.03,-0.07,0.09
2022-11-11 9:33:22.2300,0.07,0.01,-0.08,0.1
2022-11-11 9:33:22.2470,0.09,0.0,-0.07,0.11
2022-11-11 9:33:22.2470,0.09,-0.02,-0.05,0.1
2022-11-11 9:33:22.2630,0.09,-0.03,-0.02,0.09
2022-11-11 9:33:22.2640,0.06,-0.02,0.01,0.06
2022-11-11 9:33:22.2980,0.03,-0.02,0.01,0.03
2022-11-11 9:33:22.2980,0.01,0.02,-0.01,0.02
2022-11-11 9:33:22.3150,-0.02,0.08,-0.02,0.08
2022-11-11 9:33:22.3150,-0.03,0.13,-0.04,0.13
2022-11-11 9:33:22.3300,-0.03,0.13,-0.06,0.14
2022-11-11 9:33:22.3300,-0.04,0.08,-0.03,0.09
2022-11-11 9:33:22.3460,-0.04,0.06,0.01,0.07
2022-11-11 9:33:22.3470,-0.05,0.04,0.05,0.08
2022-11-11 9:33:22.3630,-0.05,0.0,0.07,0.08
2022-11-11 9:33:22.3640,-0.05,-0.02,0.07,0.08
2022-11-11 9:33:22.3970,-0.04,-0.01,0.04,0.05
2022-11-11 9:33:22.3970,-0.02,-0.02,-0.01,0.03
2022-11-11 9:33:22.4150,-0.01,-0.01,-0.03,0.03
2022-11-11 9:33:22.4150,-0.01,0.02,-0.05,0.05
2022-11-11 9:33:22.4310,0.01,0.07,-0.04,0.08
2022-11-11 9:33:22.4310,0.02,0.11,-0.02,0.11
2022-11-11 9:33:22.4470,0.01,0.11,0.0,0.11
2022-11-11 9:33:22.4470,0.02,0.08,0.02,0.08
2022-11-11 9:33:22.4630,0.02,0.03,0.04,0.05
2022-11-11 9:33:22.4640,0.04,0.02,0.05,0.06
2022-11-11 9:33:22.4970,0.06,0.04,0.04,0.08
2022-11-11 9:33:22.4980,0.06,0.01,0.03,0.06
2022-11-11 9:33:22.5150,0.07,0.02,0.0,0.07
2022-11-11 9:33:22.5160,0.07,0.05,-0.05,0.09
2022-11-11 9:33:22.5310,0.06,0.04,-0.11,0.13
2022-11-11 9:33:22.5310,0.05,0.03,-0.16,0.17
2022-11-11 9:33:22.5470,0.04,0.03,-0.16,0.16
2022-11-11 9:33:22.5470,0.03,0.02,-0.18,0.18
2022-11-11 9:33:22.5630,0.01,-0.01,-0.14,0.14
2022-11-11 9:33:22.5640,-0.04,-0.03,-0.09,0.1
2022-11-11 9:33:22.5970,-0.07,-0.02,-0.04,0.08
2022-11-11 9:33:22.5980,-0.08,0.0,0.01,0.08
2022-11-11 9:33:22.6150,-0.09,0.03,0.04,0.1
2022-11-11 9:33:22.6160,-0.08,0.03,0.03,0.09
2022-11-11 9:33:22.6300,-0.04,0.05,0.01,0.06
2022-11-11 9:33:22.6310,0.0,0.09,-0.03,0.09
2022-11-11 9:33:22.6470,0.02,0.08,-0.08,0.11
2022-11-11 9:33:22.6470,0.02,0.03,-0.1,0.1
2022-11-11 9:33:22.6630,0.03,-0.02,-0.1,0.1
2022-11-11 9:33:22.6640,0.03,-0.06,-0.09,0.11
2022-11-11 9:33:22.6970,0.05,-0.05,-0.06,0.09
2022-11-11 9:33:22.6980,0.07,0.0,-0.06,0.09
2022-11-11 9:33:22.7150,0.07,0.03,-0.05,0.09
2022-11-11 9:33:22.7160,0.04,0.03,-0.04,0.06
2022-11-11 9:33:22.7160,0.01,-0.02,-0.05,0.05
2022-11-11 9:33:22.7310,0.0,-0.03,-0.04,0.05
2022-11-11 9:33:22.7320,0.01,0.01,-0.04,0.04
2022-11-11 9:33:22.7470,0.03,0.08,-0.05,0.09
2022-11-11 9:33:22.7470,0.07,0.12,-0.05,0.14
2022-11-11 9:33:22.7640,0.09,0.14,-0.03,0.16
2022-11-11 9:33:22.7960,0.12,0.13,-0.02,0.17
2022-11-11 9:33:22.7970,0.15,0.1,-0.01,0.18
2022-11-11 9:33:22.8150,0.15,0.04,0.01,0.15
2022-11-11 9:33:22.8160,0.09,-0.01,0.01,0.09
2022-11-11 9:33:22.8310,0.05,-0.04,0.02,0.06
2022-11-11 9:33:22.8320,0.05,-0.03,-0.01,0.05
2022-11-11 9:33:22.8470,0.06,0.01,-0.06,0.08
2022-11-11 9:33:22.8480,0.08,0.06,-0.12,0.15
2022-11-11 9:33:22.8640,0.12,0.15,-0.19,0.27
2022-11-11 9:33:22.8650,0.12,0.21,-0.23,0.33
2022-11-11 9:33:22.8970,0.13,0.22,-0.21,0.33
2022-11-11 9:33:22.8980,0.14,0.16,-0.18,0.27
2022-11-11 9:33:22.9160,0.13,0.08,-0.13,0.2
2022-11-11 9:33:22.9160,0.16,0.01,-0.09,0.18
2022-11-11 9:33:22.9310,0.18,-0.04,-0.06,0.19
2022-11-11 9:33:22.9320,0.18,-0.03,-0.05,0.18
2022-11-11 9:33:22.9470,0.2,0.01,-0.02,0.2
2022-11-11 9:33:22.9480,0.23,0.08,-0.01,0.24
2022-11-11 9:33:22.9640,0.25,0.12,0.01,0.27
2022-11-11 9:33:22.9650,0.25,0.09,0.02,0.26
2022-11-11 9:33:22.9970,0.25,0.0,0.05,0.25
2022-11-11 9:33:22.9980,0.27,-0.12,0.1,0.31
2022-11-11 9:33:23.0160,0.32,-0.12,0.14,0.36
2022-11-11 9:33:23.0170,0.35,-0.06,0.19,0.4
2022-11-11 9:33:23.0320,0.32,0.0,0.26,0.41
2022-11-11 9:33:23.0320,0.28,0.08,0.31,0.42
2022-11-11 9:33:23.0470,0.28,0.13,0.34,0.45
2022-11-11 9:33:23.0480,0.33,0.18,0.33,0.5
2022-11-11 9:33:23.0640,0.33,0.21,0.29,0.48
2022-11-11 9:33:23.0650,0.33,0.15,0.2,0.41
2022-11-11 9:33:23.0970,0.31,0.0,0.08,0.32
2022-11-11 9:33:23.0980,0.32,-0.16,-0.05,0.36
2022-11-11 9:33:23.1160,0.42,-0.23,-0.18,0.51
2022-11-11 9:33:23.1170,0.58,-0.24,-0.31,0.7
2022-11-11 9:33:23.1320,0.74,-0.25,-0.4,0.87
2022-11-11 9:33:23.1330,0.89,-0.27,-0.38,1.0
2022-11-11 9:33:23.1480,1.0,-0.29,-0.27,1.07
2022-11-11 9:33:23.1480,1.05,-0.29,-0.11,1.09
2022-11-11 9:33:23.1640,1.03,-0.27,0.06,1.06
2022-11-11 9:33:23.1650,0.95,-0.27,0.18,1.0
2022-11-11 9:33:23.1980,0.87,-0.24,0.21,0.92
2022-11-11 9:33:23.1990,0.76,-0.22,0.15,0.8
2022-11-11 9:33:23.2160,0.61,-0.2,-0.02,0.64
2022-11-11 9:33:23.2170,0.49,-0.17,-0.28,0.58
2022-11-11 9:33:23.2320,0.41,-0.15,-0.6,0.74
2022-11-11 9:33:23.2330,0.38,-0.17,-0.94,1.02
2022-11-11 9:33:23.2480,0.37,-0.24,-1.28,1.35
2022-11-11 9:33:23.2490,0.42,-0.32,-1.52,1.6
2022-11-11 9:33:23.2640,0.54,-0.39,-1.5,1.64
2022-11-11 9:33:23.2650,0.68,-0.43,-1.27,1.5
2022-11-11 9:33:23.2980,0.87,-0.41,-0.99,1.38
2022-11-11 9:33:23.2990,1.03,-0.38,-0.77,1.34
2022-11-11 9:33:23.3170,1.18,-0.36,-0.63,1.38
2022-11-11 9:33:23.3170,1.3,-0.36,-0.59,1.47
2022-11-11 9:33:23.3320,1.31,-0.46,-0.63,1.52
2022-11-11 9:33:23.3320,1.26,-0.63,-0.77,1.6
2022-11-11 9:33:23.3480,1.23,-0.75,-0.99,1.74
2022-11-11 9:33:23.3480,1.2,-0.79,-1.28,1.92
2022-11-11 9:33:23.3640,1.21,-0.76,-1.68,2.2
2022-11-11 9:33:23.3650,1.24,-0.71,-2.18,2.6
2022-11-11 9:33:23.3980,1.26,-0.69,-2.77,3.12
2022-11-11 9:33:23.3990,1.34,-0.71,-3.42,3.74
2022-11-11 9:33:23.4160,1.43,-0.68,-3.95,4.25
2022-11-11 9:33:23.4170,1.57,-0.63,-4.25,4.57
2022-11-11 9:33:23.4320,1.58,-0.6,-4.4,4.71
2022-11-11 9:33:23.4330,1.46,-0.64,-4.39,4.67
2022-11-11 9:33:23.4480,1.28,-0.83,-4.28,4.54
2022-11-11 9:33:23.4490,1.07,-1.33,-4.24,4.57
2022-11-11 9:33:23.4650,0.8,-2.15,-4.22,4.8
2022-11-11 9:33:23.4650,0.53,-2.85,-3.74,4.73
2022-11-11 9:33:23.4980,0.29,-3.4,-2.27,4.09
2022-11-11 9:33:23.4990,0.18,-3.38,-0.09,3.38
2022-11-11 9:33:23.5170,0.14,-3.01,1.9,3.56
2022-11-11 9:33:23.5170,0.03,-3.1,2.94,4.27
2022-11-11 9:33:23.5300,0.05,-3.8,2.66,4.63
2022-11-11 9:33:23.5310,-0.23,-3.3,2.91,4.4
2022-11-11 9:33:23.5480,-0.53,-1.74,3.99,4.38
2022-11-11 9:33:23.5490,-1.02,-0.29,4.79,4.9
2022-11-11 9:33:23.5640,-1.53,0.66,4.4,4.7
2022-11-11 9:33:23.5650,-1.93,1.11,3.92,4.5
2022-11-11 9:33:23.5980,-2.55,1.23,3.29,4.34
2022-11-11 9:33:23.5990,-3.18,1.02,2.35,4.08
2022-11-11 9:33:23.6160,-3.43,0.59,1.59,3.82
2022-11-11 9:33:23.6170,-3.27,0.29,1.0,3.43
2022-11-11 9:33:23.6320,-2.88,0.2,0.45,2.92
2022-11-11 9:33:23.6330,-2.33,0.44,-0.01,2.37
2022-11-11 9:33:23.6480,-1.8,0.96,-0.3,2.06
2022-11-11 9:33:23.6490,-1.32,1.69,-0.55,2.21
2022-11-11 9:33:23.6650,-0.8,2.45,-0.54,2.63
2022-11-11 9:33:23.6660,-0.25,3.05,-0.05,3.06
2022-11-11 9:33:23.6990,0.23,3.51,0.79,3.6
2022-11-11 9:33:23.6990,0.53,3.9,1.33,4.15
2022-11-11 9:33:23.7170,0.61,4.12,1.4,4.39
2022-11-11 9:33:23.7170,0.43,4.07,1.12,4.24
2022-11-11 9:33:23.7320,0.16,3.88,0.93,3.99
2022-11-11 9:33:23.7330,-0.01,3.76,0.98,3.88
2022-11-11 9:33:23.7480,-0.1,3.76,1.09,3.91
2022-11-11 9:33:23.7490,-0.01,3.76,1.2,3.94
2022-11-11 9:33:23.7650,0.2,3.61,1.14,3.79
2022-11-11 9:33:23.7660,0.45,3.26,0.84,3.39
2022-11-11 9:33:23.7990,0.74,2.85,0.29,2.95
2022-11-11 9:33:23.7990,0.98,2.63,-0.33,2.82
2022-11-11 9:33:23.8170,1.08,2.32,-1.04,2.76
2022-11-11 9:33:23.8170,1.05,1.72,-1.91,2.77
2022-11-11 9:33:23.8330,0.89,0.99,-2.78,3.08
2022-11-11 9:33:23.8330,0.64,0.26,-3.75,3.81
2022-11-11 9:33:23.8480,0.3,-0.57,-4.85,4.89
2022-11-11 9:33:23.8490,-0.1,-1.53,-5.78,5.97
2022-11-11 9:33:23.8650,-0.44,-2.22,-6.08,6.48
2022-11-11 9:33:23.8660,-0.71,-2.39,-5.33,5.88
2022-11-11 9:33:23.8990,-0.82,-1.94,-4.27,4.76
2022-11-11 9:33:23.9000,-0.84,-1.31,-3.41,3.74
2022-11-11 9:33:23.9170,-0.63,-0.38,-2.8,2.89
2022-11-11 9:33:23.9180,0.06,0.61,-2.54,2.61
2022-11-11 9:33:23.9330,0.77,1.19,-2.63,2.98
2022-11-11 9:33:23.9330,1.29,1.32,-2.65,3.22
2022-11-11 9:33:23.9480,1.73,1.13,-2.4,3.16
2022-11-11 9:33:23.9490,1.9,0.66,-2.17,2.95
2022-11-11 9:33:23.9650,1.7,-0.17,-2.36,2.91
2022-11-11 9:33:23.9660,1.04,-1.3,-2.77,3.23
2022-11-11 9:33:23.9990,0.29,-2.48,-3.11,3.98
2022-11-11 9:33:24.0000,-0.48,-3.72,-3.81,5.34
2022-11-11 9:33:24.0170,-1.09,-4.84,-4.68,6.82
2022-11-11 9:33:24.0180,-1.71,-5.86,-4.67,7.68
2022-11-11 9:33:24.0330,-2.13,-6.11,-3.59,7.39
2022-11-11 9:33:24.0330,-1.57,-4.07,-2.5,5.02
2022-11-11 9:33:24.0490,0.3,-0.26,-1.19,1.25
2022-11-11 9:33:24.0490,1.23,2.78,0.81,3.14
2022-11-11 9:33:24.0650,0.6,4.41,2.69,5.2
2022-11-11 9:33:24.0660,-0.58,4.69,3.14,5.67
2022-11-11 9:33:24.1000,-1.73,4.22,2.32,5.11
2022-11-11 9:33:24.1010,-2.67,3.35,1.61,4.57
2022-11-11 9:33:24.1170,-3.29,2.48,1.34,4.33
2022-11-11 9:33:24.1180,-3.79,1.75,1.44,4.41
2022-11-11 9:33:24.1330,-4.03,1.34,1.86,4.63
2022-11-11 9:33:24.1340,-3.74,1.21,2.47,4.64
2022-11-11 9:33:24.1490,-2.88,1.08,3.0,4.29
2022-11-11 9:33:24.1490,-2.23,1.08,3.68,4.43
2022-11-11 9:33:24.1650,-1.66,1.07,4.41,4.83
2022-11-11 9:33:24.1660,-1.17,0.92,4.83,5.05
2022-11-11 9:33:24.2000,-0.68,0.53,5.07,5.14
2022-11-11 9:33:24.2000,-0.13,-0.12,5.13,5.13
2022-11-11 9:33:24.2170,0.45,-0.95,4.94,5.05
2022-11-11 9:33:24.2180,1.13,-1.82,4.22,4.73
2022-11-11 9:33:24.2330,1.95,-2.52,2.29,3.92
2022-11-11 9:33:24.2340,2.81,-2.78,-0.47,3.98
2022-11-11 9:33:24.2490,3.46,-2.38,-2.89,5.09
2022-11-11 9:33:24.2500,3.77,-1.43,-3.99,5.67
2022-11-11 9:33:24.2650,3.47,-0.51,-3.12,4.69
2022-11-11 9:33:24.2660,2.7,-0.03,-1.24,2.97
2022-11-11 9:33:24.3010,1.93,-0.03,0.46,1.98
2022-11-11 9:33:24.3020,1.63,-0.05,1.33,2.1
2022-11-11 9:33:24.3170,1.55,-0.07,1.64,2.25
2022-11-11 9:33:24.3170,1.35,-0.1,1.64,2.12
2022-11-11 9:33:24.3330,1.0,-0.03,1.5,1.8
2022-11-11 9:33:24.3340,0.68,0.07,1.41,1.56
2022-11-11 9:33:24.3490,0.56,0.21,1.21,1.34
2022-11-11 9:33:24.3500,0.5,0.38,0.98,1.16
2022-11-11 9:33:24.3660,0.48,0.59,0.76,1.07
2022-11-11 9:33:24.3660,0.47,0.94,0.49,1.15
2022-11-11 9:33:24.4010,0.43,1.33,0.22,1.41
2022-11-11 9:33:24.4010,0.31,1.59,-0.05,1.62
2022-11-11 9:33:24.4170,0.16,1.56,-0.19,1.57
2022-11-11 9:33:24.4180,-0.05,1.25,-0.26,1.27
2022-11-11 9:33:24.4330,-0.25,0.84,-0.3,0.92
2022-11-11 9:33:24.4340,-0.34,0.54,-0.37,0.73
2022-11-11 9:33:24.4490,-0.36,0.26,-0.5,0.66
2022-11-11 9:33:24.4500,-0.34,0.01,-0.53,0.62
2022-11-11 9:33:24.4660,-0.28,-0.13,-0.57,0.64
2022-11-11 9:33:24.4660,-0.3,-0.17,-0.88,0.94
2022-11-11 9:33:24.5010,-0.38,-0.18,-1.34,1.4
2022-11-11 9:33:24.5020,-0.42,-0.15,-1.89,1.94
2022-11-11 9:33:24.5170,-0.35,-0.09,-2.28,2.3
2022-11-11 9:33:24.5180,-0.24,0.05,-2.38,2.39
2022-11-11 9:33:24.5330,0.01,0.17,-2.18,2.18
2022-11-11 9:33:24.5340,0.14,0.39,-1.77,1.81
2022-11-11 9:33:24.5490,0.21,0.72,-1.47,1.65
2022-11-11 9:33:24.5500,0.22,1.04,-1.52,1.85
2022-11-11 9:33:24.5660,0.12,1.38,-1.94,2.38
2022-11-11 9:33:24.5670,-0.06,1.6,-2.62,3.07
2022-11-11 9:33:24.6030,-0.19,1.46,-3.04,3.37
2022-11-11 9:33:24.6030,-0.27,0.86,-2.74,2.88
2022-11-11 9:33:24.6170,-0.09,0.0,-2.08,2.08
2022-11-11 9:33:24.6180,0.36,-0.68,-1.58,1.75
2022-11-11 9:33:24.6330,0.78,-1.11,-1.22,1.82
2022-11-11 9:33:24.6340,1.0,-1.42,-0.93,1.97
2022-11-11 9:33:24.6490,1.28,-1.5,-0.88,2.15
2022-11-11 9:33:24.6500,1.57,-1.36,-1.12,2.35
2022-11-11 9:33:24.6660,1.87,-1.19,-1.59,2.72
2022-11-11 9:33:24.6670,2.11,-1.28,-2.11,3.24
2022-11-11 9:33:24.7010,2.17,-1.83,-2.23,3.6
2022-11-11 9:33:24.7020,2.27,-2.46,-2.11,3.95
2022-11-11 9:33:24.7170,2.6,-2.5,-2.57,4.42
2022-11-11 9:33:24.7180,3.08,-2.38,-3.12,4.98
2022-11-11 9:33:24.7330,3.63,-2.36,-3.29,5.43
2022-11-11 9:33:24.7340,3.95,-2.69,-2.56,5.42
2022-11-11 9:33:24.7490,3.95,-3.42,-1.18,5.35
2022-11-11 9:33:24.7500,4.04,-4.04,-0.3,5.72
2022-11-11 9:33:24.7660,4.3,-4.26,-0.46,6.07
2022-11-11 9:33:24.7670,4.61,-4.23,-1.43,6.41
2022-11-11 9:33:24.8020,4.79,-4.23,-2.88,7.0
2022-11-11 9:33:24.8030,4.87,-4.29,-3.81,7.52
2022-11-11 9:33:24.8180,4.62,-4.16,-3.71,7.23
2022-11-11 9:33:24.8180,3.27,-3.75,-3.03,5.82
2022-11-11 9:33:24.8340,1.48,-3.48,-1.9,4.23
2022-11-11 9:33:24.8340,0.56,-3.36,-0.64,3.46
2022-11-11 9:33:24.8350,0.01,-3.25,0.57,3.29
2022-11-11 9:33:24.8500,-0.51,-3.42,1.51,3.77
2022-11-11 9:33:24.8500,-1.06,-3.64,2.18,4.37
2022-11-11 9:33:24.8510,-1.67,-3.72,2.67,4.87
2022-11-11 9:33:24.8840,-2.27,-3.48,2.99,5.11
2022-11-11 9:33:24.8840,-2.67,-2.85,3.14,5.01
2022-11-11 9:33:24.9000,-2.92,-1.97,3.13,4.71
2022-11-11 9:33:24.9010,-2.98,-1.0,3.02,4.35
2022-11-11 9:33:24.9170,-2.91,-0.09,2.91,4.11
2022-11-11 9:33:24.9180,-2.84,0.75,2.86,4.09
2022-11-11 9:33:24.9330,-2.67,1.47,2.64,4.03
2022-11-11 9:33:24.9340,-2.45,1.93,2.5,3.99
2022-11-11 9:33:24.9490,-2.4,1.91,2.32,3.84
2022-11-11 9:33:24.9500,-2.28,1.63,2.3,3.62
2022-11-11 9:33:24.9850,-2.03,1.4,2.43,3.46
2022-11-11 9:33:24.9860,-1.61,1.29,2.55,3.28
2022-11-11 9:33:25.0010,-1.17,1.41,2.69,3.25
2022-11-11 9:33:25.0020,-0.74,1.67,3.15,3.64
2022-11-11 9:33:25.0170,-0.24,1.95,3.63,4.12
2022-11-11 9:33:25.0180,0.29,2.1,4.25,4.74
2022-11-11 9:33:25.0330,0.63,2.22,4.74,5.27
2022-11-11 9:33:25.0340,1.0,1.96,4.3,4.83
2022-11-11 9:33:25.0500,1.19,1.52,3.52,4.01
2022-11-11 9:33:25.0500,1.2,1.21,3.15,3.58
2022-11-11 9:33:25.0860,1.24,1.18,3.06,3.5
2022-11-11 9:33:25.0860,1.09,1.45,2.94,3.45
2022-11-11 9:33:25.1010,0.48,2.3,3.06,3.85
2022-11-11 9:33:25.1020,-0.06,3.28,3.44,4.75
2022-11-11 9:33:25.1170,-0.49,3.99,3.76,5.5
2022-11-11 9:33:25.1180,-0.91,4.5,3.85,5.99
2022-11-11 9:33:25.1330,-1.26,4.9,3.69,6.26
2022-11-11 9:33:25.1340,-1.51,5.24,3.43,6.44
2022-11-11 9:33:25.1500,-1.71,5.54,3.12,6.58
2022-11-11 9:33:25.1510,-1.81,5.85,2.85,6.75
2022-11-11 9:33:25.1850,-1.8,6.14,2.49,6.86
2022-11-11 9:33:25.1860,-1.72,6.35,2.06,6.89
2022-11-11 9:33:25.2010,-1.6,6.38,1.5,6.74
2022-11-11 9:33:25.2020,-1.39,6.17,0.84,6.38
2022-11-11 9:33:25.2170,-1.06,5.58,-0.1,5.68
2022-11-11 9:33:25.2180,-0.56,4.26,-2.22,4.83
2022-11-11 9:33:25.2330,-0.24,1.75,-7.6,7.8
2022-11-11 9:33:25.2340,-0.23,-2.38,-18.1,18.25
2022-11-11 9:33:25.2500,-0.53,-7.22,-24.05,25.11
2022-11-11 9:33:25.2510,-0.78,-11.35,-19.47,22.55
2022-11-11 9:33:25.2770,-0.36,-13.45,-9.46,16.44
2022-11-11 9:33:25.2780,0.69,-11.78,-0.92,11.83
2022-11-11 9:33:25.2820,1.23,-9.91,0.98,10.03
2022-11-11 9:33:25.2830,1.42,-7.9,1.24,8.12
2022-11-11 9:33:25.3010,1.72,-4.62,1.59,5.17
2022-11-11 9:33:25.3010,1.12,-0.36,-1.15,1.64
2022-11-11 9:33:25.3170,0.43,3.98,-4.59,6.09
2022-11-11 9:33:25.3170,0.52,6.06,-3.86,7.2
2022-11-11 9:33:25.3330,0.53,6.69,-1.36,6.84
2022-11-11 9:33:25.3340,0.75,6.43,2.71,7.01
2022-11-11 9:33:25.3600,1.15,5.38,7.44,9.25
2022-11-11 9:33:25.3600,0.37,3.37,8.52,9.16
2022-11-11 9:33:25.3650,-1.28,0.28,6.95,7.07
2022-11-11 9:33:25.3660,-3.28,-6.53,1.25,7.41
2022-11-11 9:33:25.3840,-4.77,-16.11,-5.7,17.74
2022-11-11 9:33:25.3850,-5.63,-12.76,1.97,14.08
2022-11-11 9:33:25.4000,-6.36,-7.42,7.13,12.09
2022-11-11 9:33:25.4010,-5.28,-2.8,7.1,9.28
2022-11-11 9:33:25.4170,-3.09,1.11,5.86,6.71
2022-11-11 9:33:25.4170,-2.02,3.23,4.84,6.15
2022-11-11 9:33:25.4430,-1.52,4.25,3.95,5.99
2022-11-11 9:33:25.4430,-1.38,4.53,3.4,5.82
2022-11-11 9:33:25.4490,-1.6,4.2,3.24,5.54
2022-11-11 9:33:25.4500,-2.1,3.31,3.61,5.32
2022-11-11 9:33:25.4670,-2.51,2.46,4.04,5.35
2022-11-11 9:33:25.4680,-2.75,1.77,4.47,5.53
2022-11-11 9:33:25.4830,-2.79,1.18,4.63,5.53
2022-11-11 9:33:25.4840,-2.71,0.48,4.58,5.34
2022-11-11 9:33:25.5000,-2.46,0.01,4.58,5.19
2022-11-11 9:33:25.5010,-2.02,-0.03,4.52,4.95
2022-11-11 9:33:25.5260,-1.45,-0.06,4.39,4.62
2022-11-11 9:33:25.5260,-0.89,-0.09,4.09,4.18
2022-11-11 9:33:25.5330,-0.39,0.02,3.69,3.71
2022-11-11 9:33:25.5340,0.04,0.15,3.19,3.19
2022-11-11 9:33:25.5510,0.39,0.23,2.57,2.6
2022-11-11 9:33:25.5520,0.76,0.37,1.62,1.82
2022-11-11 9:33:25.5670,2.05,0.79,-2.88,3.62
2022-11-11 9:33:25.5680,3.57,1.2,-8.35,9.16
2022-11-11 9:33:25.5840,2.99,0.73,-7.11,7.74
2022-11-11 9:33:25.5840,2.33,0.07,-5.4,5.88
2022-11-11 9:33:25.6100,1.91,-0.38,-3.88,4.34
2022-11-11 9:33:25.6100,1.6,-0.66,-2.26,2.84
2022-11-11 9:33:25.6160,1.4,-0.74,-0.58,1.68
2022-11-11 9:33:25.6170,1.27,-0.59,0.65,1.54
2022-11-11 9:33:25.6340,1.35,-0.28,1.03,1.72
2022-11-11 9:33:25.6350,1.54,0.22,0.73,1.71
2022-11-11 9:33:25.6500,1.63,0.73,0.66,1.9
2022-11-11 9:33:25.6510,1.69,1.15,0.48,2.09
2022-11-11 9:33:25.6670,1.59,1.72,-0.19,2.35
2022-11-11 9:33:25.6680,1.48,2.0,-0.76,2.6
2022-11-11 9:33:25.6930,1.39,1.85,-0.97,2.5
2022-11-11 9:33:25.6940,0.93,1.21,-1.98,2.49
2022-11-11 9:33:25.6990,0.0,0.18,-4.4,4.4
2022-11-11 9:33:25.7000,-0.3,-0.65,-4.35,4.4
2022-11-11 9:33:25.7180,-0.08,-1.11,-2.75,2.96
2022-11-11 9:33:25.7180,0.11,-1.33,-1.85,2.28
2022-11-11 9:33:25.7330,0.2,-1.34,-1.55,2.05
2022-11-11 9:33:25.7340,0.22,-1.1,-1.68,2.02
2022-11-11 9:33:25.7500,0.25,-0.8,-2.45,2.58
2022-11-11 9:33:25.7510,0.34,-0.7,-3.66,3.74
2022-11-11 9:33:25.7760,0.61,-0.69,-4.1,4.2
2022-11-11 9:33:25.7770,1.52,-0.97,-3.24,3.7
2022-11-11 9:33:25.7850,1.89,-1.37,-1.84,2.97
2022-11-11 9:33:25.7860,2.0,-1.55,-0.5,2.57
2022-11-11 9:33:25.8010,2.27,-1.59,0.15,2.77
2022-11-11 9:33:25.8020,2.64,-1.52,0.13,3.04
2022-11-11 9:33:25.8170,3.0,-1.41,-0.34,3.33
2022-11-11 9:33:25.8180,3.48,-1.36,-1.28,3.94
2022-11-11 9:33:25.8340,4.41,-0.96,-3.95,5.99
2022-11-11 9:33:25.8340,4.81,-0.73,-5.33,7.21
2022-11-11 9:33:25.8590,4.07,-1.11,-3.91,5.75
2022-11-11 9:33:25.8600,3.24,-1.63,-3.27,4.88
2022-11-11 9:33:25.8680,3.45,-3.01,-3.03,5.49
2022-11-11 9:33:25.8680,4.27,-4.72,-1.49,6.53
2022-11-11 9:33:25.8850,4.59,-5.09,0.11,6.85
2022-11-11 9:33:25.8850,4.5,-5.04,0.69,6.79
2022-11-11 9:33:25.9000,3.86,-5.32,0.43,6.58
2022-11-11 9:33:25.9010,2.83,-5.75,-0.63,6.43
2022-11-11 9:33:25.9170,2.02,-5.91,-1.97,6.54
2022-11-11 9:33:25.9180,1.32,-5.38,-2.66,6.14
2022-11-11 9:33:25.9430,0.5,-4.26,-2.34,4.88
2022-11-11 9:33:25.9440,-0.04,-3.32,-1.32,3.57
2022-11-11 9:33:25.9520,-0.18,-2.71,-0.25,2.72
2022-11-11 9:33:25.9530,-0.35,-2.27,0.69,2.39
2022-11-11 9:33:25.9680,-0.66,-2.15,1.32,2.6
2022-11-11 9:33:25.9690,-1.16,-2.19,1.9,3.12
2022-11-11 9:33:25.9840,-1.74,-2.13,2.38,3.63
2022-11-11 9:33:25.9850,-2.28,-1.87,2.76,4.03
2022-11-11 9:33:26.0010,-2.76,-1.47,3.0,4.33
2022-11-11 9:33:26.0020,-3.23,-0.98,3.16,4.62
2022-11-11 9:33:26.0280,-3.66,-0.49,3.15,4.85
2022-11-11 9:33:26.0290,-3.91,-0.01,2.94,4.89
2022-11-11 9:33:26.0330,-3.76,0.39,2.57,4.57
2022-11-11 9:33:26.0330,-3.31,0.64,2.14,3.99
2022-11-11 9:33:26.0510,-2.94,0.96,1.86,3.6
2022-11-11 9:33:26.0520,-2.62,1.38,1.74,3.43
2022-11-11 9:33:26.0670,-2.27,1.63,1.8,3.32
2022-11-11 9:33:26.0680,-1.88,1.65,2.45,3.5
2022-11-11 9:33:26.0690,-1.63,1.75,2.8,3.68
2022-11-11 9:33:26.0840,-1.47,1.9,3.13,3.94
2022-11-11 9:33:26.1090,-1.17,1.93,3.59,4.24
2022-11-11 9:33:26.1100,-0.9,1.98,4.06,4.6
2022-11-11 9:33:26.1170,-0.47,1.99,4.63,5.06
2022-11-11 9:33:26.1180,0.11,1.94,5.21,5.56
2022-11-11 9:33:26.1330,0.52,1.89,4.95,5.32
2022-11-11 9:33:26.1340,0.89,1.66,4.37,4.75
2022-11-11 9:33:26.1510,1.16,1.73,4.01,4.51
2022-11-11 9:33:26.1510,1.33,2.1,3.72,4.47
2022-11-11 9:33:26.1670,1.6,2.63,3.78,4.87
2022-11-11 9:33:26.1680,1.62,3.72,3.8,5.55
2022-11-11 9:33:26.1940,1.15,4.93,3.74,6.29
2022-11-11 9:33:26.1940,0.57,5.69,3.45,6.67
2022-11-11 9:33:26.2000,-0.06,6.1,2.66,6.65
2022-11-11 9:33:26.2010,-0.67,6.3,2.0,6.64
2022-11-11 9:33:26.2190,-1.18,6.39,1.52,6.67
2022-11-11 9:33:26.2190,-1.61,6.37,1.27,6.69
2022-11-11 9:33:26.2330,-1.97,6.27,1.17,6.67
2022-11-11 9:33:26.2330,-2.22,5.99,1.16,6.49
2022-11-11 9:33:26.2340,-2.27,5.56,1.15,6.11
2022-11-11 9:33:26.2500,-2.05,4.97,0.71,5.42
2022-11-11 9:33:26.2750,-1.62,3.88,-0.63,4.25
2022-11-11 9:33:26.2760,-1.25,1.56,-4.73,5.13
2022-11-11 9:33:26.2850,-0.89,-3.11,-14.93,15.27
2022-11-11 9:33:26.2860,-0.21,-9.21,-23.79,25.51
2022-11-11 9:33:26.3000,0.34,-13.57,-19.14,23.46
2022-11-11 9:33:26.3010,1.45,-14.52,-8.6,16.93
2022-11-11 9:33:26.3170,3.08,-11.9,-1.63,12.39
2022-11-11 9:33:26.3180,4.46,-9.62,-1.71,10.74
2022-11-11 9:33:26.3340,6.25,-6.96,-5.8,11.0
2022-11-11 9:33:26.3350,6.81,-4.3,-7.26,10.84
2022-11-11 9:33:26.3610,3.61,-3.07,-3.57,5.93
2022-11-11 9:33:26.3620,0.57,-1.92,3.94,4.41
2022-11-11 9:33:26.3660,-0.28,-1.0,10.22,10.27
2022-11-11 9:33:26.3670,-2.09,-1.14,10.69,10.95
2022-11-11 9:33:26.3850,-4.05,-1.12,8.76,9.71
2022-11-11 9:33:26.3860,-5.31,-0.34,6.47,8.37
2022-11-11 9:33:26.4010,-5.32,1.05,5.74,7.89
2022-11-11 9:33:26.4020,-5.06,2.44,5.14,7.61
2022-11-11 9:33:26.4180,-4.94,3.25,4.66,7.52
2022-11-11 9:33:26.4180,-4.84,3.26,4.52,7.38
2022-11-11 9:33:26.4450,-4.81,2.7,4.51,7.12
2022-11-11 9:33:26.4450,-4.85,1.96,4.57,6.94
2022-11-11 9:33:26.4500,-4.72,1.29,4.55,6.68
2022-11-11 9:33:26.4500,-4.51,0.65,4.32,6.27
2022-11-11 9:33:26.4690,-4.21,0.28,4.05,5.84
2022-11-11 9:33:26.4690,-3.74,0.24,3.91,5.41
2022-11-11 9:33:26.4840,-3.2,0.42,3.93,5.08
2022-11-11 9:33:26.4850,-2.58,0.67,3.95,4.76
2022-11-11 9:33:26.5010,-2.05,0.76,3.85,4.42
2022-11-11 9:33:26.5020,-1.67,0.55,3.71,4.1
2022-11-11 9:33:26.5280,-1.29,0.25,3.65,3.87
2022-11-11 9:33:26.5290,-0.91,-0.15,3.41,3.53
2022-11-11 9:33:26.5340,-0.52,-0.47,2.98,3.06
2022-11-11 9:33:26.5350,0.01,-0.59,2.04,2.12
2022-11-11 9:33:26.5520,0.74,-0.71,0.29,1.06
2022-11-11 9:33:26.5530,1.49,-0.87,-2.08,2.7
2022-11-11 9:33:26.5680,2.06,-1.04,-3.85,4.48
2022-11-11 9:33:26.5680,2.41,-1.17,-4.39,5.14
2022-11-11 9:33:26.5840,2.57,-1.18,-3.77,4.71
2022-11-11 9:33:26.5850,2.64,-1.01,-2.46,3.74
2022-11-11 9:33:26.6120,2.44,-0.59,-1.22,2.79
2022-11-11 9:33:26.6130,1.94,-0.13,-0.42,1.98
2022-11-11 9:33:26.6170,1.49,0.2,0.19,1.51
2022-11-11 9:33:26.6170,1.35,0.67,0.51,1.59
2022-11-11 9:33:26.6350,1.33,1.05,0.53,1.77
2022-11-11 9:33:26.6360,1.34,1.34,0.43,1.94
2022-11-11 9:33:26.6510,1.25,1.72,-0.05,2.12
2022-11-11 9:33:26.6510,1.13,1.99,-0.62,2.37
2022-11-11 9:33:26.6680,1.08,2.05,-0.73,2.42
2022-11-11 9:33:26.6690,1.02,1.82,-0.5,2.14
2022-11-11 9:33:26.6950,0.78,1.43,-0.45,1.68
2022-11-11 9:33:26.6960,0.42,1.13,-0.46,1.29
2022-11-11 9:33:26.7020,0.03,0.74,-0.42,0.85
2022-11-11 9:33:26.7030,-0.22,0.27,-0.32,0.47
2022-11-11 9:33:26.7190,-0.31,0.0,-0.55,0.63
2022-11-11 9:33:26.7190,-0.23,-0.08,-1.05,1.07
2022-11-11 9:33:26.7350,-0.09,0.02,-1.58,1.58
2022-11-11 9:33:26.7350,0.02,-0.1,-1.81,1.81
2022-11-11 9:33:26.7510,0.12,-0.52,-1.93,2.0
2022-11-11 9:33:26.7520,0.28,-0.87,-2.25,2.42
2022-11-11 9:33:26.7790,0.53,-1.0,-2.92,3.13
2022-11-11 9:33:26.7800,0.72,-1.01,-3.7,3.9
2022-11-11 9:33:26.7840,0.77,-1.01,-4.24,4.42
2022-11-11 9:33:26.7840,0.87,-1.15,-4.31,4.54
2022-11-11 9:33:26.8020,1.09,-1.21,-3.91,4.23
2022-11-11 9:33:26.8030,1.4,-1.05,-3.28,3.71
2022-11-11 9:33:26.8180,1.8,-1.08,-2.36,3.15
2022-11-11 9:33:26.8190,2.06,-1.26,-1.13,2.66
2022-11-11 9:33:26.8340,2.3,-1.6,-0.14,2.8
2022-11-11 9:33:26.8350,2.67,-1.81,-0.1,3.22
2022-11-11 9:33:26.8620,3.11,-1.82,-0.48,3.63
2022-11-11 9:33:26.8630,3.65,-1.87,-0.71,4.16
2022-11-11 9:33:26.8670,4.24,-2.2,-0.72,4.83
2022-11-11 9:33:26.8670,4.73,-2.6,-0.74,5.44
2022-11-11 9:33:26.8850,5.25,-3.2,-0.81,6.2
2022-11-11 9:33:26.8860,5.99,-3.93,-1.23,7.26
2022-11-11 9:33:26.9010,7.21,-4.52,-2.12,8.76
2022-11-11 9:33:26.9020,7.67,-4.93,-2.69,9.5
2022-11-11 9:33:26.9180,7.26,-5.13,-3.01,9.38
2022-11-11 9:33:26.9190,5.68,-5.42,-3.09,8.43
2022-11-11 9:33:26.9460,3.16,-5.37,-2.93,6.88
2022-11-11 9:33:26.9470,1.27,-4.67,-1.8,5.16
2022-11-11 9:33:26.9520,0.14,-3.61,-0.14,3.61
2022-11-11 9:33:26.9530,-0.59,-2.7,1.09,2.97
2022-11-11 9:33:26.9690,-0.97,-2.18,1.88,3.03
2022-11-11 9:33:26.9690,-1.26,-1.89,2.44,3.33
2022-11-11 9:33:26.9850,-1.63,-1.81,2.74,3.66
2022-11-11 9:33:26.9850,-2.05,-1.89,2.8,3.95
2022-11-11 9:33:27.0010,-2.48,-1.99,2.86,4.27
2022-11-11 9:33:27.0020,-2.91,-1.95,2.91,4.55
2022-11-11 9:33:27.0300,-3.38,-1.76,2.9,4.78
2022-11-11 9:33:27.0300,-3.89,-1.44,3.02,5.13
2022-11-11 9:33:27.0340,-4.31,-0.92,3.25,5.47
2022-11-11 9:33:27.0340,-4.76,-0.23,3.28,5.78
2022-11-11 9:33:27.0530,-4.98,0.5,3.01,5.84
2022-11-11 9:33:27.0530,-4.68,1.18,2.72,5.54
2022-11-11 9:33:27.0680,-3.79,1.84,2.53,4.91
2022-11-11 9:33:27.0690,-2.92,2.45,2.46,4.53
2022-11-11 9:33:27.0850,-2.31,2.74,2.58,4.41
2022-11-11 9:33:27.0850,-1.77,2.7,2.76,4.24
2022-11-11 9:33:27.1130,-1.25,2.48,2.98,4.07
2022-11-11 9:33:27.1140,-0.68,2.22,3.38,4.1
2022-11-11 9:33:27.1170,-0.16,1.87,3.72,4.16
2022-11-11 9:33:27.1180,0.42,1.51,3.83,4.13
2022-11-11 9:33:27.1360,1.0,1.23,3.38,3.73
2022-11-11 9:33:27.1360,1.33,1.08,2.7,3.19
2022-11-11 9:33:27.1520,1.57,0.99,2.38,3.01
2022-11-11 9:33:27.1530,1.66,1.1,2.69,3.34
2022-11-11 9:33:27.1680,1.49,1.36,2.92,3.54
2022-11-11 9:33:27.1690,1.37,1.66,3.05,3.73
2022-11-11 9:33:27.1970,1.0,2.17,3.02,3.85
2022-11-11 9:33:27.1970,0.46,2.82,3.01,4.15
2022-11-11 9:33:27.2010,-0.02,3.49,3.12,4.68
2022-11-11 9:33:27.2020,-0.41,4.02,3.17,5.13
2022-11-11 9:33:27.2190,-0.78,4.36,3.1,5.4
2022-11-11 9:33:27.2200,-1.15,4.59,2.93,5.56
2022-11-11 9:33:27.2350,-1.46,4.78,2.69,5.67
2022-11-11 9:33:27.2360,-1.7,4.9,2.46,5.74
2022-11-11 9:33:27.2510,-1.89,4.92,2.18,5.7
2022-11-11 9:33:27.2510,-1.96,4.83,1.83,5.52
2022-11-11 9:33:27.2790,-1.87,4.64,1.4,5.19
2022-11-11 9:33:27.2790,-1.73,4.31,0.81,4.71
2022-11-11 9:33:27.2840,-1.67,3.61,-0.12,3.97
2022-11-11 9:33:27.2850,-1.5,2.37,-1.58,3.21
2022-11-11 9:33:27.3030,-1.58,0.15,-5.01,5.25
2022-11-11 9:33:27.3030,-1.87,-3.48,-12.62,13.22
2022-11-11 9:33:27.3180,-1.95,-7.22,-17.93,19.42
2022-11-11 9:33:27.3190,-1.19,-9.27,-15.59,18.17
2022-11-11 9:33:27.3350,0.13,-9.53,-9.9,13.74
2022-11-11 9:33:27.3360,1.04,-8.34,-4.2,9.39
2022-11-11 9:33:27.3630,1.64,-5.92,-1.13,6.24
2022-11-11 9:33:27.3640,1.67,-3.22,-0.24,3.63
2022-11-11 9:33:27.3670,1.28,-1.06,0.2,1.67
2022-11-11 9:33:27.3860,0.05,0.85,0.16,0.86
2022-11-11 9:33:27.3870,-1.27,2.84,-1.16,3.32
2022-11-11 9:33:27.4020,-2.15,3.91,-2.85,5.29
2022-11-11 9:33:27.4030,-3.26,2.59,-4.43,6.07
2022-11-11 9:33:27.4180,-3.76,0.0,-3.13,4.89
2022-11-11 9:33:27.4190,-3.5,-2.12,1.57,4.38
2022-11-11 9:33:27.4350,-3.23,-4.23,2.99,6.1
2022-11-11 9:33:27.4660,-1.7,-6.76,0.8,7.01
2022-11-11 9:33:27.4670,-1.21,-7.02,1.72,7.32
2022-11-11 9:33:27.4880,-1.36,-3.86,5.45,6.81
2022-11-11 9:33:27.4890,-1.46,0.01,7.49,7.63
2022-11-11 9:33:27.5030,-1.04,2.1,6.61,7.01
2022-11-11 9:33:27.5040,-0.78,3.11,5.61,6.46
2022-11-11 9:33:27.5190,-0.72,3.59,4.94,6.14
2022-11-11 9:33:27.5200,-0.89,3.47,4.61,5.83
2022-11-11 9:33:27.5360,-1.13,2.93,4.7,5.65
2022-11-11 9:33:27.5360,-1.34,2.21,4.8,5.45
2022-11-11 9:33:27.5670,-1.55,1.29,4.7,5.11
2022-11-11 9:33:27.5680,-1.72,0.59,4.52,4.87
2022-11-11 9:33:27.5870,-1.92,0.09,4.43,4.82
2022-11-11 9:33:27.5880,-2.09,-0.12,4.37,4.84
2022-11-11 9:33:27.6030,-2.16,-0.15,4.25,4.76
2022-11-11 9:33:27.6040,-2.09,0.01,3.99,4.5
2022-11-11 9:33:27.6190,-1.85,0.25,3.62,4.07
2022-11-11 9:33:27.6190,-1.55,0.54,3.24,3.63
2022-11-11 9:33:27.6350,-1.22,0.76,2.9,3.23
2022-11-11 9:33:27.6360,-0.97,0.9,2.52,2.84
2022-11-11 9:33:27.6670,-0.82,0.84,2.17,2.46
2022-11-11 9:33:27.6670,-0.74,0.69,1.74,2.01
2022-11-11 9:33:27.6870,-0.67,0.53,1.31,1.56
2022-11-11 9:33:27.6880,-0.53,0.21,0.64,0.85
2022-11-11 9:33:27.7030,-0.08,0.01,-1.37,1.37
2022-11-11 9:33:27.7040,0.46,0.01,-4.21,4.23
2022-11-11 9:33:27.7190,0.32,-0.16,-4.42,4.43
2022-11-11 9:33:27.7190,-0.18,-0.53,-3.83,3.87
2022-11-11 9:33:27.7350,-0.52,-0.98,-4.1,4.24
2022-11-11 9:33:27.7360,-0.53,-1.35,-4.14,4.38
2022-11-11 9:33:27.7670,-0.2,-1.33,-3.45,3.7
2022-11-11 9:33:27.7680,0.25,-0.89,-2.08,2.27
2022-11-11 9:33:27.7870,0.57,-0.28,-0.54,0.83
2022-11-11 9:33:27.7880,0.78,0.26,0.66,1.05
2022-11-11 9:33:27.8030,0.85,0.57,1.16,1.54
2022-11-11 9:33:27.8040,0.67,0.64,1.02,1.37
2022-11-11 9:33:27.8190,0.54,0.54,0.84,1.13
2022-11-11 9:33:27.8200,0.52,0.25,0.56,0.8
2022-11-11 9:33:27.8350,0.65,0.17,-0.04,0.67
2022-11-11 9:33:27.8360,0.79,0.21,-0.62,1.02
2022-11-11 9:33:27.8680,0.72,0.21,-0.81,1.1
2022-11-11 9:33:27.8680,0.37,0.07,-0.49,0.61
2022-11-11 9:33:27.8870,0.21,-0.17,-0.01,0.27
2022-11-11 9:33:27.8880,0.27,-0.29,0.3,0.49
2022-11-11 9:33:27.9030,0.29,-0.21,0.36,0.5
2022-11-11 9:33:27.9040,0.29,0.01,0.24,0.37
2022-11-11 9:33:27.9190,0.2,0.3,-0.07,0.36
2022-11-11 9:33:27.9200,-0.02,0.58,-0.64,0.86
2022-11-11 9:33:27.9360,-0.39,0.77,-1.59,1.8
2022-11-11 9:33:27.9370,-0.75,0.93,-2.67,2.92
2022-11-11 9:33:27.9680,-0.77,1.18,-2.87,3.19
2022-11-11 9:33:27.9690,-0.5,1.4,-2.33,2.76
2022-11-11 9:33:27.9880,-0.15,1.72,-2.06,2.68
2022-11-11 9:33:27.9880,0.36,1.93,-1.93,2.75
2022-11-11 9:33:28.0030,0.94,1.52,-1.17,2.13
2022-11-11 9:33:28.0040,1.15,0.75,-0.06,1.37
2022-11-11 9:33:28.0190,1.3,0.21,0.42,1.38
2022-11-11 9:33:28.0200,1.57,-0.12,0.21,1.58
2022-11-11 9:33:28.0360,1.96,-0.39,-0.67,2.1
2022-11-11 9:33:28.0370,2.37,-0.87,-1.92,3.17
2022-11-11 9:33:28.0670,2.54,-1.7,-1.88,3.58
2022-11-11 9:33:28.0680,2.5,-2.77,-0.6,3.77
2022-11-11 9:33:28.0880,2.47,-3.68,0.26,4.43
2022-11-11 9:33:28.0880,2.56,-4.37,0.68,5.11
2022-11-11 9:33:28.1030,2.53,-4.71,0.89,5.42
2022-11-11 9:33:28.1040,2.34,-4.68,1.05,5.33
2022-11-11 9:33:28.1190,2.04,-4.45,1.1,5.01
2022-11-11 9:33:28.1200,1.3,-4.32,0.61,4.55
2022-11-11 9:33:28.1360,-0.28,-4.39,-1.82,4.76
2022-11-11 9:33:28.1370,-2.08,-4.8,-6.41,8.27
2022-11-11 9:33:28.1680,-3.03,-4.97,-8.02,9.9
2022-11-11 9:33:28.1680,-3.13,-4.33,-5.73,7.83
2022-11-11 9:33:28.1880,-2.86,-3.36,-2.59,5.11
2022-11-11 9:33:28.1880,-2.44,-2.46,-0.12,3.46
2022-11-11 9:33:28.2030,-2.34,-1.9,1.35,3.3
2022-11-11 9:33:28.2040,-2.6,-1.65,2.2,3.78
2022-11-11 9:33:28.2190,-3.03,-1.33,2.85,4.36
2022-11-11 9:33:28.2200,-3.44,-0.97,3.21,4.8
2022-11-11 9:33:28.2360,-3.89,-0.52,3.37,5.17
2022-11-11 9:33:28.2370,-4.6,-0.22,3.56,5.82
2022-11-11 9:33:28.2680,-5.45,-0.11,3.8,6.64
2022-11-11 9:33:28.2690,-6.21,0.06,4.01,7.39
2022-11-11 9:33:28.2880,-6.7,0.48,4.15,7.89
2022-11-11 9:33:28.2880,-6.78,1.11,4.26,8.08
2022-11-11 9:33:28.3030,-6.38,2.07,4.42,8.03
2022-11-11 9:33:28.3040,-5.49,2.99,4.39,7.63
2022-11-11 9:33:28.3190,-4.35,3.3,4.0,6.76
2022-11-11 9:33:28.3200,-3.3,3.16,3.67,5.86
2022-11-11 9:33:28.3360,-2.55,2.78,3.4,5.07
2022-11-11 9:33:28.3370,-1.94,2.21,3.36,4.46
2022-11-11 9:33:28.3690,-1.38,1.69,3.34,3.98
2022-11-11 9:33:28.3690,-0.95,1.25,2.98,3.36
2022-11-11 9:33:28.3880,-0.53,0.94,2.61,2.82
2022-11-11 9:33:28.3890,-0.27,0.79,2.09,2.25
2022-11-11 9:33:28.4020,-0.09,0.88,1.67,1.88
2022-11-11 9:33:28.4030,0.05,1.13,1.34,1.75
2022-11-11 9:33:28.4190,0.15,1.33,1.07,1.71
2022-11-11 9:33:28.4200,0.19,1.69,1.15,2.05
2022-11-11 9:33:28.4360,0.19,2.07,1.53,2.58
2022-11-11 9:33:28.4370,0.19,2.6,2.09,3.34
2022-11-11 9:33:28.4680,0.18,3.19,2.55,4.08
2022-11-11 9:33:28.4690,0.08,3.74,2.91,4.73
2022-11-11 9:33:28.4880,-0.03,4.12,3.13,5.17
2022-11-11 9:33:28.4890,-0.24,4.3,3.18,5.35
2022-11-11 9:33:28.5040,-0.57,4.26,3.04,5.26
2022-11-11 9:33:28.5050,-0.97,4.04,2.86,5.04
2022-11-11 9:33:28.5200,-1.27,3.72,2.7,4.76
2022-11-11 9:33:28.5200,-1.49,3.37,2.52,4.46
2022-11-11 9:33:28.5360,-1.61,3.07,2.26,4.13
2022-11-11 9:33:28.5370,-1.62,2.93,1.94,3.86
2022-11-11 9:33:28.5680,-1.5,2.98,1.6,3.7
2022-11-11 9:33:28.5680,-1.03,3.14,1.08,3.47
2022-11-11 9:33:28.5860,-0.66,2.97,0.18,3.04
2022-11-11 9:33:28.5870,-0.27,1.88,-1.61,2.48
2022-11-11 9:33:28.6040,0.01,-1.1,-6.36,6.45
2022-11-11 9:33:28.6040,0.12,-4.21,-10.94,11.72
2022-11-11 9:33:28.6200,0.7,-6.07,-13.27,14.6
2022-11-11 9:33:28.6200,1.56,-6.24,-12.86,14.37
2022-11-11 9:33:28.6360,2.07,-4.95,-9.59,10.98
2022-11-11 9:33:28.6370,2.85,-3.39,-5.51,7.06
2022-11-11 9:33:28.6690,3.58,-1.97,-2.29,4.68
2022-11-11 9:33:28.6700,3.59,-0.53,0.02,3.62
2022-11-11 9:33:28.6880,2.88,0.14,2.31,3.69
2022-11-11 9:33:28.6890,1.75,-0.33,4.42,4.76
2022-11-11 9:33:28.7040,0.72,-1.9,5.22,5.6
2022-11-11 9:33:28.7050,-0.58,-3.94,4.56,6.05
2022-11-11 9:33:28.7200,-2.0,-6.0,3.84,7.39
2022-11-11 9:33:28.7210,-3.66,-7.36,2.73,8.66
2022-11-11 9:33:28.7360,-5.2,-7.23,0.44,8.91
2022-11-11 9:33:28.7370,-5.42,-5.13,-2.58,7.89
2022-11-11 9:33:28.7690,-4.62,-1.6,-3.86,6.22
2022-11-11 9:33:28.7700,-3.77,1.4,-3.53,5.35
2022-11-11 9:33:28.7880,-3.1,3.1,-2.44,5.01
2022-11-11 9:33:28.7890,-2.72,3.96,-1.26,4.96
2022-11-11 9:33:28.8040,-2.69,4.24,-0.26,5.02
2022-11-11 9:33:28.8050,-2.88,4.17,0.53,5.09
2022-11-11 9:33:28.8200,-3.19,3.68,1.3,5.04
2022-11-11 9:33:28.8200,-3.56,3.03,2.07,5.11
2022-11-11 9:33:28.8360,-3.86,2.35,2.61,5.21
2022-11-11 9:33:28.8370,-4.01,1.55,2.95,5.21
2022-11-11 9:33:28.8690,-3.77,0.84,3.45,5.17
2022-11-11 9:33:28.8700,-3.36,0.45,3.63,4.96
2022-11-11 9:33:28.8880,-3.03,0.12,3.38,4.54
2022-11-11 9:33:28.8890,-2.82,-0.26,3.08,4.18
2022-11-11 9:33:28.9040,-2.62,-0.49,2.85,3.9
2022-11-11 9:33:28.9050,-2.36,-0.51,2.67,3.59
2022-11-11 9:33:28.9200,-2.11,-0.33,2.52,3.3
2022-11-11 9:33:28.9210,-1.9,-0.11,2.4,3.06
2022-11-11 9:33:28.9360,-1.74,0.05,2.15,2.76
2022-11-11 9:33:28.9370,-1.56,0.08,1.95,2.49
2022-11-11 9:33:28.9700,-1.32,0.02,1.81,2.24
2022-11-11 9:33:28.9710,-1.1,-0.13,1.63,1.97
2022-11-11 9:33:28.9880,-0.88,-0.23,1.5,1.75
2022-11-11 9:33:28.9890,-0.7,-0.24,1.33,1.52
2022-11-11 9:33:29.0040,-0.54,-0.29,1.23,1.37
2022-11-11 9:33:29.0050,-0.41,-0.45,1.19,1.33
2022-11-11 9:33:29.0200,-0.36,-0.63,1.16,1.36
2022-11-11 9:33:29.0200,-0.3,-0.83,1.22,1.5
2022-11-11 9:33:29.0360,-0.22,-0.91,1.22,1.53
2022-11-11 9:33:29.0370,-0.16,-0.83,1.2,1.46
2022-11-11 9:33:29.0690,-0.11,-0.63,1.19,1.35
2022-11-11 9:33:29.0700,-0.06,-0.26,1.17,1.2
2022-11-11 9:33:29.0880,-0.07,0.06,1.14,1.14
2022-11-11 9:33:29.0890,-0.1,0.32,1.12,1.16
2022-11-11 9:33:29.1040,-0.04,0.43,1.14,1.21
2022-11-11 9:33:29.1050,0.02,0.39,1.18,1.24
2022-11-11 9:33:29.1200,0.09,0.27,1.22,1.25
2022-11-11 9:33:29.1210,0.18,0.06,1.27,1.28
2022-11-11 9:33:29.1370,0.26,-0.2,1.28,1.32
2022-11-11 9:33:29.1380,0.35,-0.38,1.28,1.38
2022-11-11 9:33:29.1700,0.42,-0.45,1.24,1.38
2022-11-11 9:33:29.1710,0.48,-0.34,1.15,1.29
2022-11-11 9:33:29.1880,0.54,-0.12,1.01,1.15
2022-11-11 9:33:29.1890,0.63,0.17,0.91,1.11
2022-11-11 9:33:29.2040,0.66,0.55,0.8,1.17
2022-11-11 9:33:29.2050,0.69,0.89,0.77,1.36
2022-11-11 9:33:29.2200,0.72,1.08,0.71,1.47
2022-11-11 9:33:29.2210,0.75,1.09,0.67,1.48
2022-11-11 9:33:29.2370,0.77,1.0,0.64,1.41
2022-11-11 9:33:29.2370,0.77,0.88,0.53,1.28
2022-11-11 9:33:29.2700,0.78,0.75,0.32,1.12
2022-11-11 9:33:29.2700,0.85,0.68,0.05,1.08
2022-11-11 9:33:29.2890,0.97,0.72,-0.32,1.24
2022-11-11 9:33:29.2890,1.19,0.81,-0.92,1.7
2022-11-11 9:33:29.3040,1.65,0.9,-2.45,3.08
2022-11-11 9:33:29.3050,2.26,0.88,-4.54,5.14
2022-11-11 9:33:29.3200,2.12,0.41,-3.6,4.19
2022-11-11 9:33:29.3210,1.68,-0.12,-1.63,2.34
2022-11-11 9:33:29.3370,1.37,-0.57,-1.61,2.18
2022-11-11 9:33:29.3380,0.99,-1.08,-4.72,4.94
2022-11-11 9:33:29.3700,0.37,-1.49,-7.51,7.66
2022-11-11 9:33:29.3710,0.13,-1.54,-5.51,5.72
2022-11-11 9:33:29.3890,0.52,-1.42,-1.84,2.38
2022-11-11 9:33:29.3890,1.02,-1.2,0.82,1.77
2022-11-11 9:33:29.4040,1.6,-0.92,1.77,2.55
2022-11-11 9:33:29.4050,2.2,-0.58,1.29,2.61
2022-11-11 9:33:29.4200,2.84,-0.08,-0.11,2.84
2022-11-11 9:33:29.4210,2.74,0.28,-1.0,2.93
2022-11-11 9:33:29.4370,1.81,0.14,-1.16,2.15
2022-11-11 9:33:29.4380,1.13,-0.21,-1.63,1.99
2022-11-11 9:33:29.4700,0.63,-0.53,-2.71,2.83
2022-11-11 9:33:29.4710,-0.03,-1.04,-4.47,4.58
2022-11-11 9:33:29.4890,-0.58,-1.6,-6.14,6.37
2022-11-11 9:33:29.4890,-0.78,-2.09,-6.2,6.58
2022-11-11 9:33:29.5040,-0.71,-2.45,-4.91,5.53
2022-11-11 9:33:29.5050,-0.28,-2.82,-3.25,4.31
2022-11-11 9:33:29.5200,0.28,-3.04,-1.95,3.62
2022-11-11 9:33:29.5210,0.41,-2.8,-1.51,3.2
2022-11-11 9:33:29.5370,0.49,-2.33,-1.91,3.05
2022-11-11 9:33:29.5380,0.58,-1.69,-2.46,3.04
2022-11-11 9:33:29.5710,0.71,-1.19,-2.57,2.91
2022-11-11 9:33:29.5710,0.63,-0.81,-2.49,2.69
2022-11-11 9:33:29.5890,0.42,-0.45,-2.83,2.89
2022-11-11 9:33:29.5890,0.04,0.04,-3.53,3.53
2022-11-11 9:33:29.6050,-0.5,0.2,-4.19,4.22
2022-11-11 9:33:29.6050,-1.13,0.07,-4.16,4.31
2022-11-11 9:33:29.6210,-1.54,-0.24,-3.07,3.44
2022-11-11 9:33:29.6210,-1.78,-0.83,-1.18,2.29
2022-11-11 9:33:29.6370,-1.84,-1.26,0.54,2.29
2022-11-11 9:33:29.6380,-1.67,-1.4,1.63,2.72
2022-11-11 9:33:29.6710,-1.56,-1.44,2.19,3.05
2022-11-11 9:33:29.6710,-1.74,-1.58,2.16,3.19
2022-11-11 9:33:29.6890,-2.08,-1.73,1.88,3.29
2022-11-11 9:33:29.6890,-2.41,-1.89,1.68,3.49
2022-11-11 9:33:29.7050,-2.46,-2.03,1.44,3.49
2022-11-11 9:33:29.7050,-2.44,-2.08,1.14,3.4
2022-11-11 9:33:29.7200,-2.36,-1.95,1.15,3.27
2022-11-11 9:33:29.7210,-2.28,-1.67,1.19,3.06
2022-11-11 9:33:29.7370,-2.16,-1.38,1.25,2.85
2022-11-11 9:33:29.7380,-1.9,-1.21,1.16,2.53
2022-11-11 9:33:29.7710,-1.5,-1.12,0.72,2.0
2022-11-11 9:33:29.7720,-0.85,-1.04,0.05,1.34
2022-11-11 9:33:29.7890,-0.3,-1.1,-0.9,1.45
2022-11-11 9:33:29.7890,-0.09,-0.89,-1.05,1.37
2022-11-11 9:33:29.8050,-0.31,-0.24,-0.24,0.45
2022-11-11 9:33:29.8050,-0.79,0.51,0.95,1.33
2022-11-11 9:33:29.8200,-1.48,1.42,2.12,2.94
2022-11-11 9:33:29.8210,-2.18,2.33,2.84,4.27
2022-11-11 9:33:29.8370,-2.37,3.11,3.14,5.01
2022-11-11 9:33:29.8380,-2.38,3.8,3.25,5.53
2022-11-11 9:33:29.8710,-2.48,4.27,3.18,5.87
2022-11-11 9:33:29.8720,-2.52,4.56,3.06,6.04
2022-11-11 9:33:29.8890,-2.59,4.69,2.82,6.05
2022-11-11 9:33:29.8900,-2.63,4.64,2.55,5.91
2022-11-11 9:33:29.9050,-2.53,4.51,2.35,5.68
2022-11-11 9:33:29.9050,-2.32,4.24,1.84,5.17
2022-11-11 9:33:29.9210,-1.91,3.95,1.21,4.55
2022-11-11 9:33:29.9210,-1.26,3.79,0.87,4.08
2022-11-11 9:33:29.9370,-0.65,3.77,1.03,3.96
2022-11-11 9:33:29.9380,-0.19,3.85,1.21,4.04
2022-11-11 9:33:29.9720,0.17,3.95,1.43,4.2
2022-11-11 9:33:29.9720,0.4,4.07,1.59,4.38
2022-11-11 9:33:29.9890,0.55,4.08,1.54,4.39
2022-11-11 9:33:29.9890,0.72,3.91,1.21,4.15
2022-11-11 9:33:30.0050,0.92,3.48,0.63,3.65
2022-11-11 9:33:30.0060,1.13,2.76,-0.39,3.0
2022-11-11 9:33:30.0210,1.35,1.68,-2.28,3.13
2022-11-11 9:33:30.0210,1.64,0.01,-5.32,5.56
2022-11-11 9:33:30.0370,2.0,-2.21,-9.5,9.95
2022-11-11 9:33:30.0380,2.3,-4.63,-12.62,13.63
2022-11-11 9:33:30.0720,2.47,-6.87,-12.5,14.47
2022-11-11 9:33:30.0730,2.69,-8.38,-9.88,13.23
2022-11-11 9:33:30.0890,3.38,-8.54,-5.49,10.7
2022-11-11 9:33:30.0900,4.39,-7.38,-1.99,8.81
2022-11-11 9:33:30.1050,5.32,-6.2,-1.75,8.35
2022-11-11 9:33:30.1060,5.54,-5.03,-4.16,8.56
2022-11-11 9:33:30.1210,3.93,-3.67,-5.9,7.98
2022-11-11 9:33:30.1210,1.88,-1.22,-3.2,3.9
2022-11-11 9:33:30.1370,0.65,0.4,0.48,0.9
2022-11-11 9:33:30.1380,-0.52,0.76,2.86,3.0
2022-11-11 9:33:30.1720,-1.64,0.49,3.41,3.81
2022-11-11 9:33:30.1730,-2.85,0.34,3.43,4.47
2022-11-11 9:33:30.1890,-4.12,0.46,3.09,5.17
2022-11-11 9:33:30.1900,-5.0,0.86,2.27,5.55
2022-11-11 9:33:30.2050,-5.38,1.47,1.87,5.88
2022-11-11 9:33:30.2060,-5.32,1.88,2.02,5.99
2022-11-11 9:33:30.2210,-5.08,1.79,2.35,5.87
2022-11-11 9:33:30.2210,-4.69,1.42,2.67,5.58
2022-11-11 9:33:30.2370,-4.19,1.09,3.0,5.26
2022-11-11 9:33:30.2380,-3.68,0.91,3.2,4.96
2022-11-11 9:33:30.2730,-3.29,0.9,2.94,4.5
2022-11-11 9:33:30.2740,-2.75,1.0,2.33,3.74
2022-11-11 9:33:30.2890,-1.95,1.11,1.95,2.97
2022-11-11 9:33:30.2900,-1.32,1.34,1.98,2.73
2022-11-11 9:33:30.3050,-0.95,1.31,2.23,2.75
2022-11-11 9:33:30.3060,-0.6,1.15,2.61,2.91
2022-11-11 9:33:30.3210,-0.3,0.87,2.57,2.72
2022-11-11 9:33:30.3210,-0.04,0.53,2.31,2.37
2022-11-11 9:33:30.3370,0.33,0.18,1.68,1.72
2022-11-11 9:33:30.3380,0.94,-0.17,0.35,1.01
2022-11-11 9:33:30.3730,1.8,-0.54,-1.46,2.37
2022-11-11 9:33:30.3730,2.5,-0.86,-2.3,3.5
2022-11-11 9:33:30.3890,2.82,-0.99,-1.38,3.29
2022-11-11 9:33:30.3900,2.97,-0.97,-0.06,3.12
2022-11-11 9:33:30.4050,2.97,-0.89,0.82,3.2
2022-11-11 9:33:30.4060,2.81,-0.74,0.96,3.06
2022-11-11 9:33:30.4210,2.39,-0.56,0.46,2.49
2022-11-11 9:33:30.4210,1.86,-0.52,-0.23,1.94
2022-11-11 9:33:30.4370,1.61,-0.3,-0.63,1.75
2022-11-11 9:33:30.4380,1.51,0.0,-0.61,1.62
2022-11-11 9:33:30.4730,1.4,0.28,-0.32,1.46
2022-11-11 9:33:30.4740,1.27,0.67,-0.08,1.43
2022-11-11 9:33:30.4890,1.07,1.04,0.06,1.49
2022-11-11 9:33:30.4900,0.81,1.39,0.02,1.6
2022-11-11 9:33:30.5050,0.56,1.54,-0.19,1.64
2022-11-11 9:33:30.5060,0.37,1.66,-0.35,1.73
2022-11-11 9:33:30.5210,0.18,1.67,-0.38,1.72
2022-11-11 9:33:30.5220,0.04,1.57,-0.37,1.61
2022-11-11 9:33:30.5380,-0.08,1.39,-0.33,1.43
2022-11-11 9:33:30.5390,-0.22,1.15,-0.32,1.21
2022-11-11 9:33:30.5740,-0.34,0.79,-0.41,0.95
2022-11-11 9:33:30.5750,-0.6,0.39,-0.82,1.08
2022-11-11 9:33:30.5890,-1.17,0.01,-2.06,2.36
2022-11-11 9:33:30.5900,-1.85,-0.44,-3.74,4.19
2022-11-11 9:33:30.6050,-2.14,-0.83,-4.07,4.67
2022-11-11 9:33:30.6060,-1.83,-0.86,-3.11,3.7
2022-11-11 9:33:30.6210,-1.01,-0.5,-2.26,2.52
2022-11-11 9:33:30.6220,-0.17,-0.32,-1.61,1.65
2022-11-11 9:33:30.6380,0.46,-0.49,-1.01,1.21
2022-11-11 9:33:30.6390,0.9,-0.55,-0.75,1.29
2022-11-11 9:33:30.6750,1.26,-0.44,-0.93,1.62
2022-11-11 9:33:30.6750,1.57,-0.37,-1.39,2.12
2022-11-11 9:33:30.6890,1.58,-0.56,-2.08,2.67
2022-11-11 9:33:30.6900,1.24,-1.09,-2.79,3.24
2022-11-11 9:33:30.7050,0.97,-1.65,-3.04,3.59
2022-11-11 9:33:30.7060,1.17,-2.11,-2.56,3.51
2022-11-11 9:33:30.7210,1.76,-2.18,-1.82,3.34
2022-11-11 9:33:30.7220,2.2,-1.99,-1.31,3.24
2022-11-11 9:33:30.7380,2.46,-1.84,-1.22,3.3
2022-11-11 9:33:30.7390,2.89,-1.72,-1.82,3.82
2022-11-11 9:33:30.7750,3.45,-1.77,-2.83,4.8
2022-11-11 9:33:30.7750,3.99,-2.2,-3.7,5.86
2022-11-11 9:33:30.7890,4.39,-2.99,-3.6,6.41
2022-11-11 9:33:30.7900,4.67,-3.99,-2.59,6.66
2022-11-11 9:33:30.8050,4.83,-4.73,-1.1,6.84
2022-11-11 9:33:30.8060,5.04,-4.85,-0.16,6.99
2022-11-11 9:33:30.8210,5.26,-4.51,-0.49,6.94
2022-11-11 9:33:30.8220,5.48,-4.11,-1.77,7.07
2022-11-11 9:33:30.8380,5.61,-4.1,-3.1,7.6
2022-11-11 9:33:30.8390,4.97,-4.32,-3.75,7.57
2022-11-11 9:33:30.8750,3.6,-4.11,-3.28,6.37
2022-11-11 9:33:30.8760,2.29,-2.97,-2.08,4.28
2022-11-11 9:33:30.8900,1.3,-1.98,-0.79,2.49
2022-11-11 9:33:30.8900,0.64,-1.51,0.15,1.64
2022-11-11 9:33:30.9050,-0.06,-1.46,0.79,1.66
2022-11-11 9:33:30.9060,-0.77,-1.65,1.38,2.28
2022-11-11 9:33:30.9210,-1.4,-1.75,1.98,2.99
2022-11-11 9:33:30.9220,-2.03,-1.82,2.46,3.67
2022-11-11 9:33:30.9380,-2.73,-1.83,2.95,4.41
2022-11-11 9:33:30.9390,-3.46,-1.78,3.4,5.16
2022-11-11 9:33:30.9750,-4.21,-1.62,3.65,5.8
2022-11-11 9:33:30.9760,-4.88,-1.33,3.78,6.31
2022-11-11 9:33:30.9900,-5.36,-0.92,3.85,6.66
2022-11-11 9:33:30.9900,-5.37,-0.42,3.57,6.46
2022-11-11 9:33:31.0060,-4.84,0.0,2.94,5.66
2022-11-11 9:33:31.0060,-4.19,0.61,2.21,4.77
2022-11-11 9:33:31.0210,-3.06,1.15,1.88,3.77
2022-11-11 9:33:31.0220,-1.87,1.44,2.06,3.13
2022-11-11 9:33:31.0380,-1.09,1.35,2.14,2.75
2022-11-11 9:33:31.0390,-0.52,1.37,2.63,3.01
2022-11-11 9:33:31.0750,-0.1,1.45,3.28,3.58
2022-11-11 9:33:31.0760,0.12,1.58,4.1,4.39
2022-11-11 9:33:31.0890,0.57,1.41,4.52,4.76
2022-11-11 9:33:31.0900,0.89,1.27,4.34,4.6
2022-11-11 9:33:31.1060,1.06,1.26,3.83,4.16
2022-11-11 9:33:31.1060,1.12,1.32,3.54,3.94
2022-11-11 9:33:31.1210,0.98,1.67,4.1,4.53
2022-11-11 9:33:31.1220,0.64,2.56,4.36,5.09
2022-11-11 9:33:31.1380,0.02,3.78,4.48,5.86
2022-11-11 9:33:31.1390,-0.37,4.81,4.46,6.56
2022-11-11 9:33:31.1750,-0.81,5.43,4.26,6.94
2022-11-11 9:33:31.1760,-1.32,5.74,3.89,7.05
2022-11-11 9:33:31.1900,-1.81,5.84,3.35,6.97
2022-11-11 9:33:31.1900,-2.22,5.84,2.83,6.85
2022-11-11 9:33:31.2060,-2.62,5.84,2.08,6.73
2022-11-11 9:33:31.2060,-2.99,5.83,1.39,6.69
2022-11-11 9:33:31.2210,-3.19,5.82,0.92,6.7
2022-11-11 9:33:31.2220,-3.33,5.78,0.54,6.69
2022-11-11 9:33:31.2380,-3.36,5.65,0.29,6.57
2022-11-11 9:33:31.2390,-3.19,5.41,0.18,6.28
2022-11-11 9:33:31.2750,-2.81,4.97,-0.32,5.71
2022-11-11 9:33:31.2760,-2.04,3.89,-1.5,4.64
2022-11-11 9:33:31.2900,-1.44,1.63,-4.9,5.36
2022-11-11 9:33:31.2910,-1.05,-2.96,-14.47,14.8
2022-11-11 9:33:31.3060,-0.82,-8.95,-21.72,23.5
2022-11-11 9:33:31.3070,-0.53,-12.71,-15.97,20.41
2022-11-11 9:33:31.3210,0.41,-13.34,-7.1,15.11
2022-11-11 9:33:31.3220,1.74,-11.15,-1.25,11.35
2022-11-11 9:33:31.3380,2.68,-9.26,-0.54,9.65
2022-11-11 9:33:31.3390,3.24,-5.95,-1.33,6.9
2022-11-11 9:33:31.3760,3.51,-1.71,-1.95,4.36
2022-11-11 9:33:31.3770,2.0,2.92,-3.42,4.92
2022-11-11 9:33:31.3900,-0.06,5.56,-3.3,6.46
2022-11-11 9:33:31.3900,-1.13,4.96,-1.96,5.45
2022-11-11 9:33:31.4060,-1.51,2.36,2.38,3.67
2022-11-11 9:33:31.4060,-1.68,-0.33,7.38,7.57
2022-11-11 9:33:31.4210,-2.84,-2.93,7.51,8.54
2022-11-11 9:33:31.4220,-3.33,-6.54,2.7,7.81
2022-11-11 9:33:31.4380,-2.7,-9.75,-2.73,10.47
2022-11-11 9:33:31.4390,-3.01,-8.53,-0.95,9.09
2022-11-11 9:33:31.4760,-2.67,-3.11,4.69,6.22
2022-11-11 9:33:31.4770,-1.91,1.22,6.17,6.57
2022-11-11 9:33:31.4900,-1.23,3.19,5.63,6.58
2022-11-11 9:33:31.4900,-0.88,4.3,4.92,6.59
2022-11-11 9:33:31.5060,-0.74,4.82,4.28,6.48
2022-11-11 9:33:31.5060,-0.78,4.77,3.81,6.15
2022-11-11 9:33:31.5220,-1.09,3.98,3.7,5.54
2022-11-11 9:33:31.5220,-1.42,2.82,4.07,5.15
2022-11-11 9:33:31.5380,-1.65,1.79,4.36,4.99
2022-11-11 9:33:31.5390,-1.89,0.78,4.73,5.15
2022-11-11 9:33:31.5770,-2.09,-0.1,5.03,5.44
2022-11-11 9:33:31.5770,-2.15,-0.68,4.98,5.46
2022-11-11 9:33:31.5900,-2.03,-0.87,4.57,5.07
2022-11-11 9:33:31.5910,-1.77,-0.8,4.07,4.5
2022-11-11 9:33:31.6060,-1.17,-0.44,3.09,3.33
2022-11-11 9:33:31.6060,-0.09,0.03,0.54,0.54
2022-11-11 9:33:31.6220,0.81,0.42,-1.96,2.16
2022-11-11 9:33:31.6220,0.91,0.42,-2.57,2.75
2022-11-11 9:33:31.6380,0.7,0.09,-2.29,2.39
2022-11-11 9:33:31.6390,0.61,-0.31,-1.64,1.77
2022-11-11 9:33:31.6760,0.69,-0.71,-0.94,1.36
2022-11-11 9:33:31.6770,0.78,-1.03,-0.26,1.31
2022-11-11 9:33:31.6900,0.75,-1.1,0.39,1.38
2022-11-11 9:33:31.6900,0.63,-0.91,0.22,1.12
2022-11-11 9:33:31.7060,0.44,-0.46,-0.84,1.05
2022-11-11 9:33:31.7070,0.2,-0.09,-1.62,1.63
2022-11-11 9:33:31.7220,-0.08,0.1,-1.68,1.68
2022-11-11 9:33:31.7220,-0.2,0.31,-1.38,1.42
2022-11-11 9:33:31.7380,-0.2,0.65,-0.98,1.19
2022-11-11 9:33:31.7390,-0.07,1.1,-0.54,1.22
2022-11-11 9:33:31.7770,0.1,1.53,-0.12,1.53
2022-11-11 9:33:31.7770,0.27,1.84,0.19,1.86
2022-11-11 9:33:31.7900,0.34,1.88,0.25,1.92
2022-11-11 9:33:31.7910,0.29,1.81,0.14,1.83
2022-11-11 9:33:31.8060,0.18,1.61,-0.06,1.62
2022-11-11 9:33:31.8070,0.06,1.13,-0.24,1.15
2022-11-11 9:33:31.8220,-0.09,0.6,-0.66,0.89
2022-11-11 9:33:31.8230,-0.03,0.29,-1.22,1.25
2022-11-11 9:33:31.8390,0.3,0.28,-1.49,1.54
2022-11-11 9:33:31.8390,0.61,0.13,-1.45,1.57
2022-11-11 9:33:31.8770,0.67,-0.04,-1.53,1.67
2022-11-11 9:33:31.8780,0.68,-0.1,-2.09,2.2
2022-11-11 9:33:31.8900,0.38,-0.49,-3.05,3.11
2022-11-11 9:33:31.8910,0.12,-1.15,-3.92,4.08
2022-11-11 9:33:31.9060,0.36,-1.5,-4.33,4.59
2022-11-11 9:33:31.9060,0.84,-1.57,-4.52,4.85
2022-11-11 9:33:31.9220,1.25,-1.53,-4.32,4.75
2022-11-11 9:33:31.9230,1.56,-1.32,-3.65,4.18
2022-11-11 9:33:31.9380,1.79,-1.14,-2.6,3.35
2022-11-11 9:33:31.9390,1.98,-1.14,-1.39,2.67
2022-11-11 9:33:31.9780,2.17,-1.22,-0.73,2.59
2022-11-11 9:33:31.9790,2.66,-1.19,-1.29,3.18
2022-11-11 9:33:31.9900,3.24,-1.25,-2.32,4.17
2022-11-11 9:33:31.9910,3.57,-1.63,-2.15,4.47
2022-11-11 9:33:32.0060,3.74,-2.19,-0.78,4.4
2022-11-11 9:33:32.0070,3.84,-2.65,0.73,4.72
2022-11-11 9:33:32.0220,3.97,-3.03,1.32,5.16
2022-11-11 9:33:32.0230,4.24,-3.55,0.92,5.6
2022-11-11 9:33:32.0390,4.54,-4.03,-0.15,6.07
2022-11-11 9:33:32.0390,4.8,-4.37,-2.36,6.9
2022-11-11 9:33:32.0770,4.87,-4.69,-4.52,8.13
2022-11-11 9:33:32.0780,4.33,-5.0,-4.89,8.22
2022-11-11 9:33:32.0900,2.73,-5.29,-4.14,7.25
2022-11-11 9:33:32.0910,0.98,-4.85,-2.68,5.62
2022-11-11 9:33:32.1060,0.15,-3.95,-0.97,4.07
2022-11-11 9:33:32.1070,-0.14,-3.24,0.44,3.27
2022-11-11 9:33:32.1220,-0.45,-2.91,1.27,3.2
2022-11-11 9:33:32.1230,-0.84,-3.0,1.69,3.54
2022-11-11 9:33:32.1390,-1.35,-3.2,2.1,4.05
2022-11-11 9:33:32.1400,-1.85,-3.29,2.37,4.45
2022-11-11 9:33:32.1780,-2.4,-3.21,2.43,4.68
2022-11-11 9:33:32.1790,-3.1,-2.76,2.47,4.82
2022-11-11 9:33:32.1900,-3.75,-2.06,2.32,4.86
2022-11-11 9:33:32.1910,-4.13,-1.07,1.96,4.69
2022-11-11 9:33:32.2060,-4.02,-0.05,1.55,4.3
2022-11-11 9:33:32.2070,-3.65,0.69,1.35,3.95
2022-11-11 9:33:32.2220,-3.27,1.14,1.34,3.71
2022-11-11 9:33:32.2230,-2.89,1.59,1.4,3.58
2022-11-11 9:33:32.2390,-2.63,1.86,1.57,3.58
2022-11-11 9:33:32.2390,-2.44,2.04,1.87,3.68
2022-11-11 9:33:32.2780,-2.24,2.18,2.31,3.88
2022-11-11 9:33:32.2790,-1.95,2.27,2.61,3.97
2022-11-11 9:33:32.2900,-1.61,2.2,3.14,4.15
2022-11-11 9:33:32.2910,-1.29,2.3,3.65,4.5
2022-11-11 9:33:32.3060,-1.04,2.47,3.85,4.69
2022-11-11 9:33:32.3070,-0.82,2.47,4.24,4.97
2022-11-11 9:33:32.3220,-0.67,2.45,4.83,5.45
2022-11-11 9:33:32.3230,-0.3,2.47,5.15,5.71
2022-11-11 9:33:32.3390,0.0,2.21,4.92,5.39
2022-11-11 9:33:32.3390,0.23,1.81,4.26,4.63
2022-11-11 9:33:32.3770,0.33,1.6,3.54,3.89
2022-11-11 9:33:32.3780,0.42,1.51,3.26,3.61
2022-11-11 9:33:32.3900,0.55,1.7,3.18,3.64
2022-11-11 9:33:32.3910,0.33,2.59,3.25,4.16
2022-11-11 9:33:32.4060,-0.12,3.74,3.02,4.8
2022-11-11 9:33:32.4070,-0.54,4.45,2.52,5.14
2022-11-11 9:33:32.4220,-1.03,4.86,2.03,5.36
2022-11-11 9:33:32.4230,-1.45,5.13,1.65,5.58
2022-11-11 9:33:32.4390,-1.74,5.28,1.46,5.74
2022-11-11 9:33:32.4400,-1.99,5.33,1.41,5.86
2022-11-11 9:33:32.4770,-2.12,5.31,1.48,5.9
2022-11-11 9:33:32.4780,-2.13,5.31,1.45,5.9
2022-11-11 9:33:32.4900,-2.09,5.2,1.18,5.72
2022-11-11 9:33:32.4910,-2.05,4.83,0.72,5.29
2022-11-11 9:33:32.5060,-1.98,3.85,-0.2,4.33
2022-11-11 9:33:32.5070,-1.52,1.5,-2.48,3.27
2022-11-11 9:33:32.5220,-0.99,-2.73,-9.17,9.61
2022-11-11 9:33:32.5230,-0.5,-9.65,-19.18,21.47
2022-11-11 9:33:32.5390,0.16,-15.99,-19.55,25.25
2022-11-11 9:33:32.5400,1.71,-16.8,-9.87,19.55
2022-11-11 9:33:32.5790,3.36,-12.91,-2.34,13.54
2022-11-11 9:33:32.5790,4.16,-8.36,-0.01,9.33
2022-11-11 9:33:32.5900,4.5,-3.87,-1.24,6.06
2022-11-11 9:33:32.5910,4.68,-0.03,-2.68,5.39
2022-11-11 9:33:32.6070,4.6,3.76,-5.02,7.77
2022-11-11 9:33:32.6070,3.29,7.1,-5.85,9.77
2022-11-11 9:33:32.6210,1.5,7.17,-1.03,7.39
2022-11-11 9:33:32.6220,0.78,4.88,5.12,7.11
2022-11-11 9:33:32.6390,0.15,1.96,8.65,8.87
2022-11-11 9:33:32.6400,-1.4,-1.54,9.81,10.02
2022-11-11 9:33:32.6780,-3.66,-5.36,8.75,10.89
2022-11-11 9:33:32.6790,-6.01,-9.34,5.04,12.19
2022-11-11 9:33:32.6910,-6.19,-10.48,0.79,12.19
2022-11-11 9:33:32.6910,-5.47,-6.3,1.63,8.5
2022-11-11 9:33:32.7070,-4.66,-1.42,2.92,5.67
2022-11-11 9:33:32.7070,-3.74,1.92,3.37,5.38
2022-11-11 9:33:32.7220,-2.7,3.68,3.27,5.61
2022-11-11 9:33:32.7230,-2.03,4.41,3.05,5.73
2022-11-11 9:33:32.7390,-1.7,4.48,2.95,5.62
2022-11-11 9:33:32.7400,-1.65,4.06,2.8,5.2
2022-11-11 9:33:32.7790,-1.76,3.33,2.73,4.65
2022-11-11 9:33:32.7800,-1.99,2.5,2.92,4.32
2022-11-11 9:33:32.7910,-2.21,1.75,3.32,4.35
2022-11-11 9:33:32.7910,-2.53,1.15,3.76,4.67
2022-11-11 9:33:32.8070,-2.85,0.83,3.89,4.89
2022-11-11 9:33:32.8080,-2.94,0.6,3.69,4.75
2022-11-11 9:33:32.8220,-2.75,0.75,3.34,4.39
2022-11-11 9:33:32.8230,-2.32,1.04,2.96,3.9
2022-11-11 9:33:32.8390,-1.8,1.24,2.64,3.42
2022-11-11 9:33:32.8400,-1.41,1.23,2.37,3.01
2022-11-11 9:33:32.8780,-1.13,0.98,2.14,2.61
2022-11-11 9:33:32.8790,-0.84,0.62,1.92,2.18
2022-11-11 9:33:32.8910,-0.53,0.24,1.47,1.58
2022-11-11 9:33:32.8910,0.23,-0.04,-0.68,0.71
2022-11-11 9:33:32.9070,1.42,-0.2,-4.23,4.46
2022-11-11 9:33:32.9070,1.72,-0.5,-4.64,4.97
2022-11-11 9:33:32.9220,1.47,-0.94,-3.45,3.86
2022-11-11 9:33:32.9230,1.3,-1.38,-2.52,3.15
2022-11-11 9:33:32.9390,1.35,-1.6,-1.91,2.83
2022-11-11 9:33:32.9400,1.47,-1.46,-1.39,2.49
2022-11-11 9:33:32.9800,1.52,-0.95,-0.73,1.93
2022-11-11 9:33:32.9810,1.4,-0.31,0.01,1.43
2022-11-11 9:33:32.9910,1.25,0.22,0.45,1.34
2022-11-11 9:33:32.9910,1.24,0.69,0.26,1.44
2022-11-11 9:33:33.0070,1.23,1.09,-0.22,1.65
2022-11-11 9:33:33.0070,1.17,1.38,-0.41,1.85
2022-11-11 9:33:33.0220,1.05,1.67,-0.9,2.16
2022-11-11 9:33:33.0230,0.67,1.77,-1.51,2.42
2022-11-11 9:33:33.0390,0.06,1.4,-2.12,2.54
2022-11-11 9:33:33.0400,-0.36,0.81,-2.5,2.65
2022-11-11 9:33:33.0790,-0.11,0.22,-1.91,1.92
2022-11-11 9:33:33.0800,0.43,-0.19,-0.99,1.09
2022-11-11 9:33:33.0910,0.7,-0.52,-0.49,1.0
2022-11-11 9:33:33.0910,0.86,-0.74,-0.5,1.23
2022-11-11 9:33:33.1070,0.93,-0.7,-1.08,1.58
2022-11-11 9:33:33.1070,0.71,-0.51,-2.43,2.58
2022-11-11 9:33:33.1230,0.32,-0.23,-3.99,4.0
2022-11-11 9:33:33.1230,0.4,-0.21,-4.28,4.3
2022-11-11 9:33:33.1390,0.84,-0.41,-3.27,3.4
2022-11-11 9:33:33.1400,1.32,-0.5,-2.15,2.57
2022-11-11 9:33:33.1800,1.65,-0.41,-1.49,2.26
2022-11-11 9:33:33.1800,1.84,-0.27,-1.21,2.21
2022-11-11 9:33:33.1910,2.07,-0.14,-0.89,2.25
2022-11-11 9:33:33.1910,2.16,-0.16,-0.35,2.19
2022-11-11 9:33:33.2070,2.32,-0.28,-0.09,2.33
2022-11-11 9:33:33.2080,2.63,-0.39,-0.66,2.73
2022-11-11 9:33:33.2230,3.11,-0.64,-1.86,3.67
2022-11-11 9:33:33.2240,3.56,-1.21,-2.42,4.47
2022-11-11 9:33:33.2390,3.73,-2.29,-0.99,4.48
2022-11-11 9:33:33.2400,3.84,-3.38,0.77,5.17
2022-11-11 9:33:33.2790,4.11,-4.34,1.48,6.15
2022-11-11 9:33:33.2800,4.35,-4.94,1.4,6.72
2022-11-11 9:33:33.2910,4.33,-5.34,0.16,6.87
2022-11-11 9:33:33.2920,4.08,-6.11,-2.6,7.79
2022-11-11 9:33:33.3070,3.25,-7.12,-5.71,9.68
2022-11-11 9:33:33.3070,1.59,-7.43,-7.39,10.59
2022-11-11 9:33:33.3230,0.01,-6.8,-6.83,9.63
2022-11-11 9:33:33.3230,-0.65,-5.22,-4.29,6.78
2022-11-11 9:33:33.3390,-0.63,-3.47,-1.54,3.84
2022-11-11 9:33:33.3400,-0.62,-2.28,0.56,2.42
2022-11-11 9:33:33.3800,-0.66,-1.57,1.85,2.51
2022-11-11 9:33:33.3810,-0.93,-1.18,2.52,2.93
2022-11-11 9:33:33.3910,-1.46,-0.96,2.9,3.38
2022-11-11 9:33:33.3910,-1.86,-0.68,3.01,3.6
2022-11-11 9:33:33.4070,-2.26,-0.31,3.01,3.77
2022-11-11 9:33:33.4070,-2.72,0.02,3.08,4.1
2022-11-11 9:33:33.4230,-3.16,0.28,3.26,4.54
2022-11-11 9:33:33.4230,-3.41,0.68,3.31,4.8
2022-11-11 9:33:33.4390,-3.72,0.91,3.31,5.06
2022-11-11 9:33:33.4400,-4.06,0.98,3.26,5.29
2022-11-11 9:33:33.4800,-4.36,1.02,3.42,5.63
2022-11-11 9:33:33.4800,-4.17,0.88,3.41,5.45
2022-11-11 9:33:33.4910,-3.65,0.95,3.08,4.86
2022-11-11 9:33:33.4920,-2.85,1.2,2.74,4.13
2022-11-11 9:33:33.5070,-2.0,1.25,2.43,3.38
2022-11-11 9:33:33.5080,-1.23,1.19,2.31,2.87
2022-11-11 9:33:33.5230,-0.55,1.21,2.33,2.68
2022-11-11 9:33:33.5230,-0.03,1.22,2.17,2.48
2022-11-11 9:33:33.5390,0.39,0.9,1.68,1.94
2022-11-11 9:33:33.5400,0.95,0.41,1.15,1.54
2022-11-11 9:33:33.5790,1.22,-0.11,0.93,1.53
2022-11-11 9:33:33.5800,1.24,-0.05,1.6,2.02
2022-11-11 9:33:33.5910,1.26,0.25,2.6,2.9
2022-11-11 9:33:33.5920,1.31,0.58,2.89,3.22
2022-11-11 9:33:33.6070,1.42,1.17,3.41,3.87
2022-11-11 9:33:33.6080,1.43,1.64,4.02,4.57
2022-11-11 9:33:33.6230,1.19,2.17,4.15,4.83
2022-11-11 9:33:33.6240,0.49,2.77,3.62,4.58
2022-11-11 9:33:33.6400,-0.16,3.29,3.33,4.68
2022-11-11 9:33:33.6400,-0.58,3.69,3.25,4.95
2022-11-11 9:33:33.6800,-1.01,4.02,3.13,5.19
2022-11-11 9:33:33.6810,-1.39,4.32,3.02,5.45
2022-11-11 9:33:33.6910,-1.68,4.63,2.94,5.73
2022-11-11 9:33:33.6920,-1.92,4.94,2.76,5.97
2022-11-11 9:33:33.7070,-2.09,5.23,2.4,6.12
2022-11-11 9:33:33.7080,-2.19,5.38,1.95,6.12
2022-11-11 9:33:33.7230,-2.24,5.43,1.42,6.04
2022-11-11 9:33:33.7230,-2.29,5.27,0.82,5.8
2022-11-11 9:33:33.7390,-2.44,4.81,0.12,5.39
2022-11-11 9:33:33.7400,-2.68,3.94,-0.93,4.85
2022-11-11 9:33:33.7790,-2.95,2.19,-3.57,5.12
2022-11-11 9:33:33.7800,-2.89,-1.16,-10.82,11.25
2022-11-11 9:33:33.7910,-2.72,-5.35,-17.61,18.6
2022-11-11 9:33:33.7920,-2.08,-8.43,-15.8,18.02
2022-11-11 9:33:33.8070,-0.49,-10.38,-11.07,15.18
2022-11-11 9:33:33.8080,1.06,-10.39,-5.78,11.93
2022-11-11 9:33:33.8230,2.17,-8.45,-1.43,8.84
2022-11-11 9:33:33.8240,2.85,-5.51,-0.04,6.2
2022-11-11 9:33:33.8240,2.88,-2.05,0.03,3.53
2022-11-11 9:33:33.8400,2.42,0.39,-0.01,2.45
2022-11-11 9:33:33.8790,0.48,1.03,-1.44,1.83
2022-11-11 9:33:33.8800,-1.87,-0.23,-3.7,4.15
2022-11-11 9:33:33.8910,-3.24,-2.42,-4.17,5.8
2022-11-11 9:33:33.8920,-4.0,-4.02,-2.74,6.29
2022-11-11 9:33:33.9070,-3.01,-3.91,-0.81,5.0
2022-11-11 9:33:33.9080,0.2,-3.26,-0.09,3.26
2022-11-11 9:33:33.9230,1.07,-2.16,4.18,4.82
2022-11-11 9:33:33.9240,-0.16,0.12,9.12,9.12
2022-11-11 9:33:33.9400,-1.31,2.26,9.46,9.81
2022-11-11 9:33:33.9400,-1.64,3.24,7.55,8.37
2022-11-11 9:33:33.9800,-1.74,3.62,6.07,7.27
2022-11-11 9:33:33.9800,-1.96,3.45,5.16,6.5
2022-11-11 9:33:33.9910,-2.38,2.79,4.78,6.02
2022-11-11 9:33:33.9920,-3.02,1.81,4.73,5.89
2022-11-11 9:33:34.0070,-3.64,0.7,4.85,6.1
2022-11-11 9:33:34.0080,-4.16,-0.16,4.87,6.4
2022-11-11 9:33:34.0230,-4.45,-0.65,4.76,6.54
2022-11-11 9:33:34.0240,-4.37,-0.43,4.5,6.28
2022-11-11 9:33:34.0400,-3.62,0.48,3.47,5.03
2022-11-11 9:33:34.0410,-2.05,1.37,2.03,3.19
2022-11-11 9:33:34.0800,-1.47,1.46,2.08,2.93
2022-11-11 9:33:34.0810,-1.51,1.1,2.6,3.2
2022-11-11 9:33:34.0910,-1.14,0.75,2.74,3.06
2022-11-11 9:33:34.0920,-0.58,0.22,2.31,2.39
2022-11-11 9:33:34.1070,0.14,-0.38,1.09,1.16
2022-11-11 9:33:34.1080,0.99,-1.07,-0.66,1.6
2022-11-11 9:33:34.1230,1.84,-1.65,-2.22,3.32
2022-11-11 9:33:34.1240,2.55,-1.91,-2.78,4.22
2022-11-11 9:33:34.1400,2.96,-1.84,-2.06,4.04
2022-11-11 9:33:34.1410,3.14,-1.6,-0.82,3.61
2022-11-11 9:33:34.1810,3.08,-1.43,0.02,3.39
2022-11-11 9:33:34.1810,2.61,-1.18,0.57,2.92
2022-11-11 9:33:34.1920,2.0,-0.78,1.07,2.39
2022-11-11 9:33:34.1920,1.53,-0.4,1.15,1.95
2022-11-11 9:33:34.2070,1.3,-0.04,1.05,1.67
2022-11-11 9:33:34.2080,1.21,0.33,0.76,1.46
2022-11-11 9:33:34.2230,1.14,0.59,0.34,1.32
2022-11-11 9:33:34.2240,1.07,0.8,0.08,1.33
2022-11-11 9:33:34.2400,1.01,1.01,-0.01,1.42
2022-11-11 9:33:34.2410,0.95,0.99,0.11,1.37
2022-11-11 9:33:34.2810,0.84,1.0,0.19,1.31
2022-11-11 9:33:34.2810,0.66,0.96,0.17,1.17
2022-11-11 9:33:34.2920,0.32,0.93,0.06,0.98
2022-11-11 9:33:34.2920,-0.03,0.94,-0.21,0.96
2022-11-11 9:33:34.3070,-0.28,0.75,-0.44,0.91
2022-11-11 9:33:34.3080,-0.25,0.53,-0.37,0.69
2022-11-11 9:33:34.3230,0.11,0.41,-0.37,0.56
2022-11-11 9:33:34.3240,0.53,0.28,-0.54,0.8
2022-11-11 9:33:34.3400,0.76,0.12,-0.85,1.14
2022-11-11 9:33:34.3410,0.79,-0.06,-1.34,1.55
2022-11-11 9:33:34.3800,0.67,-0.26,-1.87,2.0
2022-11-11 9:33:34.3810,0.44,-0.56,-2.23,2.34
2022-11-11 9:33:34.3920,0.12,-0.72,-2.41,2.51
2022-11-11 9:33:34.3920,0.05,-0.8,-2.61,2.73
2022-11-11 9:33:34.4070,0.14,-0.8,-2.83,2.94
2022-11-11 9:33:34.4080,0.3,-0.78,-3.12,3.22
2022-11-11 9:33:34.4230,0.37,-0.59,-3.56,3.62
2022-11-11 9:33:34.4240,0.42,-0.34,-4.13,4.16
2022-11-11 9:33:34.4400,0.47,-0.2,-4.44,4.46
2022-11-11 9:33:34.4410,0.56,-0.32,-4.09,4.14
2022-11-11 9:33:34.4800,0.79,-0.65,-3.08,3.24
2022-11-11 9:33:34.4810,1.3,-1.01,-2.11,2.67
2022-11-11 9:33:34.4920,1.9,-1.08,-1.85,2.86
2022-11-11 9:33:34.4920,2.44,-0.97,-1.95,3.27
2022-11-11 9:33:34.5080,2.6,-0.89,-1.33,3.05
2022-11-11 9:33:34.5080,2.52,-1.02,0.21,2.72
2022-11-11 9:33:34.5230,2.37,-1.37,1.66,3.2
2022-11-11 9:33:34.5240,2.29,-2.05,2.32,3.85
2022-11-11 9:33:34.5400,2.39,-2.88,2.23,4.35
2022-11-11 9:33:34.5410,2.65,-3.82,1.46,4.87
2022-11-11 9:33:34.5800,3.09,-4.92,-0.13,5.81
2022-11-11 9:33:34.5810,3.64,-5.98,-1.79,7.22
2022-11-11 9:33:34.5920,4.2,-6.65,-3.03,8.42
2022-11-11 9:33:34.5920,4.7,-6.13,-3.81,8.61
2022-11-11 9:33:34.6070,4.91,-4.34,-3.58,7.46
2022-11-11 9:33:34.6080,4.49,-2.14,-2.57,5.59
2022-11-11 9:33:34.6230,3.16,-0.62,-0.87,3.33
2022-11-11 9:33:34.6240,1.61,-0.22,1.04,1.92
2022-11-11 9:33:34.6400,0.73,-0.05,2.86,2.95
2022-11-11 9:33:34.6410,0.24,0.14,4.6,4.6
2022-11-11 9:33:34.6810,-0.01,0.46,5.67,5.68
2022-11-11 9:33:34.6810,0.05,0.9,6.02,6.08
2022-11-11 9:33:34.6920,0.22,1.05,6.15,6.24
2022-11-11 9:33:34.6920,0.2,0.86,6.11,6.17
2022-11-11 9:33:34.7080,0.09,0.48,6.01,6.02
2022-11-11 9:33:34.7080,0.02,-0.06,6.02,6.02
2022-11-11 9:33:34.7240,0.01,-0.83,6.01,6.06
2022-11-11 9:33:34.7240,0.03,-1.51,6.17,6.35
2022-11-11 9:33:34.7400,0.1,-2.06,6.27,6.6
2022-11-11 9:33:34.7410,0.46,-1.96,6.22,6.53
2022-11-11 9:33:34.7810,1.01,-1.1,5.96,6.14
2022-11-11 9:33:34.7820,1.57,-0.4,5.46,5.69
2022-11-11 9:33:34.7920,2.31,-0.25,3.22,3.97
2022-11-11 9:33:34.7920,3.14,-0.6,0.69,3.27
2022-11-11 9:33:34.8080,3.41,-0.8,0.36,3.52
2022-11-11 9:33:34.8080,3.32,-0.5,1.64,3.73
2022-11-11 9:33:34.8240,3.19,-0.42,2.48,4.06
2022-11-11 9:33:34.8240,3.2,-0.55,2.95,4.38
2022-11-11 9:33:34.8400,3.3,-0.82,3.19,4.66
2022-11-11 9:33:34.8410,3.38,-0.81,3.52,4.94
2022-11-11 9:33:34.8810,3.24,-0.55,3.61,4.88
2022-11-11 9:33:34.8820,2.8,-0.4,3.92,4.83
2022-11-11 9:33:34.8920,1.68,-0.34,4.2,4.53
2022-11-11 9:33:34.8920,0.24,-0.31,4.19,4.2
2022-11-11 9:33:34.9070,-1.11,-0.41,4.24,4.4
2022-11-11 9:33:34.9080,-2.17,-0.26,4.55,5.04
2022-11-11 9:33:34.9240,-2.83,-0.19,5.26,5.97
2022-11-11 9:33:34.9240,-3.14,-0.1,5.68,6.49
2022-11-11 9:33:34.9410,-3.34,0.15,5.45,6.39
2022-11-11 9:33:34.9410,-3.48,0.61,4.88,6.02
2022-11-11 9:33:34.9820,-3.62,1.05,4.29,5.71
2022-11-11 9:33:34.9820,-3.68,1.42,3.8,5.47
2022-11-11 9:33:34.9920,-3.68,1.74,3.37,5.28
2022-11-11 9:33:34.9920,-3.68,1.97,2.91,5.08
2022-11-11 9:33:35.0080,-3.7,2.18,2.41,4.92
2022-11-11 9:33:35.0080,-3.69,2.31,1.8,4.71
2022-11-11 9:33:35.0230,-3.7,2.29,1.06,4.47
2022-11-11 9:33:35.0240,-3.71,2.11,0.23,4.27
2022-11-11 9:33:35.0400,-3.42,1.75,-0.3,3.85
2022-11-11 9:33:35.0410,-2.69,1.26,-0.49,3.01
2022-11-11 9:33:35.0820,-1.81,0.66,-0.51,1.99
2022-11-11 9:33:35.0820,-1.4,-0.09,-0.6,1.52
2022-11-11 9:33:35.0920,-1.04,-1.08,-1.09,1.85
2022-11-11 9:33:35.0920,-0.49,-2.24,-2.21,3.18
2022-11-11 9:33:35.1080,0.2,-3.28,-4.29,5.4
2022-11-11 9:33:35.1090,0.98,-3.56,-6.67,7.62
2022-11-11 9:33:35.1240,1.36,-2.64,-7.73,8.28
2022-11-11 9:33:35.1250,0.48,-1.03,-6.42,6.51
2022-11-11 9:33:35.1410,-0.74,0.3,-3.11,3.21
2022-11-11 9:33:35.1420,-0.64,0.99,0.57,1.3
2022-11-11 9:33:35.1810,-0.06,1.27,4.06,4.25
2022-11-11 9:33:35.1820,-0.03,0.43,6.57,6.58
2022-11-11 9:33:35.1920,-0.5,-1.1,6.77,6.87
2022-11-11 9:33:35.1930,-0.8,-2.17,5.74,6.18
2022-11-11 9:33:35.2060,-1.04,-2.86,4.88,5.75
2022-11-11 9:33:35.2070,-1.14,-3.22,4.6,5.72
2022-11-11 9:33:35.2240,-1.03,-2.79,4.39,5.3
2022-11-11 9:33:35.2250,-0.66,-1.69,4.09,4.47
2022-11-11 9:33:35.2400,-0.25,-0.55,3.73,3.77
2022-11-11 9:33:35.2410,0.05,0.41,3.28,3.3
2022-11-11 9:33:35.2820,0.27,1.2,2.73,2.99
2022-11-11 9:33:35.2830,0.47,1.74,2.3,2.92
2022-11-11 9:33:35.2920,0.8,2.02,2.12,3.03
2022-11-11 9:33:35.2920,1.1,2.05,1.95,3.03
2022-11-11 9:33:35.3080,1.34,1.78,1.56,2.71
2022-11-11 9:33:35.3080,1.21,1.27,0.62,1.86
2022-11-11 9:33:35.3240,0.87,0.59,-0.92,1.39
2022-11-11 9:33:35.3240,0.65,-0.13,-2.48,2.56
2022-11-11 9:33:35.3400,0.69,-0.62,-3.13,3.26
2022-11-11 9:33:35.3410,0.97,-0.67,-2.9,3.13
2022-11-11 9:33:35.3830,1.34,-0.44,-2.33,2.72
2022-11-11 9:33:35.3830,1.62,-0.36,-1.42,2.18
2022-11-11 9:33:35.3920,1.87,-0.38,-0.46,1.96
2022-11-11 9:33:35.3930,2.14,-0.43,0.52,2.24
2022-11-11 9:33:35.4080,2.47,-0.51,1.15,2.77
2022-11-11 9:33:35.4090,3.08,-0.41,1.56,3.47
2022-11-11 9:33:35.4240,3.64,-0.39,1.73,4.04
2022-11-11 9:33:35.4250,3.59,-0.66,1.56,3.96
2022-11-11 9:33:35.4400,3.33,-1.02,1.34,3.73
2022-11-11 9:33:35.4410,3.21,-1.51,1.32,3.78
2022-11-11 9:33:35.4820,3.01,-2.04,1.35,3.87
2022-11-11 9:33:35.4820,2.82,-2.25,1.22,3.8
2022-11-11 9:33:35.4920,2.82,-2.12,1.07,3.68
2022-11-11 9:33:35.4920,2.93,-1.68,1.0,3.52
2022-11-11 9:33:35.5080,2.95,-0.89,0.79,3.18
2022-11-11 9:33:35.5090,2.76,-0.07,0.56,2.81
2022-11-11 9:33:35.5240,2.38,0.71,0.57,2.54
2022-11-11 9:33:35.5250,1.93,1.28,0.56,2.38
2022-11-11 9:33:35.5410,1.48,1.54,0.66,2.23
2022-11-11 9:33:35.5410,1.05,1.47,0.94,2.03
2022-11-11 9:33:35.5830,0.62,1.2,1.19,1.8
2022-11-11 9:33:35.5830,0.23,0.95,1.31,1.63
2022-11-11 9:33:35.5920,-0.17,0.78,1.28,1.5
2022-11-11 9:33:35.5930,-0.52,0.63,1.22,1.46
2022-11-11 9:33:35.6080,-0.78,0.45,1.17,1.47
2022-11-11 9:33:35.6090,-0.95,0.28,1.12,1.49
2022-11-11 9:33:35.6240,-1.04,0.13,1.04,1.47
2022-11-11 9:33:35.6250,-1.08,0.03,0.9,1.4
2022-11-11 9:33:35.6410,-1.12,-0.13,0.72,1.33
2022-11-11 9:33:35.6410,-1.12,-0.33,0.56,1.29
2022-11-11 9:33:35.6820,-1.08,-0.49,0.39,1.24
2022-11-11 9:33:35.6830,-0.98,-0.67,0.24,1.21
2022-11-11 9:33:35.6920,-0.8,-0.87,0.16,1.19
2022-11-11 9:33:35.6930,-0.54,-0.98,0.05,1.12
2022-11-11 9:33:35.7080,-0.18,-1.0,-0.08,1.01
2022-11-11 9:33:35.7090,0.15,-1.01,-0.19,1.03
2022-11-11 9:33:35.7240,0.49,-0.95,-0.29,1.1
2022-11-11 9:33:35.7250,0.86,-0.81,-0.51,1.28
2022-11-11 9:33:35.7410,1.35,-0.52,-1.12,1.82
2022-11-11 9:33:35.7410,2.26,-0.01,-3.13,3.86
2022-11-11 9:33:35.7830,2.81,0.35,-3.94,4.85
2022-11-11 9:33:35.7840,2.8,0.26,-2.83,3.98
2022-11-11 9:33:35.7900,2.77,-0.13,-1.62,3.21
2022-11-11 9:33:35.7910,2.82,-0.53,-0.79,2.97
2022-11-11 9:33:35.8080,2.93,-0.89,-0.55,3.11
2022-11-11 9:33:35.8090,3.06,-1.21,-0.58,3.34
2022-11-11 9:33:35.8240,3.24,-1.56,-0.58,3.64
2022-11-11 9:33:35.8250,3.44,-2.08,-0.68,4.07
2022-11-11 9:33:35.8410,3.66,-2.64,-0.94,4.6
2022-11-11 9:33:35.8410,3.89,-3.16,-1.24,5.16
2022-11-11 9:33:35.8830,3.94,-3.54,-1.13,5.41
2022-11-11 9:33:35.8840,3.71,-3.51,-0.74,5.16
2022-11-11 9:33:35.8900,3.21,-3.17,-0.6,4.55
2022-11-11 9:33:35.8910,2.38,-2.64,-1.04,3.7
2022-11-11 9:33:35.9080,1.37,-2.19,-1.92,3.21
2022-11-11 9:33:35.9090,0.4,-1.83,-2.79,3.36
2022-11-11 9:33:35.9240,-0.28,-1.39,-3.07,3.38
2022-11-11 9:33:35.9250,-0.6,-0.83,-2.98,3.15
2022-11-11 9:33:35.9410,-0.75,-0.16,-3.06,3.15
2022-11-11 9:33:35.9410,-0.72,0.53,-3.18,3.3
2022-11-11 9:33:35.9840,-0.34,0.96,-3.25,3.4
2022-11-11 9:33:35.9840,0.37,0.82,-3.13,3.25
2022-11-11 9:33:35.9930,0.96,0.23,-2.72,2.89
2022-11-11 9:33:35.9930,1.17,-0.34,-2.01,2.35
2022-11-11 9:33:36.0080,1.12,-0.75,-1.12,1.75
2022-11-11 9:33:36.0090,0.95,-1.04,-0.22,1.42
2022-11-11 9:33:36.0250,0.69,-1.27,0.73,1.61
2022-11-11 9:33:36.0250,0.46,-1.55,1.95,2.53
2022-11-11 9:33:36.0410,0.22,-1.81,3.0,3.51
2022-11-11 9:33:36.0410,0.01,-2.01,3.67,4.18
2022-11-11 9:33:36.0840,-0.07,-2.09,4.21,4.7
2022-11-11 9:33:36.0850,-0.03,-1.94,4.69,5.07
2022-11-11 9:33:36.0920,0.07,-1.63,4.89,5.15
2022-11-11 9:33:36.0930,0.31,-1.12,4.78,4.91
2022-11-11 9:33:36.1080,0.55,-0.46,4.41,4.46
2022-11-11 9:33:36.1090,0.7,0.05,3.73,3.79
2022-11-11 9:33:36.1240,0.75,0.22,2.69,2.8
2022-11-11 9:33:36.1250,0.74,0.13,1.6,1.76
2022-11-11 9:33:36.1410,0.92,-0.23,0.62,1.13
2022-11-11 9:33:36.1410,1.16,-0.79,-0.26,1.42
2022-11-11 9:33:36.1850,1.2,-1.25,-0.8,1.9
2022-11-11 9:33:36.1860,0.89,-1.46,-0.84,1.9
2022-11-11 9:33:36.1910,0.52,-1.36,-0.65,1.59
2022-11-11 9:33:36.1910,0.13,-1.02,-0.15,1.03
2022-11-11 9:33:36.2080,-0.13,-0.67,1.0,1.21
2022-11-11 9:33:36.2090,-0.39,-0.31,2.08,2.13
2022-11-11 9:33:36.2240,-0.52,0.02,2.86,2.9
2022-11-11 9:33:36.2250,-0.78,0.35,3.55,3.65
2022-11-11 9:33:36.2410,-0.89,0.73,4.2,4.35
2022-11-11 9:33:36.2420,-0.95,1.11,4.49,4.72
2022-11-11 9:33:36.2860,-1.02,1.2,4.48,4.74
2022-11-11 9:33:36.2860,-1.0,1.21,4.24,4.52
2022-11-11 9:33:36.2910,-0.7,1.24,3.57,3.84
2022-11-11 9:33:36.2910,-0.41,1.49,2.31,2.77
2022-11-11 9:33:36.2920,-0.27,2.17,1.25,2.51
2022-11-11 9:33:36.3090,-0.59,3.13,0.86,3.29
2022-11-11 9:33:36.3090,-1.21,3.92,0.83,4.18
2022-11-11 9:33:36.3240,-1.71,4.5,0.83,4.88
2022-11-11 9:33:36.3250,-2.17,4.98,0.9,5.5
2022-11-11 9:33:36.3410,-2.54,5.24,1.01,5.91
2022-11-11 9:33:36.3850,-2.8,5.35,1.1,6.13
2022-11-11 9:33:36.3860,-2.94,5.43,1.09,6.27
2022-11-11 9:33:36.3900,-2.92,5.44,0.9,6.23
2022-11-11 9:33:36.3910,-2.61,5.29,0.58,5.92
2022-11-11 9:33:36.4090,-1.66,4.97,0.21,5.24
2022-11-11 9:33:36.4090,-0.63,4.3,-0.2,4.35
2022-11-11 9:33:36.4240,0.06,3.42,-0.56,3.46
2022-11-11 9:33:36.4250,0.68,2.41,-1.18,2.76
2022-11-11 9:33:36.4400,1.25,1.12,-2.03,2.63
2022-11-11 9:33:36.4410,1.87,-0.55,-2.99,3.56
2022-11-11 9:33:36.4840,2.62,-2.73,-4.06,5.54
2022-11-11 9:33:36.4850,3.38,-5.55,-5.42,8.46
2022-11-11 9:33:36.4930,4.13,-8.74,-7.0,11.93
2022-11-11 9:33:36.4930,5.05,-10.42,-6.81,13.43
2022-11-11 9:33:36.5090,6.1,-9.62,-5.26,12.54
2022-11-11 9:33:36.5090,6.76,-7.38,-3.73,10.68
2022-11-11 9:33:36.5250,6.9,-4.59,-2.41,8.63
2022-11-11 9:33:36.5250,6.73,-1.37,-2.21,7.21
2022-11-11 9:33:36.5400,6.24,1.66,-2.65,6.97
2022-11-11 9:33:36.5410,5.04,3.37,-3.24,6.87
2022-11-11 9:33:36.5850,2.04,1.92,-2.6,3.82
2022-11-11 9:33:36.5860,-0.3,-0.8,0.13,0.86
2022-11-11 9:33:36.5930,-2.38,-2.7,2.47,4.36
2022-11-11 9:33:36.5930,-5.14,-4.37,2.63,7.24
2022-11-11 9:33:36.6090,-8.03,-5.91,1.29,10.05
2022-11-11 9:33:36.6090,-8.79,-7.36,1.24,11.53
2022-11-11 9:33:36.6240,-7.01,-6.24,0.27,9.38
2022-11-11 9:33:36.6250,-3.99,-1.78,1.12,4.51
