time,ax,ay,az,atotal
2022-11-11 9:33:10.3960,0.19,-0.09,-0.3,0.36
2022-11-11 9:33:10.3970,0.17,-0.17,-0.3,0.38
2022-11-11 9:33:10.4160,0.17,-0.25,-0.28,0.41
2022-11-11 9:33:10.4170,0.14,-0.25,-0.18,0.33
2022-11-11 9:33:10.4460,0.09,-0.17,-0.08,0.2
2022-11-11 9:33:10.4470,0.03,-0.05,-0.06,0.08
2022-11-11 9:33:10.4620,-0.02,0.06,-0.06,0.08
2022-11-11 9:33:10.4620,-0.07,0.12,-0.05,0.14
2022-11-11 9:33:10.4790,-0.13,0.18,-0.06,0.23
2022-11-11 9:33:10.4800,-0.15,0.18,-0.07,0.24
2022-11-11 9:33:10.4950,-0.16,0.15,-0.05,0.22
2022-11-11 9:33:10.4960,-0.19,0.06,-0.03,0.2
2022-11-11 9:33:10.5120,-0.19,-0.1,-0.01,0.21
2022-11-11 9:33:10.5130,-0.14,-0.19,0.08,0.24
2022-11-11 9:33:10.5420,-0.09,-0.19,0.17,0.27
2022-11-11 9:33:10.5420,-0.03,-0.15,0.16,0.22
2022-11-11 9:33:10.5630,0.02,-0.06,0.15,0.16
2022-11-11 9:33:10.5640,0.03,0.04,0.15,0.15
2022-11-11 9:33:10.5800,0.03,0.09,0.13,0.16
2022-11-11 9:33:10.5800,0.01,0.11,0.04,0.11
2022-11-11 9:33:10.5950,0.02,0.12,-0.03,0.12
2022-11-11 9:33:10.5960,-0.02,0.15,-0.05,0.15
2022-11-11 9:33:10.6120,-0.05,0.19,-0.05,0.2
2022-11-11 9:33:10.6130,-0.05,0.12,-0.12,0.17
2022-11-11 9:33:10.6430,-0.06,-0.03,-0.15,0.16
2022-11-11 9:33:10.6440,-0.05,-0.15,-0.08,0.17
2022-11-11 9:33:10.6640,0.03,-0.2,-0.04,0.2
2022-11-11 9:33:10.6650,0.12,-0.2,-0.03,0.23
2022-11-11 9:33:10.6790,0.17,-0.15,-0.03,0.22
2022-11-11 9:33:10.6800,0.15,-0.07,-0.07,0.17
2022-11-11 9:33:10.6950,0.13,0.05,-0.09,0.16
2022-11-11 9:33:10.6960,0.14,0.14,-0.07,0.21
2022-11-11 9:33:10.7120,0.08,0.16,-0.09,0.2
2022-11-11 9:33:10.7130,0.01,0.13,-0.11,0.17
2022-11-11 9:33:10.7430,-0.02,0.1,-0.11,0.15
2022-11-11 9:33:10.7440,-0.07,0.12,-0.03,0.14
2022-11-11 9:33:10.7640,-0.16,0.14,-0.01,0.21
2022-11-11 9:33:10.7650,-0.27,0.12,0.11,0.31
2022-11-11 9:33:10.7790,-0.32,0.09,0.2,0.38
2022-11-11 9:33:10.7800,-0.29,0.07,0.22,0.37
2022-11-11 9:33:10.7950,-0.11,0.04,0.22,0.24
2022-11-11 9:33:10.7960,0.0,0.0,0.15,0.15
2022-11-11 9:33:10.8120,0.05,-0.02,0.07,0.08
2022-11-11 9:33:10.8130,0.09,0.0,0.04,0.09
2022-11-11 9:33:10.8430,0.12,0.03,-0.01,0.12
2022-11-11 9:33:10.8440,0.15,-0.01,-0.1,0.18
2022-11-11 9:33:10.8640,0.17,-0.08,-0.17,0.25
2022-11-11 9:33:10.8640,0.18,-0.16,-0.17,0.29
2022-11-11 9:33:10.8790,0.14,-0.2,-0.14,0.28
2022-11-11 9:33:10.8800,0.12,-0.2,-0.08,0.24
2022-11-11 9:33:10.8950,0.03,-0.22,-0.02,0.22
2022-11-11 9:33:10.8960,0.02,-0.2,0.08,0.21
2022-11-11 9:33:10.9120,-0.01,-0.15,0.12,0.19
2022-11-11 9:33:10.9130,-0.04,-0.09,0.18,0.2
2022-11-11 9:33:10.9430,-0.07,-0.01,0.25,0.25
2022-11-11 9:33:10.9440,-0.11,0.06,0.25,0.27
2022-11-11 9:33:10.9640,-0.12,0.1,0.18,0.23
2022-11-11 9:33:10.9640,-0.1,0.11,0.06,0.16
2022-11-11 9:33:10.9790,-0.07,0.08,-0.08,0.13
2022-11-11 9:33:10.9800,-0.03,0.02,-0.24,0.24
2022-11-11 9:33:10.9950,-0.05,-0.04,-0.29,0.29
2022-11-11 9:33:10.9960,-0.07,-0.05,-0.24,0.25
2022-11-11 9:33:11.0120,-0.08,0.0,-0.15,0.17
2022-11-11 9:33:11.0130,-0.13,0.06,-0.08,0.16
2022-11-11 9:33:11.0440,-0.17,0.12,0.01,0.2
2022-11-11 9:33:11.0440,-0.17,0.14,0.07,0.23
2022-11-11 9:33:11.0640,-0.13,0.1,0.07,0.17
2022-11-11 9:33:11.0650,-0.11,0.01,0.05,0.12
2022-11-11 9:33:11.0790,-0.07,-0.09,-0.05,0.12
2022-11-11 9:33:11.0800,0.02,-0.15,-0.17,0.22
2022-11-11 9:33:11.0950,0.07,-0.13,-0.23,0.27
2022-11-11 9:33:11.0960,0.08,-0.05,-0.23,0.24
2022-11-11 9:33:11.1110,0.09,0.08,-0.12,0.17
2022-11-11 9:33:11.1120,0.09,0.19,0.04,0.21
2022-11-11 9:33:11.1430,0.02,0.22,0.16,0.27
2022-11-11 9:33:11.1430,-0.03,0.2,0.19,0.27
2022-11-11 9:33:11.1620,-0.07,0.17,0.23,0.29
2022-11-11 9:33:11.1630,-0.14,0.1,0.29,0.33
2022-11-11 9:33:11.1790,-0.16,-0.01,0.36,0.39
2022-11-11 9:33:11.1800,-0.12,-0.09,0.4,0.42
2022-11-11 9:33:11.1950,-0.07,-0.16,0.45,0.48
2022-11-11 9:33:11.1960,-0.02,-0.22,0.44,0.49
2022-11-11 9:33:11.2120,0.04,-0.25,0.35,0.43
2022-11-11 9:33:11.2130,0.09,-0.28,0.22,0.36
2022-11-11 9:33:11.2440,0.15,-0.31,0.05,0.34
2022-11-11 9:33:11.2440,0.2,-0.31,-0.1,0.38
2022-11-11 9:33:11.2640,0.22,-0.28,-0.21,0.41
2022-11-11 9:33:11.2650,0.26,-0.23,-0.34,0.48
2022-11-11 9:33:11.2790,0.29,-0.2,-0.43,0.55
2022-11-11 9:33:11.2800,0.28,-0.18,-0.44,0.55
2022-11-11 9:33:11.2950,0.25,-0.17,-0.37,0.47
2022-11-11 9:33:11.2960,0.21,-0.13,-0.27,0.36
2022-11-11 9:33:11.3120,0.15,-0.1,-0.18,0.25
2022-11-11 9:33:11.3130,0.09,-0.04,-0.11,0.14
2022-11-11 9:33:11.3430,0.07,0.06,-0.03,0.09
2022-11-11 9:33:11.3440,0.02,0.15,-0.01,0.15
2022-11-11 9:33:11.3640,0.01,0.19,0.0,0.19
2022-11-11 9:33:11.3640,-0.01,0.18,0.03,0.18
2022-11-11 9:33:11.3790,-0.03,0.14,0.08,0.16
2022-11-11 9:33:11.3800,-0.06,0.11,0.14,0.18
2022-11-11 9:33:11.3950,-0.06,0.05,0.15,0.16
2022-11-11 9:33:11.3960,-0.09,0.0,0.12,0.15
2022-11-11 9:33:11.4120,-0.12,-0.05,0.12,0.17
2022-11-11 9:33:11.4130,-0.13,-0.03,0.13,0.18
2022-11-11 9:33:11.4430,-0.17,-0.02,0.11,0.2
2022-11-11 9:33:11.4440,-0.18,0.0,0.13,0.22
2022-11-11 9:33:11.4630,-0.21,0.04,0.15,0.26
2022-11-11 9:33:11.4640,-0.24,0.06,0.09,0.26
2022-11-11 9:33:11.4790,-0.25,0.08,0.03,0.26
2022-11-11 9:33:11.4800,-0.23,0.12,-0.01,0.25
2022-11-11 9:33:11.4950,-0.17,0.13,-0.08,0.22
2022-11-11 9:33:11.4960,-0.12,0.11,-0.13,0.2
2022-11-11 9:33:11.5120,-0.08,0.07,-0.11,0.15
2022-11-11 9:33:11.5130,-0.04,0.06,-0.04,0.08
2022-11-11 9:33:11.5440,-0.01,0.07,0.02,0.07
2022-11-11 9:33:11.5440,0.0,0.1,0.02,0.1
2022-11-11 9:33:11.5640,0.01,0.08,-0.01,0.08
2022-11-11 9:33:11.5640,0.04,0.04,-0.06,0.08
2022-11-11 9:33:11.5790,0.06,-0.01,-0.08,0.1
2022-11-11 9:33:11.5800,0.05,-0.03,-0.04,0.07
2022-11-11 9:33:11.5950,0.03,-0.02,0.04,0.05
2022-11-11 9:33:11.5960,0.0,0.04,0.09,0.09
2022-11-11 9:33:11.6120,0.0,0.09,0.09,0.12
2022-11-11 9:33:11.6120,0.03,0.09,0.02,0.09
2022-11-11 9:33:11.6420,0.04,0.05,-0.04,0.07
2022-11-11 9:33:11.6430,0.01,0.03,-0.11,0.11
2022-11-11 9:33:11.6640,-0.01,0.0,-0.16,0.16
2022-11-11 9:33:11.6650,0.01,-0.04,-0.17,0.17
2022-11-11 9:33:11.6790,0.03,-0.08,-0.1,0.13
2022-11-11 9:33:11.6800,0.02,-0.1,-0.05,0.11
2022-11-11 9:33:11.6950,0.0,-0.15,-0.04,0.15
2022-11-11 9:33:11.6960,-0.02,-0.26,0.0,0.26
2022-11-11 9:33:11.7120,-0.02,-0.38,0.02,0.38
2022-11-11 9:33:11.7130,-0.07,-0.36,0.0,0.36
2022-11-11 9:33:11.7430,-0.04,-0.25,-0.02,0.25
2022-11-11 9:33:11.7430,0.06,-0.1,-0.06,0.13
2022-11-11 9:33:11.7640,0.05,0.01,-0.07,0.08
2022-11-11 9:33:11.7650,0.02,0.07,-0.11,0.13
2022-11-11 9:33:11.7790,0.04,0.1,-0.21,0.23
2022-11-11 9:33:11.7800,0.04,0.22,-0.21,0.3
2022-11-11 9:33:11.7950,-0.01,0.31,-0.03,0.31
2022-11-11 9:33:11.7960,-0.09,0.33,0.11,0.35
2022-11-11 9:33:11.8120,-0.11,0.29,0.17,0.35
2022-11-11 9:33:11.8130,-0.11,0.18,0.11,0.23
2022-11-11 9:33:11.8420,-0.14,0.16,0.09,0.23
2022-11-11 9:33:11.8430,-0.19,0.14,0.02,0.23
2022-11-11 9:33:11.8620,-0.19,0.1,-0.1,0.23
2022-11-11 9:33:11.8630,-0.12,0.11,-0.06,0.17
2022-11-11 9:33:11.8770,-0.1,0.13,0.02,0.16
2022-11-11 9:33:11.8780,-0.11,0.12,0.06,0.17
2022-11-11 9:33:11.8940,-0.07,0.13,0.05,0.15
2022-11-11 9:33:11.8940,-0.04,0.13,0.0,0.13
2022-11-11 9:33:11.9120,-0.06,0.14,-0.04,0.15
2022-11-11 9:33:11.9130,-0.09,0.16,-0.04,0.18
2022-11-11 9:33:11.9420,-0.09,0.23,0.05,0.25
2022-11-11 9:33:11.9430,-0.14,0.25,0.1,0.3
2022-11-11 9:33:11.9630,-0.19,0.2,0.08,0.28
2022-11-11 9:33:11.9640,-0.18,0.13,0.0,0.22
2022-11-11 9:33:11.9790,-0.17,0.02,-0.06,0.18
2022-11-11 9:33:11.9800,-0.15,-0.05,-0.12,0.19
2022-11-11 9:33:11.9950,-0.09,-0.05,-0.17,0.19
2022-11-11 9:33:11.9960,0.06,-0.03,-0.17,0.18
2022-11-11 9:33:12.0120,0.11,0.0,-0.19,0.21
2022-11-11 9:33:12.0120,0.07,0.01,-0.2,0.21
2022-11-11 9:33:12.0430,0.05,0.05,-0.18,0.19
2022-11-11 9:33:12.0440,0.03,0.07,-0.15,0.16
2022-11-11 9:33:12.0640,-0.03,0.07,-0.16,0.17
2022-11-11 9:33:12.0640,-0.08,0.06,-0.15,0.18
2022-11-11 9:33:12.0790,-0.13,0.04,-0.03,0.13
2022-11-11 9:33:12.0800,-0.18,0.04,0.11,0.21
2022-11-11 9:33:12.0950,-0.21,0.03,0.21,0.29
2022-11-11 9:33:12.0960,-0.19,0.0,0.26,0.32
2022-11-11 9:33:12.1110,-0.14,-0.03,0.26,0.29
2022-11-11 9:33:12.1120,-0.11,-0.01,0.2,0.22
2022-11-11 9:33:12.1420,-0.09,0.06,0.08,0.13
2022-11-11 9:33:12.1430,-0.04,0.13,0.0,0.13
2022-11-11 9:33:12.1630,-0.01,0.14,-0.09,0.16
2022-11-11 9:33:12.1640,0.04,0.05,-0.21,0.21
2022-11-11 9:33:12.1790,0.07,-0.07,-0.23,0.25
2022-11-11 9:33:12.1800,0.07,-0.14,-0.18,0.23
2022-11-11 9:33:12.1950,0.04,-0.18,-0.12,0.22
2022-11-11 9:33:12.1960,0.04,-0.18,-0.05,0.19
2022-11-11 9:33:12.2120,0.05,-0.14,-0.03,0.15
2022-11-11 9:33:12.2120,0.05,-0.09,-0.05,0.11
2022-11-11 9:33:12.2420,0.02,0.0,-0.07,0.07
2022-11-11 9:33:12.2430,-0.01,0.07,-0.11,0.13
2022-11-11 9:33:12.2610,-0.04,0.1,-0.11,0.15
2022-11-11 9:33:12.2620,-0.02,0.09,-0.02,0.09
2022-11-11 9:33:12.2790,-0.02,0.06,0.06,0.08
2022-11-11 9:33:12.2800,0.05,-0.04,0.14,0.15
2022-11-11 9:33:12.2950,0.15,-0.16,0.23,0.31
2022-11-11 9:33:12.2960,0.18,-0.23,0.3,0.41
2022-11-11 9:33:12.3120,0.16,-0.25,0.36,0.46
2022-11-11 9:33:12.3130,0.09,-0.23,0.34,0.42
2022-11-11 9:33:12.3410,0.07,-0.21,0.17,0.27
2022-11-11 9:33:12.3420,0.07,-0.22,0.01,0.23
2022-11-11 9:33:12.3640,0.09,-0.22,-0.13,0.27
2022-11-11 9:33:12.3640,0.08,-0.13,-0.19,0.24
2022-11-11 9:33:12.3790,0.11,0.02,-0.19,0.22
2022-11-11 9:33:12.3800,0.17,0.16,-0.12,0.26
2022-11-11 9:33:12.3950,0.2,0.21,-0.09,0.3
2022-11-11 9:33:12.3960,0.21,0.17,-0.09,0.28
2022-11-11 9:33:12.4120,0.19,0.07,-0.11,0.23
2022-11-11 9:33:12.4130,0.14,-0.08,-0.13,0.2
2022-11-11 9:33:12.4420,0.08,-0.2,-0.1,0.23
2022-11-11 9:33:12.4430,0.01,-0.2,-0.08,0.21
2022-11-11 9:33:12.4640,-0.03,-0.13,-0.06,0.14
2022-11-11 9:33:12.4640,-0.02,-0.07,-0.05,0.08
2022-11-11 9:33:12.4790,0.0,-0.04,-0.02,0.04
2022-11-11 9:33:12.4800,-0.03,-0.03,0.03,0.05
2022-11-11 9:33:12.4950,-0.06,-0.03,0.08,0.1
2022-11-11 9:33:12.4960,-0.05,-0.02,0.12,0.13
2022-11-11 9:33:12.5110,-0.02,0.01,0.13,0.13
2022-11-11 9:33:12.5120,-0.03,0.03,0.14,0.14
2022-11-11 9:33:12.5420,-0.05,0.03,0.11,0.12
2022-11-11 9:33:12.5420,-0.03,0.01,0.04,0.05
2022-11-11 9:33:12.5630,-0.02,-0.07,-0.07,0.1
2022-11-11 9:33:12.5640,-0.05,-0.12,-0.1,0.16
2022-11-11 9:33:12.5790,-0.12,-0.07,-0.12,0.18
2022-11-11 9:33:12.5800,-0.19,0.0,-0.1,0.21
2022-11-11 9:33:12.5950,-0.22,0.07,-0.06,0.23
2022-11-11 9:33:12.5960,-0.23,0.13,-0.03,0.26
2022-11-11 9:33:12.6120,-0.23,0.17,0.03,0.28
2022-11-11 9:33:12.6130,-0.16,0.15,0.12,0.25
2022-11-11 9:33:12.6420,-0.14,0.19,0.12,0.26
2022-11-11 9:33:12.6430,-0.16,0.26,0.04,0.3
2022-11-11 9:33:12.6640,-0.09,0.33,0.05,0.34
2022-11-11 9:33:12.6640,-0.08,0.4,0.06,0.41
2022-11-11 9:33:12.6790,-0.14,0.34,0.05,0.37
2022-11-11 9:33:12.6800,-0.25,0.26,0.06,0.36
2022-11-11 9:33:12.6950,-0.3,0.33,0.18,0.48
2022-11-11 9:33:12.6960,-0.23,0.48,0.21,0.57
2022-11-11 9:33:12.7120,-0.17,0.59,0.29,0.67
2022-11-11 9:33:12.7130,-0.14,0.74,0.49,0.89
2022-11-11 9:33:12.7420,-0.22,0.71,0.63,0.97
2022-11-11 9:33:12.7420,-0.25,0.55,0.48,0.77
2022-11-11 9:33:12.7630,-0.25,0.36,0.15,0.46
2022-11-11 9:33:12.7640,-0.12,0.03,-0.11,0.16
2022-11-11 9:33:12.7790,-0.01,-0.32,-0.38,0.49
2022-11-11 9:33:12.7800,0.14,-0.6,-0.55,0.82
2022-11-11 9:33:12.7950,0.2,-0.86,-0.66,1.1
2022-11-11 9:33:12.7960,0.2,-0.99,-0.86,1.32
2022-11-11 9:33:12.8120,0.22,-1.0,-0.6,1.18
2022-11-11 9:33:12.8130,0.28,-1.04,-0.3,1.11
2022-11-11 9:33:12.8430,0.25,-1.07,-0.44,1.18
2022-11-11 9:33:12.8430,0.3,-0.72,-0.47,0.91
2022-11-11 9:33:12.8610,0.3,-0.38,-0.47,0.67
2022-11-11 9:33:12.8610,0.38,-0.09,-0.48,0.61
2022-11-11 9:33:12.8790,0.31,0.18,-0.55,0.65
2022-11-11 9:33:12.8800,0.24,0.44,-0.62,0.79
2022-11-11 9:33:12.8950,0.23,0.63,-0.55,0.86
2022-11-11 9:33:12.8960,0.28,0.73,-0.39,0.87
2022-11-11 9:33:12.9120,0.23,0.65,-0.12,0.69
2022-11-11 9:33:12.9130,0.13,0.4,0.12,0.43
2022-11-11 9:33:12.9430,-0.02,0.05,0.4,0.4
2022-11-11 9:33:12.9440,-0.03,-0.16,0.56,0.58
2022-11-11 9:33:12.9620,-0.05,-0.21,0.54,0.58
2022-11-11 9:33:12.9620,-0.04,-0.16,0.45,0.47
2022-11-11 9:33:12.9790,-0.03,-0.09,0.31,0.32
2022-11-11 9:33:12.9800,0.01,0.05,0.13,0.13
2022-11-11 9:33:12.9960,-0.02,0.16,-0.04,0.16
2022-11-11 9:33:12.9960,-0.08,0.22,-0.17,0.28
2022-11-11 9:33:13.0120,-0.1,0.24,-0.2,0.32
2022-11-11 9:33:13.0130,-0.02,0.19,-0.18,0.26
2022-11-11 9:33:13.0430,-0.01,0.04,-0.06,0.07
2022-11-11 9:33:13.0440,0.02,-0.09,0.16,0.18
2022-11-11 9:33:13.0640,0.0,-0.2,0.35,0.4
2022-11-11 9:33:13.0640,-0.03,-0.27,0.42,0.5
2022-11-11 9:33:13.0790,-0.07,-0.27,0.32,0.42
2022-11-11 9:33:13.0800,-0.05,-0.14,0.2,0.24
2022-11-11 9:33:13.0950,-0.01,-0.03,0.09,0.09
2022-11-11 9:33:13.0960,-0.01,0.0,-0.05,0.05
2022-11-11 9:33:13.1120,-0.01,0.04,-0.13,0.13
2022-11-11 9:33:13.1120,-0.01,0.13,-0.19,0.23
2022-11-11 9:33:13.1430,-0.01,0.21,-0.19,0.28
2022-11-11 9:33:13.1440,-0.02,0.17,-0.07,0.18
2022-11-11 9:33:13.1630,-0.06,0.06,0.06,0.1
2022-11-11 9:33:13.1640,-0.12,-0.03,0.09,0.15
2022-11-11 9:33:13.1790,-0.11,-0.15,0.06,0.19
2022-11-11 9:33:13.1800,-0.08,-0.2,0.02,0.21
2022-11-11 9:33:13.1950,-0.07,-0.17,-0.04,0.18
2022-11-11 9:33:13.1960,-0.05,-0.09,-0.08,0.13
2022-11-11 9:33:13.2120,-0.01,-0.04,-0.08,0.09
2022-11-11 9:33:13.2120,0.04,0.01,-0.05,0.06
2022-11-11 9:33:13.2420,0.09,0.06,-0.01,0.1
2022-11-11 9:33:13.2430,0.09,0.04,-0.01,0.09
2022-11-11 9:33:13.2630,0.05,-0.02,-0.02,0.05
2022-11-11 9:33:13.2640,-0.03,-0.13,-0.04,0.13
2022-11-11 9:33:13.2790,-0.07,-0.18,-0.05,0.19
2022-11-11 9:33:13.2800,-0.07,-0.2,-0.04,0.21
2022-11-11 9:33:13.2950,-0.04,-0.18,-0.04,0.18
2022-11-11 9:33:13.2960,0.03,-0.14,-0.03,0.14
2022-11-11 9:33:13.3110,0.08,-0.09,-0.01,0.12
2022-11-11 9:33:13.3120,0.06,-0.05,-0.01,0.07
2022-11-11 9:33:13.3420,0.02,-0.02,0.04,0.04
2022-11-11 9:33:13.3430,-0.01,0.02,0.1,0.1
2022-11-11 9:33:13.3630,-0.01,0.06,0.12,0.13
2022-11-11 9:33:13.3640,-0.01,0.05,0.16,0.16
2022-11-11 9:33:13.3790,0.0,0.03,0.15,0.15
2022-11-11 9:33:13.3800,0.02,0.01,0.13,0.13
2022-11-11 9:33:13.3950,0.0,0.02,0.06,0.06
2022-11-11 9:33:13.3960,-0.02,0.03,0.03,0.04
2022-11-11 9:33:13.4120,-0.05,0.03,0.01,0.05
2022-11-11 9:33:13.4130,-0.04,0.03,0.0,0.05
2022-11-11 9:33:13.4430,0.0,0.02,-0.02,0.02
2022-11-11 9:33:13.4440,0.03,-0.02,-0.03,0.04
2022-11-11 9:33:13.4640,0.05,-0.05,-0.07,0.09
2022-11-11 9:33:13.4640,0.08,-0.05,-0.09,0.13
2022-11-11 9:33:13.4790,0.08,-0.04,-0.1,0.13
2022-11-11 9:33:13.4800,0.04,-0.03,-0.08,0.09
2022-11-11 9:33:13.4950,-0.02,-0.04,-0.05,0.06
2022-11-11 9:33:13.4960,-0.05,-0.03,0.02,0.06
2022-11-11 9:33:13.5120,-0.02,-0.02,0.08,0.08
2022-11-11 9:33:13.5120,0.02,-0.03,0.06,0.06
2022-11-11 9:33:13.5420,0.01,-0.01,0.03,0.03
2022-11-11 9:33:13.5430,-0.01,0.02,0.04,0.04
2022-11-11 9:33:13.5630,-0.05,0.04,0.08,0.1
2022-11-11 9:33:13.5640,-0.1,0.04,0.09,0.14
2022-11-11 9:33:13.5790,-0.08,0.02,0.08,0.11
2022-11-11 9:33:13.5800,-0.03,-0.04,-0.04,0.06
2022-11-11 9:33:13.5950,0.05,-0.09,-0.7,0.7
2022-11-11 9:33:13.5960,0.03,0.01,-0.11,0.11
2022-11-11 9:33:13.6120,-0.17,0.1,0.41,0.45
2022-11-11 9:33:13.6130,-0.38,0.15,0.54,0.67
2022-11-11 9:33:13.6430,-0.34,0.11,0.47,0.59
2022-11-11 9:33:13.6440,-0.17,0.11,0.34,0.39
2022-11-11 9:33:13.6640,-0.05,0.1,0.15,0.18
2022-11-11 9:33:13.6640,-0.04,0.02,0.01,0.04
2022-11-11 9:33:13.6770,-0.05,-0.02,-0.01,0.05
2022-11-11 9:33:13.6780,-0.02,-0.05,0.01,0.05
2022-11-11 9:33:13.6940,0.06,-0.05,-0.05,0.09
2022-11-11 9:33:13.6950,0.13,-0.02,-0.15,0.19
2022-11-11 9:33:13.7120,0.18,-0.01,-0.22,0.28
2022-11-11 9:33:13.7130,0.15,0.0,-0.22,0.26
2022-11-11 9:33:13.7430,0.04,0.02,-0.24,0.24
2022-11-11 9:33:13.7440,-0.04,0.06,-0.28,0.28
2022-11-11 9:33:13.7620,-0.03,0.13,-0.27,0.3
2022-11-11 9:33:13.7630,0.0,0.2,-0.18,0.26
2022-11-11 9:33:13.7790,0.02,0.21,-0.08,0.22
2022-11-11 9:33:13.7800,0.03,0.19,0.01,0.19
2022-11-11 9:33:13.7950,0.02,0.13,0.12,0.17
2022-11-11 9:33:13.7960,-0.03,0.04,0.2,0.2
2022-11-11 9:33:13.8120,-0.1,0.03,0.15,0.18
2022-11-11 9:33:13.8130,-0.1,0.03,0.09,0.13
2022-11-11 9:33:13.8420,-0.07,0.02,0.05,0.08
2022-11-11 9:33:13.8430,-0.05,0.03,0.04,0.07
2022-11-11 9:33:13.8630,-0.04,0.03,0.02,0.05
2022-11-11 9:33:13.8640,-0.03,0.0,0.0,0.03
2022-11-11 9:33:13.8820,-0.04,-0.04,0.0,0.05
2022-11-11 9:33:13.8830,-0.03,-0.08,0.04,0.09
2022-11-11 9:33:13.8840,-0.04,-0.1,0.05,0.11
2022-11-11 9:33:13.8840,-0.05,-0.13,0.06,0.15
2022-11-11 9:33:13.8850,-0.03,-0.14,0.03,0.14
2022-11-11 9:33:13.8860,-0.02,-0.09,0.02,0.09
2022-11-11 9:33:13.9110,-0.01,-0.04,0.01,0.04
2022-11-11 9:33:13.9120,0.0,-0.02,-0.05,0.05
2022-11-11 9:33:13.9290,-0.01,-0.03,-0.15,0.15
2022-11-11 9:33:13.9290,0.02,-0.05,-0.22,0.22
2022-11-11 9:33:13.9460,0.03,-0.09,-0.27,0.28
2022-11-11 9:33:13.9470,0.03,-0.13,-0.3,0.32
2022-11-11 9:33:13.9620,0.06,-0.14,-0.26,0.3
2022-11-11 9:33:13.9630,0.08,-0.12,-0.21,0.25
2022-11-11 9:33:13.9780,0.08,-0.11,-0.19,0.23
2022-11-11 9:33:13.9790,0.06,-0.08,-0.17,0.19
2022-11-11 9:33:14.0090,0.07,-0.03,-0.14,0.15
2022-11-11 9:33:14.0090,0.06,0.05,-0.12,0.14
2022-11-11 9:33:14.0300,0.06,0.09,-0.1,0.14
2022-11-11 9:33:14.0300,0.08,0.06,-0.02,0.1
2022-11-11 9:33:14.0460,0.1,0.03,0.1,0.14
2022-11-11 9:33:14.0470,0.1,0.01,0.21,0.23
2022-11-11 9:33:14.0610,0.06,0.02,0.26,0.26
2022-11-11 9:33:14.0620,0.02,0.03,0.26,0.26
2022-11-11 9:33:14.0780,-0.01,0.02,0.15,0.15
2022-11-11 9:33:14.0790,-0.01,0.0,0.03,0.03
2022-11-11 9:33:14.1080,0.03,0.0,-0.03,0.04
2022-11-11 9:33:14.1090,0.05,-0.01,-0.04,0.06
2022-11-11 9:33:14.1300,0.05,-0.03,-0.04,0.07
2022-11-11 9:33:14.1310,0.03,-0.05,-0.06,0.08
2022-11-11 9:33:14.1450,0.01,-0.07,-0.04,0.08
2022-11-11 9:33:14.1460,0.02,-0.06,-0.05,0.08
2022-11-11 9:33:14.1620,0.04,-0.02,-0.11,0.11
2022-11-11 9:33:14.1620,0.05,0.02,-0.15,0.15
2022-11-11 9:33:14.1780,0.0,0.1,-0.15,0.18
2022-11-11 9:33:14.1790,-0.04,0.17,-0.13,0.21
2022-11-11 9:33:14.2070,-0.1,0.18,-0.05,0.21
2022-11-11 9:33:14.2080,-0.16,0.12,0.08,0.21
2022-11-11 9:33:14.2100,-0.24,0.09,0.24,0.35
2022-11-11 9:33:14.2290,-0.25,0.21,0.36,0.48
2022-11-11 9:33:14.2290,-0.21,0.25,0.4,0.51
2022-11-11 9:33:14.2450,-0.14,0.15,0.38,0.43
2022-11-11 9:33:14.2460,-0.08,-0.01,0.27,0.28
2022-11-11 9:33:14.2610,-0.04,-0.15,0.14,0.2
2022-11-11 9:33:14.2620,-0.01,-0.2,0.04,0.2
2022-11-11 9:33:14.2780,0.02,-0.18,-0.08,0.19
2022-11-11 9:33:14.3080,0.08,-0.17,-0.16,0.24
2022-11-11 9:33:14.3090,0.09,-0.16,-0.21,0.27
2022-11-11 9:33:14.3300,0.07,-0.14,-0.23,0.27
2022-11-11 9:33:14.3310,0.03,-0.15,-0.25,0.29
2022-11-11 9:33:14.3460,0.0,-0.15,-0.22,0.26
2022-11-11 9:33:14.3470,-0.01,-0.19,-0.11,0.21
2022-11-11 9:33:14.3610,-0.01,-0.09,-0.01,0.09
2022-11-11 9:33:14.3620,-0.01,0.11,0.04,0.11
2022-11-11 9:33:14.3780,0.0,0.23,0.08,0.24
2022-11-11 9:33:14.3790,-0.01,0.25,0.09,0.26
2022-11-11 9:33:14.4070,-0.02,0.2,0.09,0.22
2022-11-11 9:33:14.4080,0.0,0.13,0.06,0.14
2022-11-11 9:33:14.4100,-0.01,0.06,-0.03,0.06
2022-11-11 9:33:14.4290,0.0,0.04,-0.12,0.12
2022-11-11 9:33:14.4300,0.01,0.06,-0.1,0.11
2022-11-11 9:33:14.4450,-0.06,0.06,-0.05,0.09
2022-11-11 9:33:14.4460,-0.11,0.04,0.02,0.11
2022-11-11 9:33:14.4620,-0.14,0.04,0.08,0.16
2022-11-11 9:33:14.4630,-0.12,0.04,0.17,0.21
2022-11-11 9:33:14.4780,-0.08,0.06,0.2,0.22
2022-11-11 9:33:14.5070,-0.02,0.06,0.18,0.19
2022-11-11 9:33:14.5080,0.01,0.06,0.16,0.17
2022-11-11 9:33:14.5100,0.04,0.02,0.08,0.09
2022-11-11 9:33:14.5110,0.07,-0.04,-0.04,0.09
2022-11-11 9:33:14.5290,0.08,-0.09,-0.14,0.18
2022-11-11 9:33:14.5300,0.09,-0.13,-0.19,0.24
2022-11-11 9:33:14.5450,0.1,-0.15,-0.2,0.26
2022-11-11 9:33:14.5460,0.09,-0.16,-0.15,0.23
2022-11-11 9:33:14.5620,0.08,-0.12,-0.06,0.15
2022-11-11 9:33:14.5620,0.08,-0.06,0.02,0.1
2022-11-11 9:33:14.5890,0.09,-0.03,0.03,0.09
2022-11-11 9:33:14.5900,0.04,-0.04,0.0,0.05
2022-11-11 9:33:14.5930,0.04,-0.05,-0.03,0.07
2022-11-11 9:33:14.5940,0.06,-0.05,-0.05,0.09
2022-11-11 9:33:14.6120,0.04,-0.06,-0.08,0.1
2022-11-11 9:33:14.6130,0.0,-0.07,-0.05,0.08
2022-11-11 9:33:14.6280,0.0,-0.07,-0.01,0.07
2022-11-11 9:33:14.6290,0.01,-0.09,-0.2,0.21
2022-11-11 9:33:14.6450,0.0,-0.04,-0.4,0.4
2022-11-11 9:33:14.6450,-0.04,0.01,-0.09,0.09
2022-11-11 9:33:14.6720,-0.12,0.07,0.1,0.17
2022-11-11 9:33:14.6730,-0.16,0.12,0.3,0.36
2022-11-11 9:33:14.6760,-0.17,0.12,0.37,0.42
2022-11-11 9:33:14.6770,-0.2,0.09,0.35,0.41
2022-11-11 9:33:14.6960,-0.19,0.09,0.33,0.39
2022-11-11 9:33:14.6960,-0.16,0.11,0.19,0.27
2022-11-11 9:33:14.7110,-0.09,0.13,0.09,0.18
2022-11-11 9:33:14.7120,0.01,0.11,0.06,0.12
2022-11-11 9:33:14.7280,0.11,0.05,0.03,0.12
2022-11-11 9:33:14.7290,0.15,-0.04,-0.06,0.16
2022-11-11 9:33:14.7550,0.15,-0.09,-0.1,0.2
2022-11-11 9:33:14.7560,0.13,-0.1,-0.11,0.19
2022-11-11 9:33:14.7600,0.11,-0.03,-0.14,0.18
2022-11-11 9:33:14.7600,0.1,0.03,-0.14,0.17
2022-11-11 9:33:14.7790,0.09,0.1,-0.12,0.18
2022-11-11 9:33:14.7800,0.07,0.15,-0.1,0.19
2022-11-11 9:33:14.7950,0.06,0.15,-0.08,0.18
2022-11-11 9:33:14.7960,0.05,0.11,-0.08,0.14
2022-11-11 9:33:14.8110,0.01,0.06,-0.12,0.13
2022-11-11 9:33:14.8120,-0.02,-0.02,-0.18,0.18
2022-11-11 9:33:14.8380,-0.05,-0.05,-0.23,0.24
2022-11-11 9:33:14.8390,-0.05,-0.04,-0.22,0.22
2022-11-11 9:33:14.8460,-0.07,-0.03,-0.17,0.18
2022-11-11 9:33:14.8470,-0.08,-0.03,-0.08,0.11
2022-11-11 9:33:14.8620,-0.07,-0.04,0.01,0.08
2022-11-11 9:33:14.8630,-0.04,-0.04,0.09,0.1
2022-11-11 9:33:14.8780,0.02,-0.06,0.14,0.15
2022-11-11 9:33:14.8790,0.03,-0.09,0.16,0.18
2022-11-11 9:33:14.8950,0.0,-0.08,0.15,0.17
2022-11-11 9:33:14.8960,0.01,-0.07,0.07,0.09
2022-11-11 9:33:14.9220,0.02,-0.04,-0.03,0.05
2022-11-11 9:33:14.9230,0.04,-0.02,-0.12,0.12
2022-11-11 9:33:14.9290,0.03,0.0,-0.13,0.13
2022-11-11 9:33:14.9300,0.01,0.0,-0.11,0.11
2022-11-11 9:33:14.9460,-0.02,0.04,-0.08,0.09
2022-11-11 9:33:14.9460,-0.05,0.12,0.01,0.13
2022-11-11 9:33:14.9610,-0.06,0.17,0.12,0.21
2022-11-11 9:33:14.9620,-0.08,0.21,0.21,0.3
2022-11-11 9:33:14.9780,-0.09,0.17,0.2,0.27
2022-11-11 9:33:14.9790,-0.06,0.13,0.15,0.2
2022-11-11 9:33:15.0050,-0.01,0.06,0.06,0.08
2022-11-11 9:33:15.0060,0.04,-0.01,-0.01,0.04
2022-11-11 9:33:15.0110,0.06,-0.03,-0.08,0.1
2022-11-11 9:33:15.0120,0.04,-0.02,-0.16,0.16
2022-11-11 9:33:15.0290,0.02,0.01,-0.18,0.18
2022-11-11 9:33:15.0300,0.0,0.03,-0.14,0.14
2022-11-11 9:33:15.0450,-0.02,0.01,-0.12,0.12
2022-11-11 9:33:15.0460,-0.05,-0.04,-0.1,0.11
2022-11-11 9:33:15.0620,-0.06,-0.09,-0.05,0.11
2022-11-11 9:33:15.0620,-0.09,-0.05,-0.01,0.1
2022-11-11 9:33:15.0890,-0.09,0.02,0.02,0.09
2022-11-11 9:33:15.0890,-0.05,0.09,0.03,0.1
2022-11-11 9:33:15.0930,-0.01,0.12,0.05,0.13
2022-11-11 9:33:15.0940,0.0,0.09,0.06,0.1
2022-11-11 9:33:15.1120,0.03,0.03,0.09,0.09
2022-11-11 9:33:15.1130,0.01,0.03,0.12,0.12
2022-11-11 9:33:15.1280,-0.05,0.04,0.07,0.09
2022-11-11 9:33:15.1290,-0.04,0.05,0.04,0.07
2022-11-11 9:33:15.1450,-0.02,0.04,0.03,0.05
2022-11-11 9:33:15.1450,-0.03,0.0,-0.04,0.05
2022-11-11 9:33:15.1720,-0.01,-0.03,-0.07,0.07
2022-11-11 9:33:15.1720,0.03,-0.05,-0.06,0.08
2022-11-11 9:33:15.1790,0.02,-0.04,-0.04,0.06
2022-11-11 9:33:15.1790,-0.01,-0.02,-0.03,0.03
2022-11-11 9:33:15.1960,0.0,-0.01,-0.01,0.01
2022-11-11 9:33:15.1960,-0.01,0.02,0.04,0.04
2022-11-11 9:33:15.2110,-0.04,0.03,0.07,0.08
2022-11-11 9:33:15.2120,-0.06,0.05,0.02,0.08
2022-11-11 9:33:15.2280,-0.08,0.06,-0.01,0.1
2022-11-11 9:33:15.2290,-0.08,0.04,-0.01,0.09
2022-11-11 9:33:15.2560,-0.09,0.05,0.01,0.1
2022-11-11 9:33:15.2560,-0.08,0.04,-0.02,0.09
2022-11-11 9:33:15.2630,-0.05,0.06,-0.02,0.08
2022-11-11 9:33:15.2630,-0.05,0.09,-0.03,0.1
2022-11-11 9:33:15.2790,-0.07,0.13,0.01,0.14
2022-11-11 9:33:15.2790,-0.08,0.15,0.07,0.18
2022-11-11 9:33:15.2950,-0.08,0.06,0.07,0.12
2022-11-11 9:33:15.2950,-0.08,-0.06,0.07,0.12
2022-11-11 9:33:15.3110,-0.08,-0.14,0.05,0.16
2022-11-11 9:33:15.3120,-0.06,-0.16,0.07,0.18
2022-11-11 9:33:15.3380,-0.05,-0.14,0.11,0.18
2022-11-11 9:33:15.3390,-0.04,-0.07,0.02,0.08
2022-11-11 9:33:15.3450,0.03,0.03,-0.09,0.09
2022-11-11 9:33:15.3450,0.11,0.08,-0.16,0.21
2022-11-11 9:33:15.3600,0.13,0.04,-0.21,0.25
2022-11-11 9:33:15.3610,0.17,-0.06,-0.23,0.29
2022-11-11 9:33:15.3780,0.23,-0.17,-0.23,0.36
2022-11-11 9:33:15.3790,0.23,-0.29,-0.23,0.43
2022-11-11 9:33:15.3950,0.19,-0.36,-0.24,0.47
2022-11-11 9:33:15.3960,0.2,-0.38,-0.24,0.49
2022-11-11 9:33:15.4220,0.23,-0.31,-0.15,0.41
2022-11-11 9:33:15.4230,0.22,-0.22,-0.06,0.31
2022-11-11 9:33:15.4290,0.19,-0.19,0.04,0.27
2022-11-11 9:33:15.4300,0.11,-0.12,0.14,0.21
2022-11-11 9:33:15.4460,-0.02,-0.03,0.23,0.23
2022-11-11 9:33:15.4460,-0.1,0.08,0.28,0.3
2022-11-11 9:33:15.4620,-0.15,0.16,0.27,0.34
2022-11-11 9:33:15.4620,-0.15,0.16,0.19,0.29
2022-11-11 9:33:15.4780,-0.12,0.13,0.1,0.2
2022-11-11 9:33:15.4790,-0.1,0.1,0.08,0.16
2022-11-11 9:33:15.5050,-0.08,0.06,0.02,0.1
2022-11-11 9:33:15.5060,-0.08,0.05,-0.04,0.1
2022-11-11 9:33:15.5120,-0.06,0.03,-0.12,0.13
2022-11-11 9:33:15.5130,-0.04,0.0,-0.21,0.21
2022-11-11 9:33:15.5290,0.03,-0.07,-0.27,0.28
2022-11-11 9:33:15.5290,0.05,-0.14,-0.23,0.27
2022-11-11 9:33:15.5450,0.04,-0.13,-0.12,0.18
2022-11-11 9:33:15.5460,0.04,-0.12,0.05,0.13
2022-11-11 9:33:15.5620,0.06,-0.17,0.19,0.26
2022-11-11 9:33:15.5620,0.04,-0.2,0.28,0.34
2022-11-11 9:33:15.5890,0.04,-0.22,0.37,0.43
2022-11-11 9:33:15.5900,0.0,-0.11,0.49,0.5
2022-11-11 9:33:15.5940,0.05,0.09,0.83,0.83
2022-11-11 9:33:15.5940,0.05,0.18,0.36,0.4
2022-11-11 9:33:15.6120,0.07,0.2,0.09,0.23
2022-11-11 9:33:15.6130,0.04,0.15,-0.14,0.2
2022-11-11 9:33:15.6280,-0.01,0.07,-0.35,0.35
2022-11-11 9:33:15.6290,0.05,-0.05,-0.47,0.47
2022-11-11 9:33:15.6450,0.07,-0.18,-0.5,0.53
2022-11-11 9:33:15.6460,0.08,-0.24,-0.54,0.59
2022-11-11 9:33:15.6720,0.12,-0.24,-0.44,0.51
2022-11-11 9:33:15.6720,0.06,-0.18,-0.43,0.47
2022-11-11 9:33:15.6770,0.03,-0.07,-0.29,0.29
2022-11-11 9:33:15.6780,0.03,0.03,-0.08,0.09
2022-11-11 9:33:15.6960,-0.01,0.12,0.01,0.12
2022-11-11 9:33:15.6960,-0.03,0.23,0.05,0.23
2022-11-11 9:33:15.7110,-0.01,0.28,0.14,0.31
2022-11-11 9:33:15.7120,-0.09,0.28,0.2,0.35
2022-11-11 9:33:15.7280,-0.18,0.29,0.3,0.45
2022-11-11 9:33:15.7290,-0.23,0.25,0.36,0.49
2022-11-11 9:33:15.7560,-0.24,0.15,0.25,0.37
2022-11-11 9:33:15.7570,-0.18,0.06,0.08,0.2
2022-11-11 9:33:15.7600,-0.1,0.05,-0.01,0.11
2022-11-11 9:33:15.7790,0.0,0.05,-0.03,0.05
2022-11-11 9:33:15.7790,0.07,0.02,-0.03,0.07
2022-11-11 9:33:15.7950,0.05,-0.06,-0.01,0.07
2022-11-11 9:33:15.7960,0.0,-0.1,0.03,0.1
2022-11-11 9:33:15.8110,0.0,-0.11,0.1,0.14
2022-11-11 9:33:15.8120,-0.04,-0.12,0.14,0.18
2022-11-11 9:33:15.8280,-0.08,-0.11,0.17,0.21
2022-11-11 9:33:15.8570,-0.09,-0.09,0.17,0.21
2022-11-11 9:33:15.8580,-0.11,-0.04,0.09,0.14
2022-11-11 9:33:15.8800,-0.12,0.09,-0.02,0.15
2022-11-11 9:33:15.8810,-0.09,0.2,-0.15,0.26
2022-11-11 9:33:15.8960,-0.02,0.28,-0.17,0.32
2022-11-11 9:33:15.8960,0.06,0.28,-0.21,0.35
2022-11-11 9:33:15.9120,0.09,0.2,-0.2,0.29
2022-11-11 9:33:15.9120,0.08,0.08,-0.12,0.16
2022-11-11 9:33:15.9280,0.04,-0.04,-0.02,0.06
2022-11-11 9:33:15.9290,-0.02,-0.09,0.06,0.11
2022-11-11 9:33:15.9600,-0.06,-0.07,0.04,0.1
2022-11-11 9:33:15.9600,-0.09,-0.03,0.02,0.09
2022-11-11 9:33:15.9800,-0.09,-0.01,-0.01,0.09
2022-11-11 9:33:15.9810,-0.07,0.02,0.0,0.07
2022-11-11 9:33:15.9960,0.0,0.03,0.05,0.05
2022-11-11 9:33:15.9960,0.01,0.04,0.12,0.12
2022-11-11 9:33:16.0110,0.01,0.01,0.17,0.17
2022-11-11 9:33:16.0120,0.0,-0.04,0.16,0.16
2022-11-11 9:33:16.0280,0.03,-0.06,0.13,0.14
2022-11-11 9:33:16.0290,0.04,-0.08,0.05,0.1
2022-11-11 9:33:16.0590,0.05,-0.1,-0.03,0.11
2022-11-11 9:33:16.0600,0.06,-0.1,-0.07,0.13
2022-11-11 9:33:16.0800,0.05,-0.07,-0.08,0.11
2022-11-11 9:33:16.0810,0.01,-0.03,-0.09,0.09
2022-11-11 9:33:16.0950,0.0,-0.03,-0.05,0.05
2022-11-11 9:33:16.0960,0.0,-0.03,-0.02,0.03
2022-11-11 9:33:16.1110,-0.03,-0.05,0.01,0.05
2022-11-11 9:33:16.1120,-0.04,-0.03,0.05,0.07
2022-11-11 9:33:16.1280,-0.03,0.0,0.06,0.06
2022-11-11 9:33:16.1290,-0.01,-0.01,0.01,0.01
2022-11-11 9:33:16.1580,0.0,-0.01,-0.08,0.08
2022-11-11 9:33:16.1590,0.01,-0.03,-0.14,0.14
2022-11-11 9:33:16.1800,0.0,-0.05,-0.11,0.12
2022-11-11 9:33:16.1800,0.0,-0.09,-0.12,0.15
2022-11-11 9:33:16.1960,0.03,-0.08,-0.11,0.13
2022-11-11 9:33:16.1970,0.04,-0.07,-0.04,0.09
2022-11-11 9:33:16.2110,0.03,-0.05,0.01,0.05
2022-11-11 9:33:16.2120,0.04,-0.03,0.04,0.06
2022-11-11 9:33:16.2280,0.05,0.0,0.04,0.06
2022-11-11 9:33:16.2290,0.05,0.02,0.03,0.06
2022-11-11 9:33:16.2590,0.01,0.01,0.02,0.02
2022-11-11 9:33:16.2600,-0.02,-0.03,0.01,0.03
2022-11-11 9:33:16.2800,-0.05,-0.05,0.01,0.07
2022-11-11 9:33:16.2810,-0.08,-0.04,-0.02,0.09
2022-11-11 9:33:16.2960,-0.09,-0.04,-0.08,0.12
2022-11-11 9:33:16.2970,-0.09,-0.03,-0.13,0.16
2022-11-11 9:33:16.3110,-0.06,-0.03,-0.12,0.13
2022-11-11 9:33:16.3120,-0.03,-0.02,-0.1,0.1
2022-11-11 9:33:16.3280,-0.01,-0.01,-0.1,0.1
2022-11-11 9:33:16.3280,0.0,-0.01,-0.11,0.11
2022-11-11 9:33:16.3580,0.03,0.02,-0.09,0.09
2022-11-11 9:33:16.3590,0.07,0.03,-0.05,0.09
2022-11-11 9:33:16.3800,0.08,0.01,-0.03,0.08
2022-11-11 9:33:16.3810,0.04,-0.04,-0.03,0.06
2022-11-11 9:33:16.3950,-0.01,-0.06,-0.02,0.06
2022-11-11 9:33:16.3960,-0.05,-0.07,-0.02,0.08
2022-11-11 9:33:16.4110,-0.1,-0.05,0.05,0.12
2022-11-11 9:33:16.4120,-0.1,0.02,0.05,0.11
2022-11-11 9:33:16.4280,-0.08,0.06,0.06,0.11
2022-11-11 9:33:16.4290,-0.01,0.12,0.05,0.13
2022-11-11 9:33:16.4570,0.06,0.17,-0.01,0.18
2022-11-11 9:33:16.4580,0.1,0.18,-0.09,0.22
2022-11-11 9:33:16.4600,0.09,0.17,-0.1,0.21
2022-11-11 9:33:16.4790,0.08,0.15,-0.06,0.18
2022-11-11 9:33:16.4800,0.07,0.15,-0.04,0.17
2022-11-11 9:33:16.4950,0.03,0.12,-0.02,0.12
2022-11-11 9:33:16.4960,-0.03,0.07,0.01,0.07
2022-11-11 9:33:16.5110,-0.08,0.06,0.05,0.11
2022-11-11 9:33:16.5120,-0.08,0.06,0.08,0.12
2022-11-11 9:33:16.5280,-0.07,0.04,0.08,0.11
2022-11-11 9:33:16.5570,-0.05,0.03,0.07,0.09
2022-11-11 9:33:16.5580,-0.02,0.06,0.08,0.1
2022-11-11 9:33:16.5610,-0.04,0.08,0.09,0.12
2022-11-11 9:33:16.5790,-0.07,0.08,0.03,0.11
2022-11-11 9:33:16.5800,-0.07,0.09,-0.06,0.12
2022-11-11 9:33:16.5950,0.0,0.06,-0.11,0.12
2022-11-11 9:33:16.5950,0.04,0.02,-0.14,0.14
2022-11-11 9:33:16.6110,0.03,0.01,-0.11,0.11
2022-11-11 9:33:16.6120,-0.03,0.02,-0.01,0.03
2022-11-11 9:33:16.6280,-0.1,0.05,0.09,0.14
2022-11-11 9:33:16.6570,-0.11,0.05,0.13,0.17
2022-11-11 9:33:16.6580,-0.09,0.01,0.12,0.15
2022-11-11 9:33:16.6600,-0.08,-0.03,0.06,0.1
2022-11-11 9:33:16.6790,-0.05,-0.06,0.0,0.07
2022-11-11 9:33:16.6800,-0.01,-0.05,-0.03,0.05
2022-11-11 9:33:16.6950,0.0,-0.04,-0.07,0.08
2022-11-11 9:33:16.6960,0.04,-0.03,-0.09,0.1
2022-11-11 9:33:16.7110,0.06,-0.04,-0.09,0.11
2022-11-11 9:33:16.7120,0.07,-0.04,-0.07,0.1
2022-11-11 9:33:16.7280,0.09,-0.08,-0.05,0.13
2022-11-11 9:33:16.7580,0.09,-0.12,-0.02,0.15
2022-11-11 9:33:16.7590,0.03,-0.14,-0.02,0.14
2022-11-11 9:33:16.7800,-0.01,-0.14,-0.05,0.14
2022-11-11 9:33:16.7800,-0.01,-0.11,-0.1,0.14
2022-11-11 9:33:16.7810,-0.02,-0.04,-0.11,0.11
2022-11-11 9:33:16.7950,-0.03,-0.01,-0.09,0.09
2022-11-11 9:33:16.7960,-0.03,-0.02,-0.06,0.06
2022-11-11 9:33:16.8110,-0.03,-0.03,-0.08,0.09
2022-11-11 9:33:16.8120,-0.03,-0.03,-0.08,0.09
2022-11-11 9:33:16.8120,-0.04,-0.02,-0.03,0.05
2022-11-11 9:33:16.8400,-0.03,0.01,0.04,0.05
2022-11-11 9:33:16.8410,-0.03,0.01,0.07,0.07
2022-11-11 9:33:16.8430,-0.05,-0.01,0.07,0.08
2022-11-11 9:33:16.8430,-0.02,-0.01,0.06,0.06
2022-11-11 9:33:16.8620,0.03,-0.04,0.05,0.07
2022-11-11 9:33:16.8630,0.02,-0.08,0.02,0.08
2022-11-11 9:33:16.8780,-0.02,-0.06,-0.03,0.06
2022-11-11 9:33:16.8790,-0.01,-0.02,-0.07,0.07
2022-11-11 9:33:16.8950,-0.02,0.02,-0.06,0.06
2022-11-11 9:33:16.8960,-0.02,0.04,-0.04,0.06
2022-11-11 9:33:16.9210,-0.01,0.05,0.01,0.05
2022-11-11 9:33:16.9220,-0.02,0.08,0.06,0.1
2022-11-11 9:33:16.9300,-0.03,0.08,0.09,0.12
2022-11-11 9:33:16.9300,-0.01,0.08,0.14,0.16
2022-11-11 9:33:16.9450,-0.01,0.05,0.16,0.16
2022-11-11 9:33:16.9460,-0.03,-0.01,0.13,0.13
2022-11-11 9:33:16.9610,0.02,-0.04,0.07,0.08
2022-11-11 9:33:16.9620,0.05,-0.06,-0.02,0.08
2022-11-11 9:33:16.9780,0.06,-0.08,-0.09,0.13
2022-11-11 9:33:16.9790,0.06,-0.05,-0.15,0.16
2022-11-11 9:33:17.0050,0.03,0.03,-0.15,0.15
2022-11-11 9:33:17.0060,0.0,0.1,-0.12,0.15
2022-11-11 9:33:17.0120,-0.07,0.13,-0.09,0.17
2022-11-11 9:33:17.0130,-0.11,0.14,-0.05,0.18
2022-11-11 9:33:17.0290,-0.11,0.11,-0.02,0.15
2022-11-11 9:33:17.0290,-0.07,0.09,0.0,0.11
2022-11-11 9:33:17.0450,-0.07,0.05,-0.02,0.08
2022-11-11 9:33:17.0450,-0.08,0.02,-0.07,0.1
2022-11-11 9:33:17.0610,-0.03,0.0,-0.07,0.07
2022-11-11 9:33:17.0620,0.03,-0.01,-0.04,0.05
2022-11-11 9:33:17.0870,0.05,0.0,0.02,0.05
2022-11-11 9:33:17.0880,0.03,0.0,0.03,0.04
2022-11-11 9:33:17.0960,0.0,-0.02,0.01,0.02
2022-11-11 9:33:17.0960,-0.05,0.0,0.01,0.05
2022-11-11 9:33:17.1120,-0.05,0.0,0.0,0.05
2022-11-11 9:33:17.1120,0.0,0.03,-0.05,0.05
2022-11-11 9:33:17.1130,-0.01,0.1,0.02,0.1
2022-11-11 9:33:17.1280,-0.06,0.11,0.17,0.21
2022-11-11 9:33:17.1290,-0.05,0.07,0.27,0.28
2022-11-11 9:33:17.1450,-0.04,0.04,0.19,0.19
2022-11-11 9:33:17.1700,-0.01,0.02,0.03,0.03
2022-11-11 9:33:17.1710,-0.04,0.02,-0.02,0.04
2022-11-11 9:33:17.1800,-0.06,0.06,-0.04,0.09
2022-11-11 9:33:17.1800,-0.04,0.07,-0.09,0.12
2022-11-11 9:33:17.1950,-0.03,0.02,-0.15,0.15
2022-11-11 9:33:17.1960,-0.01,-0.04,-0.16,0.16
2022-11-11 9:33:17.2120,0.0,-0.09,-0.07,0.11
2022-11-11 9:33:17.2120,-0.03,-0.1,0.0,0.1
2022-11-11 9:33:17.2280,-0.03,-0.07,-0.01,0.07
2022-11-11 9:33:17.2290,-0.04,-0.05,-0.04,0.07
2022-11-11 9:33:17.2550,-0.04,-0.04,-0.06,0.08
2022-11-11 9:33:17.2560,-0.02,-0.03,-0.14,0.14
2022-11-11 9:33:17.2620,0.04,-0.01,-0.21,0.21
2022-11-11 9:33:17.2630,0.12,0.03,-0.18,0.21
2022-11-11 9:33:17.2790,0.11,0.03,-0.09,0.14
2022-11-11 9:33:17.2790,0.11,-0.03,-0.05,0.12
2022-11-11 9:33:17.2940,0.15,-0.12,-0.08,0.2
2022-11-11 9:33:17.2950,0.12,-0.14,-0.05,0.19
2022-11-11 9:33:17.3110,0.07,-0.11,0.09,0.15
2022-11-11 9:33:17.3120,0.01,-0.06,0.18,0.19
2022-11-11 9:33:17.3380,-0.01,0.01,0.13,0.13
2022-11-11 9:33:17.3390,-0.02,0.06,0.03,0.06
2022-11-11 9:33:17.3460,-0.01,0.05,0.0,0.05
2022-11-11 9:33:17.3460,0.05,0.01,-0.15,0.15
2022-11-11 9:33:17.3620,0.12,-0.03,-0.29,0.31
2022-11-11 9:33:17.3630,0.14,0.01,-0.31,0.34
2022-11-11 9:33:17.3780,0.09,0.05,-0.3,0.31
2022-11-11 9:33:17.3790,0.05,0.02,-0.27,0.27
2022-11-11 9:33:17.3950,0.11,-0.07,-0.32,0.34
2022-11-11 9:33:17.3950,0.45,-0.17,-0.45,0.65
2022-11-11 9:33:17.4210,0.65,-0.28,-0.58,0.91
2022-11-11 9:33:17.4220,0.67,-0.31,-0.62,0.96
2022-11-11 9:33:17.4290,0.6,-0.16,-0.55,0.82
2022-11-11 9:33:17.4300,0.56,-0.08,-0.42,0.7
2022-11-11 9:33:17.4450,0.5,-0.15,-0.34,0.62
2022-11-11 9:33:17.4460,0.34,-0.04,-0.26,0.42
2022-11-11 9:33:17.4610,0.23,0.2,-0.12,0.32
2022-11-11 9:33:17.4620,0.11,0.44,-0.01,0.45
2022-11-11 9:33:17.4780,-0.02,0.41,0.06,0.41
2022-11-11 9:33:17.4790,0.03,0.41,0.09,0.42
2022-11-11 9:33:17.5050,-0.04,0.47,0.3,0.55
2022-11-11 9:33:17.5060,-0.27,0.33,0.59,0.72
2022-11-11 9:33:17.5120,-0.43,0.2,0.77,0.9
2022-11-11 9:33:17.5130,-0.32,-0.05,0.76,0.82
2022-11-11 9:33:17.5290,-0.27,-0.27,0.73,0.82
2022-11-11 9:33:17.5290,-0.43,-0.33,0.69,0.87
2022-11-11 9:33:17.5450,-0.56,-0.22,0.52,0.79
2022-11-11 9:33:17.5450,-0.57,-0.06,0.36,0.67
2022-11-11 9:33:17.5610,-0.39,0.18,0.31,0.52
2022-11-11 9:33:17.5620,-0.32,0.19,0.1,0.38
2022-11-11 9:33:17.5880,-0.23,0.04,-0.02,0.23
2022-11-11 9:33:17.5890,-0.13,-0.12,-0.2,0.26
2022-11-11 9:33:17.5960,-0.05,-0.26,-0.36,0.44
2022-11-11 9:33:17.5960,0.03,-0.36,-0.35,0.5
2022-11-11 9:33:17.6120,0.1,-0.46,-0.31,0.56
2022-11-11 9:33:17.6130,0.03,-0.47,-0.21,0.51
2022-11-11 9:33:17.6280,0.03,-0.41,-0.15,0.43
2022-11-11 9:33:17.6290,0.01,-0.37,0.01,0.37
2022-11-11 9:33:17.6440,-0.14,-0.32,0.18,0.39
2022-11-11 9:33:17.6450,-0.19,-0.22,0.15,0.32
2022-11-11 9:33:17.6710,-0.12,-0.14,0.16,0.24
2022-11-11 9:33:17.6720,-0.06,-0.11,0.18,0.21
2022-11-11 9:33:17.6780,-0.06,-0.1,0.14,0.18
2022-11-11 9:33:17.6780,0.01,-0.11,-0.14,0.17
2022-11-11 9:33:17.6950,0.08,-0.14,-0.33,0.36
2022-11-11 9:33:17.6960,0.12,-0.15,-0.36,0.4
2022-11-11 9:33:17.7110,0.14,-0.09,-0.26,0.3
2022-11-11 9:33:17.7120,0.07,-0.02,-0.03,0.07
2022-11-11 9:33:17.7280,0.01,0.03,0.15,0.15
2022-11-11 9:33:17.7290,-0.03,0.06,0.33,0.33
2022-11-11 9:33:17.7550,-0.11,0.11,0.44,0.46
2022-11-11 9:33:17.7550,-0.2,0.26,0.42,0.53
2022-11-11 9:33:17.7620,-0.19,0.38,0.35,0.55
2022-11-11 9:33:17.7630,-0.17,0.35,0.29,0.48
2022-11-11 9:33:17.7790,-0.23,0.27,0.2,0.4
2022-11-11 9:33:17.7800,-0.16,0.27,0.02,0.31
2022-11-11 9:33:17.7950,0.0,0.28,-0.16,0.32
2022-11-11 9:33:17.7950,0.11,0.22,-0.29,0.38
2022-11-11 9:33:17.8110,0.17,0.1,-0.28,0.34
2022-11-11 9:33:17.8120,0.14,-0.03,-0.07,0.15
2022-11-11 9:33:17.8390,0.14,-0.08,0.08,0.18
2022-11-11 9:33:17.8400,0.14,-0.05,0.12,0.19
2022-11-11 9:33:17.8460,0.08,-0.01,0.19,0.2
2022-11-11 9:33:17.8460,0.0,0.04,0.28,0.28
2022-11-11 9:33:17.8620,-0.07,0.1,0.25,0.27
2022-11-11 9:33:17.8630,-0.15,0.13,0.18,0.26
2022-11-11 9:33:17.8780,-0.23,0.15,0.15,0.31
2022-11-11 9:33:17.8790,-0.33,0.21,0.17,0.42
2022-11-11 9:33:17.8950,-0.39,0.31,0.19,0.53
2022-11-11 9:33:17.8950,-0.47,0.28,0.28,0.61
2022-11-11 9:33:17.9220,-0.42,0.12,0.26,0.5
2022-11-11 9:33:17.9220,-0.21,-0.09,0.2,0.3
2022-11-11 9:33:17.9280,-0.1,-0.24,0.19,0.32
2022-11-11 9:33:17.9290,-0.15,-0.2,0.19,0.31
2022-11-11 9:33:17.9450,-0.21,-0.07,0.12,0.25
2022-11-11 9:33:17.9460,-0.29,-0.03,-0.05,0.29
2022-11-11 9:33:17.9610,-0.43,0.01,-0.12,0.44
2022-11-11 9:33:17.9620,-0.51,0.09,-0.13,0.53
2022-11-11 9:33:17.9780,-0.51,0.06,-0.15,0.53
2022-11-11 9:33:17.9790,-0.64,0.05,-0.07,0.64
2022-11-11 9:33:18.0050,-0.82,0.18,0.03,0.84
2022-11-11 9:33:18.0050,-0.92,0.39,0.08,1.0
2022-11-11 9:33:18.0120,-0.78,0.47,0.13,0.91
2022-11-11 9:33:18.0130,-0.47,0.37,0.08,0.6
2022-11-11 9:33:18.0290,0.04,0.06,-0.06,0.09
2022-11-11 9:33:18.0300,0.55,-0.26,-0.07,0.61
2022-11-11 9:33:18.0450,0.84,-0.06,0.27,0.88
2022-11-11 9:33:18.0460,0.68,-0.19,0.03,0.7
2022-11-11 9:33:18.0600,0.44,-0.3,-0.16,0.55
2022-11-11 9:33:18.0610,0.43,-0.18,-0.44,0.64
2022-11-11 9:33:18.0870,0.51,-0.16,-0.8,0.96
2022-11-11 9:33:18.0880,0.48,-0.33,-0.86,1.03
2022-11-11 9:33:18.0940,0.48,-0.41,-0.93,1.12
2022-11-11 9:33:18.0950,0.5,-0.41,-0.99,1.18
2022-11-11 9:33:18.1110,0.55,-0.41,-1.1,1.29
2022-11-11 9:33:18.1120,0.6,-0.42,-1.15,1.36
2022-11-11 9:33:18.1280,0.6,-0.42,-0.79,1.07
2022-11-11 9:33:18.1290,0.43,-0.45,-0.45,0.76
2022-11-11 9:33:18.1440,0.23,-0.38,0.01,0.44
2022-11-11 9:33:18.1450,0.09,-0.2,0.4,0.45
2022-11-11 9:33:18.1710,-0.04,0.06,0.64,0.64
2022-11-11 9:33:18.1720,-0.07,0.32,0.81,0.87
2022-11-11 9:33:18.1790,-0.1,0.46,0.92,1.03
2022-11-11 9:33:18.1800,-0.19,0.46,0.75,0.9
2022-11-11 9:33:18.1950,-0.24,0.37,0.42,0.6
2022-11-11 9:33:18.1960,-0.18,0.27,0.21,0.38
2022-11-11 9:33:18.2110,-0.07,0.16,0.06,0.18
2022-11-11 9:33:18.2120,0.01,0.09,-0.02,0.09
2022-11-11 9:33:18.2280,0.04,0.07,0.02,0.08
2022-11-11 9:33:18.2290,0.06,0.08,0.03,0.1
2022-11-11 9:33:18.2550,0.08,0.1,0.03,0.13
2022-11-11 9:33:18.2550,0.11,0.13,0.05,0.17
2022-11-11 9:33:18.2620,0.12,0.13,0.06,0.18
2022-11-11 9:33:18.2620,0.11,0.12,0.03,0.16
2022-11-11 9:33:18.2790,0.11,0.1,-0.02,0.15
2022-11-11 9:33:18.2790,0.17,0.06,-0.04,0.18
2022-11-11 9:33:18.2940,0.21,-0.03,-0.07,0.22
2022-11-11 9:33:18.2950,0.15,-0.1,-0.04,0.18
2022-11-11 9:33:18.3110,0.06,-0.1,-0.02,0.11
2022-11-11 9:33:18.3120,0.03,-0.08,-0.06,0.1
2022-11-11 9:33:18.3390,0.0,-0.04,-0.06,0.07
2022-11-11 9:33:18.3400,-0.02,-0.01,-0.07,0.07
2022-11-11 9:33:18.3430,0.0,-0.03,-0.1,0.1
2022-11-11 9:33:18.3430,0.03,-0.1,-0.14,0.17
2022-11-11 9:33:18.3620,0.02,-0.17,-0.14,0.22
2022-11-11 9:33:18.3620,0.02,-0.17,-0.13,0.21
2022-11-11 9:33:18.3780,0.03,-0.14,-0.13,0.19
2022-11-11 9:33:18.3790,0.0,-0.11,-0.11,0.15
2022-11-11 9:33:18.3940,-0.04,-0.09,-0.07,0.12
2022-11-11 9:33:18.3950,-0.09,-0.03,-0.07,0.11
2022-11-11 9:33:18.4210,-0.04,0.03,-0.15,0.15
2022-11-11 9:33:18.4220,0.05,0.02,-0.25,0.25
2022-11-11 9:33:18.4260,0.07,-0.04,-0.52,0.52
2022-11-11 9:33:18.4270,0.04,0.07,-0.1,0.12
2022-11-11 9:33:18.4450,-0.15,0.15,0.27,0.34
2022-11-11 9:33:18.4460,-0.25,0.18,0.21,0.37
2022-11-11 9:33:18.4610,-0.2,0.15,0.2,0.32
2022-11-11 9:33:18.4620,-0.25,0.11,0.22,0.35
2022-11-11 9:33:18.4780,-0.35,0.08,0.28,0.45
2022-11-11 9:33:18.4790,-0.3,0.01,0.12,0.32
2022-11-11 9:33:18.5040,-0.07,-0.08,0.05,0.11
2022-11-11 9:33:18.5050,0.13,-0.01,0.23,0.26
2022-11-11 9:33:18.5120,0.15,0.08,0.45,0.48
2022-11-11 9:33:18.5120,0.04,0.09,0.52,0.52
2022-11-11 9:33:18.5290,-0.01,0.13,0.43,0.44
2022-11-11 9:33:18.5290,0.02,0.16,0.23,0.28
2022-11-11 9:33:18.5450,0.04,0.16,-0.02,0.16
2022-11-11 9:33:18.5450,0.03,0.12,-0.19,0.22
2022-11-11 9:33:18.5610,0.02,0.07,-0.25,0.26
2022-11-11 9:33:18.5620,0.01,0.03,-0.19,0.19
2022-11-11 9:33:18.5880,-0.01,0.0,-0.13,0.13
2022-11-11 9:33:18.5890,-0.04,-0.03,-0.09,0.1
2022-11-11 9:33:18.5930,-0.04,-0.05,-0.04,0.07
2022-11-11 9:33:18.5940,-0.09,-0.08,-0.07,0.13
2022-11-11 9:33:18.6120,-0.11,-0.07,-0.12,0.17
2022-11-11 9:33:18.6130,-0.05,-0.08,-0.15,0.17
2022-11-11 9:33:18.6280,-0.04,-0.1,-0.14,0.17
2022-11-11 9:33:18.6280,-0.06,-0.11,-0.14,0.18
2022-11-11 9:33:18.6440,-0.08,-0.09,-0.08,0.14
2022-11-11 9:33:18.6450,-0.12,-0.04,-0.01,0.12
2022-11-11 9:33:18.6720,-0.14,-0.03,-0.01,0.14
2022-11-11 9:33:18.6730,-0.16,-0.03,0.01,0.16
2022-11-11 9:33:18.6790,-0.18,-0.03,0.06,0.19
2022-11-11 9:33:18.6790,-0.21,-0.03,0.06,0.22
2022-11-11 9:33:18.6950,-0.18,-0.03,0.07,0.19
2022-11-11 9:33:18.6960,-0.12,-0.02,0.15,0.19
2022-11-11 9:33:18.7110,-0.04,-0.03,0.01,0.05
2022-11-11 9:33:18.7120,0.03,-0.1,-0.15,0.18
2022-11-11 9:33:18.7280,0.08,-0.16,-0.15,0.23
2022-11-11 9:33:18.7280,0.09,-0.13,-0.1,0.18
2022-11-11 9:33:18.7540,-0.01,-0.06,-0.03,0.06
2022-11-11 9:33:18.7550,-0.09,0.01,0.01,0.09
2022-11-11 9:33:18.7630,-0.15,0.06,0.06,0.17
2022-11-11 9:33:18.7630,-0.16,0.08,0.11,0.21
2022-11-11 9:33:18.7790,-0.13,0.09,0.12,0.19
2022-11-11 9:33:18.7800,-0.1,0.11,0.17,0.22
2022-11-11 9:33:18.7950,-0.11,0.11,0.21,0.26
2022-11-11 9:33:18.7950,-0.1,0.09,0.17,0.21
2022-11-11 9:33:18.8110,-0.12,0.03,0.07,0.14
2022-11-11 9:33:18.8120,-0.09,0.01,0.02,0.09
2022-11-11 9:33:18.8390,-0.08,0.04,0.03,0.09
2022-11-11 9:33:18.8400,-0.13,0.08,0.03,0.15
2022-11-11 9:33:18.8440,-0.14,0.24,-0.14,0.31
2022-11-11 9:33:18.8450,-0.07,0.3,-0.07,0.31
2022-11-11 9:33:18.8620,-0.08,0.21,0.09,0.24
2022-11-11 9:33:18.8620,-0.04,0.14,0.03,0.14
2022-11-11 9:33:18.8780,0.08,0.04,0.01,0.09
2022-11-11 9:33:18.8790,0.18,-0.08,0.02,0.19
2022-11-11 9:33:18.8950,0.16,-0.22,0.01,0.27
2022-11-11 9:33:18.8950,0.09,-0.33,0.04,0.34
2022-11-11 9:33:18.9210,0.02,-0.3,0.11,0.32
2022-11-11 9:33:18.9220,-0.03,-0.23,0.16,0.28
2022-11-11 9:33:18.9290,-0.06,-0.15,0.07,0.17
2022-11-11 9:33:18.9300,-0.02,-0.05,-0.09,0.1
2022-11-11 9:33:18.9460,0.04,0.01,-0.25,0.25
2022-11-11 9:33:18.9460,0.07,-0.04,-0.27,0.28
2022-11-11 9:33:18.9610,0.06,-0.09,-0.19,0.21
2022-11-11 9:33:18.9620,0.04,-0.1,0.0,0.1
2022-11-11 9:33:18.9780,-0.06,-0.13,0.18,0.23
2022-11-11 9:33:18.9790,-0.15,-0.12,0.2,0.27
2022-11-11 9:33:19.0050,-0.17,-0.1,0.16,0.25
2022-11-11 9:33:19.0060,-0.18,-0.06,0.17,0.25
2022-11-11 9:33:19.0130,-0.18,0.03,0.13,0.22
2022-11-11 9:33:19.0130,-0.2,0.11,0.06,0.23
2022-11-11 9:33:19.0290,-0.19,0.19,0.01,0.26
2022-11-11 9:33:19.0300,-0.18,0.27,-0.03,0.32
2022-11-11 9:33:19.0450,-0.18,0.32,-0.05,0.37
2022-11-11 9:33:19.0460,-0.19,0.34,-0.02,0.39
2022-11-11 9:33:19.0610,-0.19,0.31,0.0,0.36
2022-11-11 9:33:19.0620,-0.17,0.24,-0.06,0.3
2022-11-11 9:33:19.0880,-0.1,0.17,-0.09,0.21
2022-11-11 9:33:19.0890,-0.05,0.15,-0.11,0.19
2022-11-11 9:33:19.0960,0.01,0.13,-0.07,0.14
2022-11-11 9:33:19.0960,0.03,0.04,-0.07,0.08
2022-11-11 9:33:19.1120,0.03,-0.08,-0.08,0.11
2022-11-11 9:33:19.1130,0.01,-0.18,-0.02,0.18
2022-11-11 9:33:19.1280,0.0,-0.3,0.01,0.3
2022-11-11 9:33:19.1290,0.04,-0.42,0.01,0.42
2022-11-11 9:33:19.1450,0.12,-0.49,-0.02,0.5
2022-11-11 9:33:19.1450,0.19,-0.52,-0.02,0.55
2022-11-11 9:33:19.1710,0.21,-0.47,0.02,0.51
2022-11-11 9:33:19.1720,0.15,-0.33,0.04,0.36
2022-11-11 9:33:19.1790,0.14,-0.13,0.05,0.19
2022-11-11 9:33:19.1800,0.19,0.03,0.0,0.19
2022-11-11 9:33:19.1950,0.2,0.11,-0.11,0.25
2022-11-11 9:33:19.1960,0.18,0.12,-0.25,0.33
2022-11-11 9:33:19.2110,0.18,0.07,-0.35,0.39
2022-11-11 9:33:19.2120,0.2,0.0,-0.42,0.46
2022-11-11 9:33:19.2280,0.26,-0.07,-0.44,0.51
2022-11-11 9:33:19.2280,0.25,-0.12,-0.38,0.47
2022-11-11 9:33:19.2540,0.19,-0.13,-0.25,0.33
2022-11-11 9:33:19.2550,0.14,-0.12,-0.08,0.2
2022-11-11 9:33:19.2620,0.1,-0.06,0.13,0.17
2022-11-11 9:33:19.2630,0.05,-0.01,0.24,0.24
2022-11-11 9:33:19.2790,0.04,0.02,0.21,0.21
2022-11-11 9:33:19.2790,0.04,0.05,0.16,0.17
2022-11-11 9:33:19.2940,0.01,0.06,0.13,0.14
2022-11-11 9:33:19.2950,0.0,0.04,0.11,0.11
2022-11-11 9:33:19.3110,-0.01,0.02,0.12,0.12
2022-11-11 9:33:19.3120,0.0,-0.1,0.11,0.14
2022-11-11 9:33:19.3390,-0.03,-0.12,0.06,0.13
2022-11-11 9:33:19.3390,0.03,-0.05,0.01,0.05
2022-11-11 9:33:19.3430,0.13,-0.03,-0.08,0.15
2022-11-11 9:33:19.3440,0.08,-0.07,-0.13,0.16
2022-11-11 9:33:19.3620,-0.09,-0.01,-0.13,0.15
2022-11-11 9:33:19.3630,-0.11,0.1,-0.11,0.18
2022-11-11 9:33:19.3780,-0.03,0.1,-0.05,0.11
2022-11-11 9:33:19.3790,0.0,0.04,0.0,0.04
2022-11-11 9:33:19.3950,0.02,0.0,0.02,0.02
2022-11-11 9:33:19.3950,0.04,-0.02,-0.01,0.04
2022-11-11 9:33:19.4210,0.05,0.0,-0.11,0.12
2022-11-11 9:33:19.4220,0.0,0.12,-0.21,0.24
2022-11-11 9:33:19.4290,0.0,0.24,-0.22,0.32
2022-11-11 9:33:19.4300,0.09,0.27,-0.22,0.35
2022-11-11 9:33:19.4450,0.17,0.26,-0.26,0.4
2022-11-11 9:33:19.4460,0.21,0.21,-0.3,0.42
2022-11-11 9:33:19.4610,0.14,0.02,-0.28,0.31
2022-11-11 9:33:19.4620,0.01,-0.06,-0.19,0.19
2022-11-11 9:33:19.4780,-0.34,-0.05,0.11,0.36
2022-11-11 9:33:19.4790,-0.84,0.06,0.58,1.02
2022-11-11 9:33:19.5050,-1.05,0.37,0.78,1.35
2022-11-11 9:33:19.5050,-1.06,0.61,0.54,1.33
2022-11-11 9:33:19.5090,-0.82,0.61,0.02,1.02
2022-11-11 9:33:19.5100,-0.1,0.48,-0.36,0.6
2022-11-11 9:33:19.5280,0.58,0.29,-0.55,0.85
2022-11-11 9:33:19.5290,0.82,0.19,-0.36,0.91
2022-11-11 9:33:19.5450,1.11,0.32,0.19,1.17
2022-11-11 9:33:19.5460,1.19,0.09,1.11,1.62
2022-11-11 9:33:19.5610,0.62,-0.21,1.71,1.83
2022-11-11 9:33:19.5620,0.27,-0.35,1.61,1.66
2022-11-11 9:33:19.5880,0.23,-0.44,1.32,1.41
2022-11-11 9:33:19.5890,0.28,-0.36,0.92,1.02
2022-11-11 9:33:19.5930,0.25,-0.23,0.54,0.63
2022-11-11 9:33:19.5940,0.16,-0.1,0.19,0.26
2022-11-11 9:33:19.6120,0.1,0.03,0.01,0.1
2022-11-11 9:33:19.6130,-0.02,0.32,-0.19,0.37
2022-11-11 9:33:19.6280,-0.06,0.6,-0.38,0.71
2022-11-11 9:33:19.6290,0.08,0.85,-0.5,0.98
2022-11-11 9:33:19.6450,0.35,0.92,-0.54,1.12
2022-11-11 9:33:19.6460,0.51,0.75,-0.65,1.11
2022-11-11 9:33:19.6730,0.45,0.41,-0.79,0.99
2022-11-11 9:33:19.6740,0.22,0.05,-0.78,0.81
2022-11-11 9:33:19.6760,-0.03,-0.21,-0.61,0.64
2022-11-11 9:33:19.6950,-0.19,-0.39,-0.31,0.53
2022-11-11 9:33:19.6960,-0.38,-0.58,0.08,0.69
2022-11-11 9:33:19.7110,-0.62,-0.68,0.53,1.06
2022-11-11 9:33:19.7120,-0.66,-0.64,0.8,1.21
2022-11-11 9:33:19.7280,-0.54,-0.46,0.73,1.01
2022-11-11 9:33:19.7290,-0.38,-0.26,0.51,0.68
2022-11-11 9:33:19.7450,-0.28,-0.13,0.32,0.44
2022-11-11 9:33:19.7730,-0.22,-0.15,0.16,0.31
2022-11-11 9:33:19.7740,-0.25,-0.35,0.04,0.43
2022-11-11 9:33:19.7760,-0.35,-0.6,-0.04,0.69
2022-11-11 9:33:19.7950,-0.44,-0.81,-0.14,0.93
2022-11-11 9:33:19.7960,-0.46,-0.93,-0.23,1.06
2022-11-11 9:33:19.8110,-0.46,-0.92,-0.42,1.11
2022-11-11 9:33:19.8120,-0.37,-0.83,-0.63,1.1
2022-11-11 9:33:19.8280,-0.28,-0.65,-0.8,1.06
2022-11-11 9:33:19.8290,-0.16,-0.41,-0.94,1.03
2022-11-11 9:33:19.8450,0.04,-0.14,-1.06,1.06
2022-11-11 9:33:19.8740,0.31,0.02,-1.03,1.07
2022-11-11 9:33:19.8750,0.46,0.02,-0.95,1.05
2022-11-11 9:33:19.8960,0.48,-0.08,-0.82,0.95
2022-11-11 9:33:19.8970,0.44,-0.19,-0.63,0.79
2022-11-11 9:33:19.9120,0.38,-0.24,-0.45,0.63
2022-11-11 9:33:19.9130,0.3,-0.27,-0.26,0.48
2022-11-11 9:33:19.9280,0.17,-0.32,-0.06,0.36
2022-11-11 9:33:19.9290,0.15,-0.35,0.06,0.38
2022-11-11 9:33:19.9450,0.22,-0.25,0.23,0.4
2022-11-11 9:33:19.9450,0.27,0.08,0.48,0.55
2022-11-11 9:33:19.9750,0.33,0.45,0.78,0.95
2022-11-11 9:33:19.9760,0.27,0.68,0.85,1.12
2022-11-11 9:33:19.9970,0.16,0.81,0.79,1.14
2022-11-11 9:33:19.9970,0.05,0.84,0.63,1.05
2022-11-11 9:33:20.0120,0.09,0.77,0.43,0.88
2022-11-11 9:33:20.0130,0.25,0.57,0.24,0.66
2022-11-11 9:33:20.0280,0.25,0.28,0.07,0.38
2022-11-11 9:33:20.0290,0.08,-0.01,0.11,0.13
2022-11-11 9:33:20.0440,-0.26,-0.23,0.31,0.46
2022-11-11 9:33:20.0450,-0.54,-0.38,0.31,0.72
2022-11-11 9:33:20.0750,-0.49,-0.41,0.16,0.65
2022-11-11 9:33:20.0760,-0.18,-0.33,0.08,0.38
2022-11-11 9:33:20.0970,0.04,-0.21,0.13,0.25
2022-11-11 9:33:20.0970,0.07,-0.18,0.07,0.2
2022-11-11 9:33:20.1120,0.01,-0.29,0.0,0.29
2022-11-11 9:33:20.1130,0.03,-0.35,-0.14,0.37
2022-11-11 9:33:20.1280,0.06,-0.43,-0.26,0.5
2022-11-11 9:33:20.1290,0.15,-0.47,-0.37,0.61
2022-11-11 9:33:20.1440,0.1,-0.72,-0.14,0.74
2022-11-11 9:33:20.1450,-0.15,-1.08,0.27,1.12
2022-11-11 9:33:20.1750,-0.28,-1.04,0.25,1.1
2022-11-11 9:33:20.1760,0.25,-0.22,1.53,1.56
2022-11-11 9:33:20.1960,0.26,0.28,1.12,1.18
2022-11-11 9:33:20.1970,-0.32,-0.19,-0.53,0.64
2022-11-11 9:33:20.2120,0.2,0.45,-0.17,0.52
2022-11-11 9:33:20.2130,0.42,0.72,-0.58,1.01
2022-11-11 9:33:20.2280,0.61,0.89,-0.84,1.36
2022-11-11 9:33:20.2290,0.74,0.95,-0.86,1.47
2022-11-11 9:33:20.2450,0.66,0.88,-0.62,1.26
2022-11-11 9:33:20.2460,0.31,0.57,0.06,0.65
2022-11-11 9:33:20.2740,-0.13,-0.05,0.68,0.69
2022-11-11 9:33:20.2750,-0.48,-0.78,0.76,1.19
2022-11-11 9:33:20.2970,-0.73,-1.37,0.57,1.65
2022-11-11 9:33:20.2970,-0.74,-1.56,0.33,1.75
2022-11-11 9:33:20.3120,-0.53,-1.27,0.13,1.38
2022-11-11 9:33:20.3130,-0.22,-0.64,-0.1,0.68
2022-11-11 9:33:20.3280,0.13,0.05,-0.4,0.42
2022-11-11 9:33:20.3290,0.51,0.79,-0.65,1.14
2022-11-11 9:33:20.3440,0.88,1.5,-0.77,1.9
2022-11-11 9:33:20.3450,1.04,2.05,-0.78,2.42
2022-11-11 9:33:20.3750,0.64,1.9,-0.6,2.09
2022-11-11 9:33:20.3760,-0.06,1.04,-0.08,1.04
2022-11-11 9:33:20.3960,-0.3,0.26,0.37,0.54
2022-11-11 9:33:20.3970,-0.1,-0.07,0.43,0.44
2022-11-11 9:33:20.4120,0.22,-0.17,0.29,0.4
2022-11-11 9:33:20.4130,0.48,-0.21,0.13,0.53
2022-11-11 9:33:20.4280,0.61,-0.27,-0.12,0.67
2022-11-11 9:33:20.4290,0.68,-0.36,-0.42,0.87
2022-11-11 9:33:20.4450,0.71,-0.44,-0.55,1.0
2022-11-11 9:33:20.4460,0.72,-0.46,-0.54,1.01
2022-11-11 9:33:20.4750,0.76,-0.47,-0.45,1.0
2022-11-11 9:33:20.4760,0.74,-0.46,-0.31,0.92
2022-11-11 9:33:20.4970,0.6,-0.43,-0.2,0.76
2022-11-11 9:33:20.4980,0.46,-0.39,-0.12,0.61
2022-11-11 9:33:20.5120,0.36,-0.35,-0.02,0.5
2022-11-11 9:33:20.5130,0.27,-0.28,0.02,0.38
2022-11-11 9:33:20.5280,0.1,-0.15,-0.05,0.18
2022-11-11 9:33:20.5290,-0.09,-0.01,-0.04,0.09
2022-11-11 9:33:20.5440,-0.23,0.12,0.18,0.31
2022-11-11 9:33:20.5450,-0.27,0.16,0.43,0.53
2022-11-11 9:33:20.5750,-0.13,0.05,0.52,0.53
2022-11-11 9:33:20.5760,0.01,-0.1,0.37,0.38
2022-11-11 9:33:20.5960,0.08,-0.21,0.16,0.27
2022-11-11 9:33:20.5970,0.07,-0.27,0.04,0.28
2022-11-11 9:33:20.6120,0.01,-0.34,0.01,0.34
2022-11-11 9:33:20.6130,0.0,-0.4,-0.03,0.4
2022-11-11 9:33:20.6280,0.02,-0.42,-0.04,0.42
2022-11-11 9:33:20.6290,0.02,-0.41,-0.09,0.42
2022-11-11 9:33:20.6440,0.01,-0.34,-0.11,0.35
2022-11-11 9:33:20.6450,-0.04,-0.21,-0.18,0.27
2022-11-11 9:33:20.6750,-0.11,-0.1,-0.3,0.33
2022-11-11 9:33:20.6760,-0.16,-0.02,-0.3,0.34
2022-11-11 9:33:20.6960,-0.14,0.05,-0.1,0.17
2022-11-11 9:33:20.6970,-0.11,0.04,0.03,0.12
2022-11-11 9:33:20.7120,-0.11,-0.02,0.07,0.13
2022-11-11 9:33:20.7130,-0.13,-0.04,0.11,0.17
2022-11-11 9:33:20.7280,-0.19,-0.02,0.12,0.22
2022-11-11 9:33:20.7290,-0.25,0.08,0.14,0.29
2022-11-11 9:33:20.7440,-0.25,0.16,0.1,0.31
2022-11-11 9:33:20.7450,-0.22,0.21,0.15,0.33
2022-11-11 9:33:20.7750,-0.18,0.2,0.19,0.32
2022-11-11 9:33:20.7760,-0.15,0.14,0.15,0.25
2022-11-11 9:33:20.7960,-0.13,0.06,0.05,0.15
2022-11-11 9:33:20.7970,-0.1,-0.02,-0.03,0.1
2022-11-11 9:33:20.8120,-0.11,-0.13,-0.04,0.17
2022-11-11 9:33:20.8130,-0.2,-0.22,0.0,0.29
2022-11-11 9:33:20.8280,-0.25,-0.25,0.01,0.35
2022-11-11 9:33:20.8290,-0.17,-0.21,-0.01,0.27
2022-11-11 9:33:20.8440,-0.06,-0.13,0.03,0.14
2022-11-11 9:33:20.8450,0.05,-0.06,0.09,0.11
2022-11-11 9:33:20.8760,0.12,-0.01,0.06,0.13
2022-11-11 9:33:20.8770,0.17,0.03,-0.05,0.17
2022-11-11 9:33:20.8960,0.2,0.0,-0.18,0.26
2022-11-11 9:33:20.8970,0.2,-0.04,-0.3,0.36
2022-11-11 9:33:20.9110,0.2,-0.04,-0.45,0.49
2022-11-11 9:33:20.9120,0.18,0.02,-0.57,0.59
2022-11-11 9:33:20.9280,0.14,0.07,-0.5,0.52
2022-11-11 9:33:20.9290,0.09,0.09,-0.23,0.26
2022-11-11 9:33:20.9440,0.08,0.07,-0.04,0.11
2022-11-11 9:33:20.9450,0.1,0.05,0.06,0.12
2022-11-11 9:33:20.9750,0.09,0.04,0.13,0.16
2022-11-11 9:33:20.9760,0.03,0.04,0.18,0.18
2022-11-11 9:33:20.9960,-0.05,0.03,0.18,0.18
2022-11-11 9:33:20.9970,-0.13,0.01,0.17,0.21
2022-11-11 9:33:21.0120,-0.17,-0.02,0.14,0.22
2022-11-11 9:33:21.0130,-0.25,-0.07,0.06,0.26
2022-11-11 9:33:21.0270,-0.36,-0.1,0.03,0.37
2022-11-11 9:33:21.0280,-0.47,-0.09,0.07,0.48
2022-11-11 9:33:21.0450,-0.55,-0.02,0.13,0.56
2022-11-11 9:33:21.0460,-0.56,0.05,0.15,0.58
2022-11-11 9:33:21.0760,-0.57,0.07,0.02,0.57
2022-11-11 9:33:21.0770,-0.63,0.03,-0.11,0.64
2022-11-11 9:33:21.0970,-0.67,0.05,-0.21,0.7
2022-11-11 9:33:21.0980,-0.65,0.08,-0.32,0.72
2022-11-11 9:33:21.1120,-0.54,0.09,-0.4,0.67
2022-11-11 9:33:21.1130,-0.48,0.08,-0.49,0.69
2022-11-11 9:33:21.1270,-0.49,0.07,-0.55,0.73
2022-11-11 9:33:21.1280,-0.49,0.07,-0.55,0.73
2022-11-11 9:33:21.1290,-0.47,0.08,-0.53,0.71
2022-11-11 9:33:21.1440,-0.49,0.12,-0.45,0.67
2022-11-11 9:33:21.1750,-0.5,0.22,-0.37,0.65
2022-11-11 9:33:21.1760,-0.46,0.29,-0.25,0.59
2022-11-11 9:33:21.1970,-0.39,0.22,-0.14,0.46
2022-11-11 9:33:21.1980,-0.63,0.4,-0.19,0.77
2022-11-11 9:33:21.2120,-0.47,0.52,-0.2,0.72
2022-11-11 9:33:21.2130,-0.18,0.36,-0.15,0.42
2022-11-11 9:33:21.2280,-0.09,0.07,-0.05,0.12
2022-11-11 9:33:21.2290,-0.19,-0.09,-0.06,0.21
2022-11-11 9:33:21.2440,-0.3,-0.05,-0.09,0.31
2022-11-11 9:33:21.2450,-0.37,0.1,0.02,0.38
2022-11-11 9:33:21.2760,-0.46,0.27,0.18,0.56
2022-11-11 9:33:21.2770,-0.58,0.4,0.27,0.75
2022-11-11 9:33:21.2960,-0.65,0.41,0.24,0.8
2022-11-11 9:33:21.2970,-0.67,0.3,0.13,0.74
2022-11-11 9:33:21.3120,-0.67,0.09,0.07,0.67
2022-11-11 9:33:21.3130,-0.72,-0.16,0.03,0.73
2022-11-11 9:33:21.3280,-0.69,-0.3,0.12,0.76
2022-11-11 9:33:21.3290,-0.62,-0.35,0.32,0.78
2022-11-11 9:33:21.3440,-0.65,-0.38,0.45,0.87
2022-11-11 9:33:21.3450,-0.7,-0.37,0.63,1.01
2022-11-11 9:33:21.3760,-0.74,-0.25,0.79,1.11
2022-11-11 9:33:21.3770,-0.81,-0.04,0.81,1.14
2022-11-11 9:33:21.3960,-0.77,0.11,0.89,1.18
2022-11-11 9:33:21.3970,-0.64,-0.01,1.31,1.45
2022-11-11 9:33:21.4120,-0.53,-0.29,1.93,2.02
2022-11-11 9:33:21.4130,-0.45,-0.52,2.41,2.5
2022-11-11 9:33:21.4280,-0.37,-0.64,2.53,2.63
2022-11-11 9:33:21.4290,-0.35,-0.68,2.24,2.36
2022-11-11 9:33:21.4440,-0.44,-0.65,1.66,1.83
2022-11-11 9:33:21.4450,-0.5,-0.54,0.91,1.17
2022-11-11 9:33:21.4750,-0.57,-0.44,0.25,0.76
2022-11-11 9:33:21.4760,-0.66,-0.38,-0.18,0.78
2022-11-11 9:33:21.4970,-0.73,-0.36,-0.48,0.94
2022-11-11 9:33:21.4970,-0.78,-0.33,-0.73,1.11
2022-11-11 9:33:21.5120,-0.82,-0.27,-0.84,1.2
2022-11-11 9:33:21.5130,-0.8,-0.16,-0.83,1.16
2022-11-11 9:33:21.5280,-0.78,0.0,-0.79,1.11
2022-11-11 9:33:21.5290,-0.66,0.13,-0.81,1.05
2022-11-11 9:33:21.5440,-0.52,0.2,-0.93,1.08
2022-11-11 9:33:21.5450,-0.38,0.24,-1.05,1.14
2022-11-11 9:33:21.5750,-0.28,0.21,-1.06,1.11
2022-11-11 9:33:21.5760,-0.18,0.11,-0.88,0.9
2022-11-11 9:33:21.5960,-0.05,0.0,-0.68,0.68
2022-11-11 9:33:21.5970,0.11,-0.05,-0.44,0.45
2022-11-11 9:33:21.6120,0.24,-0.07,-0.23,0.33
2022-11-11 9:33:21.6130,0.22,-0.09,-0.14,0.27
2022-11-11 9:33:21.6280,0.14,-0.08,-0.09,0.18
2022-11-11 9:33:21.6290,0.06,-0.13,0.15,0.2
2022-11-11 9:33:21.6440,-0.09,-0.21,0.5,0.54
2022-11-11 9:33:21.6450,-0.14,-0.17,0.71,0.74
2022-11-11 9:33:21.6740,0.0,-0.02,0.71,0.71
2022-11-11 9:33:21.6750,0.19,0.08,0.54,0.57
2022-11-11 9:33:21.6960,0.32,0.12,0.2,0.39
2022-11-11 9:33:21.6970,0.49,0.06,-0.17,0.52
2022-11-11 9:33:21.7120,0.62,-0.03,-0.43,0.75
2022-11-11 9:33:21.7130,0.8,-0.09,-0.67,1.04
2022-11-11 9:33:21.7280,0.96,-0.16,-0.82,1.27
2022-11-11 9:33:21.7290,0.91,-0.31,-0.69,1.18
2022-11-11 9:33:21.7440,0.73,-0.68,-0.33,1.05
2022-11-11 9:33:21.7450,0.2,-0.57,-0.32,0.68
2022-11-11 9:33:21.7740,-0.1,0.15,-0.37,0.41
2022-11-11 9:33:21.7750,0.03,0.2,-0.33,0.38
2022-11-11 9:33:21.7960,0.18,0.06,-0.5,0.53
2022-11-11 9:33:21.7970,0.07,0.0,-0.77,0.77
2022-11-11 9:33:21.8120,-0.04,0.0,-0.84,0.84
2022-11-11 9:33:21.8130,-0.09,0.07,-0.86,0.86
2022-11-11 9:33:21.8280,-0.08,0.17,-0.85,0.87
2022-11-11 9:33:21.8280,0.0,0.21,-0.73,0.75
2022-11-11 9:33:21.8450,0.11,0.17,-0.61,0.64
2022-11-11 9:33:21.8460,0.17,0.03,-0.5,0.52
2022-11-11 9:33:21.8750,0.07,-0.17,-0.38,0.42
2022-11-11 9:33:21.8750,-0.13,-0.32,-0.11,0.36
2022-11-11 9:33:21.8960,-0.43,-0.43,0.3,0.67
2022-11-11 9:33:21.8970,-0.85,-0.38,0.42,1.02
2022-11-11 9:33:21.9120,-1.09,-0.03,0.28,1.12
2022-11-11 9:33:21.9130,-0.96,0.45,0.06,1.06
2022-11-11 9:33:21.9280,-0.62,0.82,-0.09,1.03
2022-11-11 9:33:21.9290,-0.3,1.05,-0.01,1.09
2022-11-11 9:33:21.9450,-0.13,0.96,-0.17,0.98
2022-11-11 9:33:21.9450,-0.08,0.71,-0.44,0.83
2022-11-11 9:33:21.9750,0.05,0.55,-0.22,0.59
2022-11-11 9:33:21.9760,0.04,0.39,0.24,0.45
2022-11-11 9:33:21.9960,0.5,0.43,0.02,0.65
2022-11-11 9:33:21.9970,0.59,0.4,-0.84,1.1
2022-11-11 9:33:22.0130,0.24,0.37,-1.06,1.14
2022-11-11 9:33:22.0130,0.3,0.53,-0.92,1.1
2022-11-11 9:33:22.0280,0.45,0.78,-0.72,1.15
2022-11-11 9:33:22.0290,0.42,0.86,-0.55,1.1
2022-11-11 9:33:22.0450,0.35,0.59,-0.3,0.74
2022-11-11 9:33:22.0450,0.25,0.1,0.05,0.27
2022-11-11 9:33:22.0750,0.33,-0.1,0.32,0.47
2022-11-11 9:33:22.0760,1.14,-0.36,1.17,1.67
2022-11-11 9:33:22.0960,1.21,-0.61,1.73,2.19
2022-11-11 9:33:22.0970,-0.45,-0.26,1.25,1.35
2022-11-11 9:33:22.1120,-1.37,-0.09,0.37,1.42
2022-11-11 9:33:22.1130,-1.16,0.02,0.04,1.16
2022-11-11 9:33:22.1280,-0.62,-0.19,0.52,0.83
2022-11-11 9:33:22.1290,0.06,-0.72,1.31,1.49
2022-11-11 9:33:22.1440,0.23,-1.23,1.85,2.23
2022-11-11 9:33:22.1450,0.09,-1.5,1.68,2.25
2022-11-11 9:33:22.1740,0.23,-1.43,1.1,1.81
2022-11-11 9:33:22.1750,0.52,-1.12,0.63,1.38
2022-11-11 9:33:22.1960,0.66,-0.83,0.5,1.17
2022-11-11 9:33:22.1970,0.55,-0.64,0.52,0.99
2022-11-11 9:33:22.2120,0.21,-0.55,0.31,0.66
2022-11-11 9:33:22.2130,-0.23,-0.65,-0.03,0.69
2022-11-11 9:33:22.2280,-0.13,-0.45,-0.17,0.49
2022-11-11 9:33:22.2290,-0.09,-0.32,-0.37,0.49
2022-11-11 9:33:22.2440,-0.13,-0.32,-0.6,0.69
2022-11-11 9:33:22.2450,0.09,-0.3,-0.64,0.71
2022-11-11 9:33:22.2750,0.34,-0.29,-0.59,0.74
2022-11-11 9:33:22.2760,0.49,-0.3,-0.61,0.83
2022-11-11 9:33:22.2960,0.57,-0.3,-0.5,0.81
2022-11-11 9:33:22.2970,0.66,-0.34,-0.41,0.84
2022-11-11 9:33:22.3120,0.76,-0.48,-0.42,0.99
2022-11-11 9:33:22.3120,0.73,-0.63,-0.38,1.03
2022-11-11 9:33:22.3280,0.59,-0.7,-0.39,0.99
2022-11-11 9:33:22.3290,0.37,-0.7,-0.4,0.88
2022-11-11 9:33:22.3440,0.37,-0.54,-0.33,0.73
2022-11-11 9:33:22.3450,0.47,-0.26,-0.21,0.57
2022-11-11 9:33:22.3750,0.49,-0.08,-0.05,0.49
2022-11-11 9:33:22.3760,0.55,0.03,-0.02,0.55
2022-11-11 9:33:22.3960,0.62,0.1,-0.02,0.62
2022-11-11 9:33:22.3970,0.57,0.09,0.07,0.58
2022-11-11 9:33:22.4120,0.51,0.06,0.01,0.51
2022-11-11 9:33:22.4130,0.55,0.03,-0.21,0.58
2022-11-11 9:33:22.4280,0.66,0.06,-0.42,0.78
2022-11-11 9:33:22.4290,0.73,0.13,-0.56,0.92
2022-11-11 9:33:22.4440,0.71,0.2,-0.31,0.8
2022-11-11 9:33:22.4450,0.65,0.37,0.41,0.85
2022-11-11 9:33:22.4750,0.68,0.6,0.56,1.06
2022-11-11 9:33:22.4760,0.65,0.61,0.16,0.9
2022-11-11 9:33:22.4970,0.47,0.31,-0.07,0.56
2022-11-11 9:33:22.4970,0.4,-0.02,-0.12,0.41
2022-11-11 9:33:22.5120,0.37,-0.29,-0.21,0.51
2022-11-11 9:33:22.5130,0.07,-0.36,0.45,0.58
2022-11-11 9:33:22.5280,-0.44,-0.18,2.08,2.13
2022-11-11 9:33:22.5290,-0.6,0.08,1.8,1.89
2022-11-11 9:33:22.5440,-0.24,0.32,0.91,0.99
2022-11-11 9:33:22.5450,0.02,0.37,0.27,0.45
2022-11-11 9:33:22.5760,0.2,0.28,-0.08,0.35
2022-11-11 9:33:22.5770,0.38,0.12,-0.22,0.45
2022-11-11 9:33:22.5970,0.4,-0.06,-0.34,0.52
2022-11-11 9:33:22.5980,0.31,-0.2,-0.37,0.52
2022-11-11 9:33:22.6120,0.12,-0.27,-0.11,0.31
2022-11-11 9:33:22.6130,-0.19,-0.26,0.27,0.42
2022-11-11 9:33:22.6270,-0.36,-0.22,0.42,0.59
2022-11-11 9:33:22.6280,-0.37,-0.18,0.52,0.66
2022-11-11 9:33:22.6440,-0.33,-0.07,0.54,0.63
2022-11-11 9:33:22.6450,-0.34,0.04,0.41,0.53
2022-11-11 9:33:22.6750,-0.33,0.11,0.24,0.42
2022-11-11 9:33:22.6760,-0.24,0.16,0.07,0.29
2022-11-11 9:33:22.6960,-0.15,0.21,0.06,0.26
2022-11-11 9:33:22.6970,-0.1,0.21,-0.16,0.28
2022-11-11 9:33:22.7120,-0.05,0.18,-0.37,0.41
2022-11-11 9:33:22.7130,0.08,0.14,-0.26,0.3
2022-11-11 9:33:22.7280,0.23,0.12,-0.16,0.3
2022-11-11 9:33:22.7290,0.28,0.1,-0.15,0.33
2022-11-11 9:33:22.7440,0.3,0.11,-0.25,0.4
2022-11-11 9:33:22.7450,0.29,0.15,-0.22,0.39
2022-11-11 9:33:22.7750,0.19,0.2,-0.15,0.31
2022-11-11 9:33:22.7760,0.02,0.34,-0.22,0.4
2022-11-11 9:33:22.7960,-0.02,0.52,-0.37,0.63
2022-11-11 9:33:22.7970,-0.18,0.53,-0.28,0.62
2022-11-11 9:33:22.8120,-0.4,0.45,-0.16,0.62
2022-11-11 9:33:22.8130,-0.29,0.46,-0.32,0.63
2022-11-11 9:33:22.8280,0.02,0.52,-0.43,0.67
2022-11-11 9:33:22.8290,0.41,0.54,-0.37,0.77
2022-11-11 9:33:22.8450,0.62,0.44,-0.44,0.87
2022-11-11 9:33:22.8460,0.76,0.43,-0.62,1.07
2022-11-11 9:33:22.8760,0.74,0.23,-0.2,0.8
2022-11-11 9:33:22.8770,0.25,0.32,-0.47,0.62
2022-11-11 9:33:22.8970,-0.38,0.58,-0.85,1.09
2022-11-11 9:33:22.8970,-0.7,1.1,-0.83,1.54
2022-11-11 9:33:22.9120,-0.51,1.81,-0.47,1.93
2022-11-11 9:33:22.9130,-0.47,2.07,-0.27,2.13
2022-11-11 9:33:22.9280,-0.4,1.89,-0.55,2.0
2022-11-11 9:33:22.9290,-0.08,1.49,-0.88,1.73
2022-11-11 9:33:22.9440,0.36,1.15,-1.2,1.7
2022-11-11 9:33:22.9450,0.39,0.65,-1.58,1.75
2022-11-11 9:33:22.9760,0.21,0.18,-1.4,1.42
2022-11-11 9:33:22.9770,0.3,-0.08,-0.98,1.02
2022-11-11 9:33:22.9960,0.37,-0.28,-0.7,0.83
2022-11-11 9:33:22.9970,0.34,-0.43,-0.54,0.76
2022-11-11 9:33:23.0120,0.25,-1.06,-0.26,1.11
2022-11-11 9:33:23.0130,0.26,-1.88,0.15,1.9
2022-11-11 9:33:23.0280,0.44,-2.56,0.25,2.6
2022-11-11 9:33:23.0290,0.58,-2.96,0.24,3.02
2022-11-11 9:33:23.0450,0.74,-2.91,0.54,3.05
2022-11-11 9:33:23.0450,0.9,-2.52,1.19,2.92
2022-11-11 9:33:23.0760,0.93,-1.76,1.71,2.62
2022-11-11 9:33:23.0770,0.83,-0.81,1.88,2.2
2022-11-11 9:33:23.0960,0.79,-0.08,1.67,1.84
2022-11-11 9:33:23.0970,0.83,0.23,1.07,1.37
2022-11-11 9:33:23.1120,0.85,0.39,0.25,0.96
2022-11-11 9:33:23.1120,0.68,0.74,-0.38,1.07
2022-11-11 9:33:23.1280,0.39,1.29,-0.91,1.62
2022-11-11 9:33:23.1290,0.36,1.71,-1.47,2.28
2022-11-11 9:33:23.1440,0.6,2.11,-1.69,2.76
2022-11-11 9:33:23.1450,0.95,2.44,-1.59,3.06
2022-11-11 9:33:23.1740,1.15,2.53,-1.19,3.02
2022-11-11 9:33:23.1750,1.1,2.38,-0.62,2.69
2022-11-11 9:33:23.1960,0.95,2.0,-0.06,2.21
2022-11-11 9:33:23.1970,0.74,1.6,0.15,1.76
2022-11-11 9:33:23.2120,0.75,1.28,0.18,1.49
2022-11-11 9:33:23.2130,0.93,0.85,0.48,1.34
2022-11-11 9:33:23.2280,0.84,0.28,0.6,1.06
2022-11-11 9:33:23.2290,0.53,-0.32,0.64,0.89
2022-11-11 9:33:23.2440,-0.21,-1.01,1.03,1.45
2022-11-11 9:33:23.2450,-0.75,-1.75,1.28,2.29
2022-11-11 9:33:23.2750,-0.81,-2.36,1.19,2.76
2022-11-11 9:33:23.2760,-0.49,-2.64,0.88,2.82
2022-11-11 9:33:23.2960,0.0,-2.54,0.81,2.66
2022-11-11 9:33:23.2970,0.41,-2.07,0.59,2.19
2022-11-11 9:33:23.3120,0.67,-1.33,0.05,1.49
2022-11-11 9:33:23.3130,0.62,-0.3,-0.31,0.75
2022-11-11 9:33:23.3280,0.48,0.75,-0.52,1.03
2022-11-11 9:33:23.3290,0.65,1.41,-0.49,1.62
2022-11-11 9:33:23.3440,0.78,1.65,-0.31,1.85
2022-11-11 9:33:23.3450,0.58,1.65,-0.02,1.74
2022-11-11 9:33:23.3750,0.18,1.36,0.52,1.46
2022-11-11 9:33:23.3750,-0.49,0.52,1.49,1.65
2022-11-11 9:33:23.3960,-1.2,-0.72,2.13,2.54
2022-11-11 9:33:23.3970,-1.46,-1.68,1.98,2.97
2022-11-11 9:33:23.4120,-1.06,-2.0,1.49,2.7
2022-11-11 9:33:23.4130,-0.4,-1.89,1.05,2.19
2022-11-11 9:33:23.4280,0.08,-1.56,0.7,1.71
2022-11-11 9:33:23.4280,0.3,-1.08,0.44,1.2
2022-11-11 9:33:23.4440,0.47,-0.58,0.29,0.8
2022-11-11 9:33:23.4450,0.46,-0.31,-0.02,0.55
2022-11-11 9:33:23.4740,0.29,-0.28,-0.54,0.67
2022-11-11 9:33:23.4750,0.18,-0.38,-1.08,1.15
2022-11-11 9:33:23.4960,0.14,-0.51,-1.38,1.47
2022-11-11 9:33:23.4970,0.19,-0.72,-1.34,1.53
2022-11-11 9:33:23.5120,0.17,-1.11,-1.15,1.6
2022-11-11 9:33:23.5130,0.06,-1.46,-0.83,1.68
2022-11-11 9:33:23.5280,-0.01,-1.58,-0.44,1.64
2022-11-11 9:33:23.5290,-0.05,-1.41,-0.2,1.42
2022-11-11 9:33:23.5440,-0.2,-0.89,0.17,0.92
2022-11-11 9:33:23.5450,-0.27,-0.16,0.64,0.71
2022-11-11 9:33:23.5740,-0.03,0.36,0.34,0.49
2022-11-11 9:33:23.5750,0.09,0.58,0.06,0.59
2022-11-11 9:33:23.5960,0.17,0.42,-0.07,0.45
2022-11-11 9:33:23.5970,0.29,0.23,-0.47,0.59
2022-11-11 9:33:23.6120,0.27,-0.04,-0.89,0.93
2022-11-11 9:33:23.6130,0.31,-0.2,-1.17,1.22
2022-11-11 9:33:23.6270,0.36,-0.31,-1.22,1.3
2022-11-11 9:33:23.6280,0.21,-0.71,-1.09,1.31
2022-11-11 9:33:23.6440,0.38,-1.04,-0.4,1.17
2022-11-11 9:33:23.6460,0.68,-1.03,0.4,1.29
2022-11-11 9:33:23.6730,0.73,-0.7,0.34,1.06
2022-11-11 9:33:23.6740,0.97,0.02,-0.37,1.03
2022-11-11 9:33:23.6760,1.32,0.61,-0.85,1.68
2022-11-11 9:33:23.6940,1.53,1.07,-0.68,1.98
2022-11-11 9:33:23.6950,1.56,1.09,-0.3,1.92
2022-11-11 9:33:23.7110,1.31,0.64,0.48,1.53
2022-11-11 9:33:23.7120,0.87,-0.23,1.12,1.43
2022-11-11 9:33:23.7260,0.54,-0.57,1.69,1.86
2022-11-11 9:33:23.7270,-0.07,-0.94,1.74,1.97
2022-11-11 9:33:23.7440,-0.57,-1.14,1.47,1.94
2022-11-11 9:33:23.7700,-0.89,-0.97,1.37,1.89
2022-11-11 9:33:23.7710,-1.22,-0.86,0.5,1.57
2022-11-11 9:33:23.7790,-1.21,-0.42,-0.01,1.28
2022-11-11 9:33:23.7800,-0.75,0.08,0.16,0.77
2022-11-11 9:33:23.7950,-0.53,-0.31,0.26,0.66
2022-11-11 9:33:23.7960,-0.78,-0.68,0.43,1.12
2022-11-11 9:33:23.8110,-0.82,0.14,0.77,1.13
2022-11-11 9:33:23.8120,-0.91,0.95,0.77,1.52
2022-11-11 9:33:23.8280,-0.82,1.42,0.42,1.69
2022-11-11 9:33:23.8280,-0.82,1.52,-0.03,1.72
2022-11-11 9:33:23.8560,-0.88,1.25,0.0,1.52
2022-11-11 9:33:23.8570,-0.94,0.7,0.2,1.18
2022-11-11 9:33:23.8610,-0.99,0.18,0.24,1.03
2022-11-11 9:33:23.8760,-1.15,-0.11,0.14,1.16
2022-11-11 9:33:23.8770,-1.39,-0.23,-0.03,1.4
2022-11-11 9:33:23.8940,-1.14,-0.09,-0.21,1.16
2022-11-11 9:33:23.8950,-0.26,0.32,-0.36,0.54
2022-11-11 9:33:23.9110,0.08,0.58,-0.53,0.78
2022-11-11 9:33:23.9120,-0.28,0.71,-0.43,0.87
2022-11-11 9:33:23.9280,-0.92,0.59,-0.07,1.09
2022-11-11 9:33:23.9540,-1.33,0.41,0.1,1.39
2022-11-11 9:33:23.9550,-1.15,0.34,0.15,1.2
2022-11-11 9:33:23.9620,-0.55,0.21,0.4,0.71
2022-11-11 9:33:23.9630,-0.11,-0.13,0.88,0.89
2022-11-11 9:33:23.9760,0.13,-0.42,1.06,1.14
2022-11-11 9:33:23.9770,-0.03,-0.6,0.32,0.68
2022-11-11 9:33:23.9940,-0.64,-0.85,-0.76,1.3
2022-11-11 9:33:23.9950,-0.51,-0.52,-1.05,1.27
2022-11-11 9:33:24.0110,-0.46,0.13,0.1,0.48
2022-11-11 9:33:24.0120,-1.33,0.25,1.67,2.14
2022-11-11 9:33:24.0380,-1.69,0.02,1.82,2.48
2022-11-11 9:33:24.0390,-1.51,-0.22,1.13,1.89
2022-11-11 9:33:24.0450,-0.94,-0.21,0.46,1.06
2022-11-11 9:33:24.0460,-0.22,0.08,0.33,0.4
2022-11-11 9:33:24.0620,0.11,0.1,0.65,0.66
2022-11-11 9:33:24.0620,-0.39,0.11,-0.12,0.42
2022-11-11 9:33:24.0780,-0.76,0.25,-0.86,1.17
2022-11-11 9:33:24.0790,-0.31,0.58,-0.79,1.02
2022-11-11 9:33:24.0940,0.9,1.1,-0.8,1.63
2022-11-11 9:33:24.0950,2.02,1.51,-0.84,2.65
2022-11-11 9:33:24.1220,2.11,1.37,-0.86,2.65
2022-11-11 9:33:24.1230,1.18,0.62,-0.67,1.49
2022-11-11 9:33:24.1260,0.23,-0.09,-0.52,0.57
2022-11-11 9:33:24.1270,0.02,-0.59,-0.79,0.98
2022-11-11 9:33:24.1450,0.17,-1.15,-0.89,1.46
2022-11-11 9:33:24.1460,0.05,-1.5,-0.6,1.61
2022-11-11 9:33:24.1610,0.1,-1.3,-0.32,1.34
2022-11-11 9:33:24.1620,0.32,-0.87,-0.14,0.93
2022-11-11 9:33:24.1780,0.48,-0.58,-0.49,0.89
2022-11-11 9:33:24.1790,0.4,-0.57,-0.7,0.98
2022-11-11 9:33:24.2050,0.23,-0.52,-0.48,0.74
2022-11-11 9:33:24.2060,0.17,-0.33,-0.41,0.55
2022-11-11 9:33:24.2120,0.22,-0.12,-0.56,0.61
2022-11-11 9:33:24.2120,0.29,-0.01,-0.6,0.66
2022-11-11 9:33:24.2280,0.41,0.03,-0.52,0.66
2022-11-11 9:33:24.2290,0.53,0.15,-0.09,0.55
2022-11-11 9:33:24.2440,0.58,0.28,0.26,0.69
2022-11-11 9:33:24.2450,0.48,0.2,0.04,0.52
2022-11-11 9:33:24.2610,0.22,0.03,-0.16,0.27
2022-11-11 9:33:24.2610,0.05,-0.04,-0.28,0.28
2022-11-11 9:33:24.2880,0.01,-0.11,-0.26,0.28
2022-11-11 9:33:24.2890,-0.01,-0.22,-0.18,0.28
2022-11-11 9:33:24.2920,-0.01,-0.11,-0.12,0.16
2022-11-11 9:33:24.2930,-0.11,-0.07,-0.07,0.14
2022-11-11 9:33:24.3110,-0.02,-0.09,-0.11,0.14
2022-11-11 9:33:24.3120,0.09,-0.07,0.04,0.12
2022-11-11 9:33:24.3280,0.14,0.11,0.17,0.24
2022-11-11 9:33:24.3280,0.08,0.16,0.23,0.29
2022-11-11 9:33:24.3440,-0.01,0.17,0.01,0.17
2022-11-11 9:33:24.3450,-0.32,0.23,0.35,0.52
2022-11-11 9:33:24.3730,-0.53,0.18,0.23,0.6
2022-11-11 9:33:24.3740,-0.54,0.02,-0.15,0.56
2022-11-11 9:33:24.3760,-0.58,-0.22,-0.07,0.62
2022-11-11 9:33:24.3950,-0.62,-0.42,0.09,0.75
2022-11-11 9:33:24.3960,-0.71,-0.54,0.15,0.9
2022-11-11 9:33:24.4110,-0.61,-0.38,0.2,0.74
2022-11-11 9:33:24.4120,-0.35,0.1,0.37,0.51
2022-11-11 9:33:24.4270,-0.06,0.57,0.47,0.74
2022-11-11 9:33:24.4280,0.15,0.87,0.17,0.89
2022-11-11 9:33:24.4440,0.03,0.89,0.61,1.07
2022-11-11 9:33:24.4740,-0.11,0.6,0.45,0.75
2022-11-11 9:33:24.4750,-0.19,0.24,0.33,0.45
2022-11-11 9:33:24.4960,-0.27,-0.04,0.0,0.27
2022-11-11 9:33:24.4970,-0.42,-0.14,-0.15,0.46
2022-11-11 9:33:24.5120,-0.41,0.01,-0.16,0.44
2022-11-11 9:33:24.5130,-0.28,0.18,-0.45,0.55
2022-11-11 9:33:24.5280,-0.33,0.0,-0.31,0.45
2022-11-11 9:33:24.5280,-0.12,0.1,-0.41,0.43
2022-11-11 9:33:24.5440,0.2,0.43,-0.45,0.65
2022-11-11 9:33:24.5450,0.19,0.36,0.06,0.41
2022-11-11 9:33:24.5740,0.44,0.27,-0.25,0.57
2022-11-11 9:33:24.5750,0.62,0.36,-0.03,0.71
2022-11-11 9:33:24.5960,0.38,0.45,0.04,0.59
2022-11-11 9:33:24.5970,0.27,0.47,-0.06,0.54
2022-11-11 9:33:24.6120,0.08,0.45,0.05,0.45
2022-11-11 9:33:24.6130,0.02,0.45,-0.02,0.45
2022-11-11 9:33:24.6270,0.03,0.32,0.23,0.39
2022-11-11 9:33:24.6280,-0.01,0.13,0.26,0.29
2022-11-11 9:33:24.6440,0.04,0.06,0.15,0.16
2022-11-11 9:33:24.6450,0.25,0.12,-0.06,0.28
2022-11-11 9:33:24.6740,0.34,0.07,-0.33,0.47
2022-11-11 9:33:24.6750,0.37,0.09,-0.45,0.58
2022-11-11 9:33:24.6960,0.28,0.11,-0.36,0.46
2022-11-11 9:33:24.6970,0.09,0.09,-0.35,0.37
2022-11-11 9:33:24.7120,-0.14,-0.16,-0.16,0.26
2022-11-11 9:33:24.7120,-0.05,-0.12,-0.37,0.39
2022-11-11 9:33:24.7280,-0.38,-0.54,-0.03,0.66
2022-11-11 9:33:24.7290,-0.55,-0.96,-0.45,1.19
2022-11-11 9:33:24.7440,-0.49,-0.88,-0.2,1.02
2022-11-11 9:33:24.7450,-0.49,-0.71,-0.11,0.86
2022-11-11 9:33:24.7740,-0.48,-0.54,-0.09,0.72
2022-11-11 9:33:24.7750,-0.07,-0.36,-0.09,0.37
2022-11-11 9:33:24.7960,0.26,-0.26,0.26,0.45
2022-11-11 9:33:24.7960,0.39,-0.34,0.11,0.52
2022-11-11 9:33:24.8120,0.68,0.12,0.09,0.69
2022-11-11 9:33:24.8130,0.68,0.37,0.39,0.86
2022-11-11 9:33:24.8270,0.39,0.37,0.05,0.53
2022-11-11 9:33:24.8280,0.03,0.42,0.09,0.43
2022-11-11 9:33:24.8440,-0.54,0.04,0.01,0.54
2022-11-11 9:33:24.8450,-0.79,-0.22,-0.05,0.82
2022-11-11 9:33:24.8740,-1.05,-0.66,0.09,1.24
2022-11-11 9:33:24.8750,-0.93,-0.91,0.15,1.3
2022-11-11 9:33:24.8940,-0.7,-0.87,0.42,1.19
2022-11-11 9:33:24.8950,-0.54,-0.6,0.45,0.92
2022-11-11 9:33:24.9120,-0.21,-0.17,0.34,0.43
2022-11-11 9:33:24.9120,-0.14,-0.08,0.62,0.64
2022-11-11 9:33:24.9280,-0.35,-0.21,0.54,0.67
2022-11-11 9:33:24.9290,-0.54,-0.22,0.53,0.78
2022-11-11 9:33:24.9450,-0.86,-0.03,0.45,0.97
2022-11-11 9:33:24.9460,-0.93,0.2,0.77,1.22
2022-11-11 9:33:24.9750,-0.57,0.22,0.87,1.06
2022-11-11 9:33:24.9760,-0.28,0.24,0.67,0.76
2022-11-11 9:33:24.9960,-0.11,0.28,0.48,0.56
2022-11-11 9:33:24.9970,-0.05,0.52,0.18,0.55
2022-11-11 9:33:25.0100,-0.06,0.56,0.31,0.64
2022-11-11 9:33:25.0110,-0.28,0.23,-0.03,0.36
2022-11-11 9:33:25.0280,-0.28,0.1,0.14,0.32
2022-11-11 9:33:25.0290,0.01,-0.16,0.15,0.21
2022-11-11 9:33:25.0440,0.08,-0.4,0.16,0.43
2022-11-11 9:33:25.0450,0.09,-0.44,0.12,0.46
2022-11-11 9:33:25.0750,0.09,-0.29,0.22,0.37
2022-11-11 9:33:25.0760,0.04,-0.13,0.04,0.14
2022-11-11 9:33:25.0960,0.05,0.02,-0.02,0.05
2022-11-11 9:33:25.0960,0.03,0.2,0.11,0.23
2022-11-11 9:33:25.1120,-0.15,0.2,-0.05,0.25
2022-11-11 9:33:25.1130,-0.33,0.0,-0.02,0.33
2022-11-11 9:33:25.1280,-0.16,0.04,0.0,0.16
2022-11-11 9:33:25.1290,0.04,-0.04,-0.04,0.06
2022-11-11 9:33:25.1440,0.1,-0.29,-0.15,0.34
2022-11-11 9:33:25.1450,0.2,-0.29,-0.21,0.41
2022-11-11 9:33:25.1750,0.2,-0.04,-0.39,0.44
2022-11-11 9:33:25.1750,0.07,0.16,-0.27,0.32
2022-11-11 9:33:25.1960,0.09,-0.05,-0.47,0.48
2022-11-11 9:33:25.1970,0.11,-0.23,-0.73,0.77
2022-11-11 9:33:25.2120,0.8,-0.38,-0.72,1.14
2022-11-11 9:33:25.2130,1.84,-1.18,-0.84,2.34
2022-11-11 9:33:25.2280,1.48,-0.94,-0.88,1.96
2022-11-11 9:33:25.2290,-0.13,-0.36,-0.64,0.74
2022-11-11 9:33:25.2440,-0.34,-0.63,-0.39,0.81
2022-11-11 9:33:25.2450,-0.8,-0.71,-0.28,1.1
2022-11-11 9:33:25.2740,-1.0,-0.65,-0.13,1.19
2022-11-11 9:33:25.2750,-0.84,-0.41,0.08,0.93
2022-11-11 9:33:25.2960,-0.36,0.18,0.34,0.52
2022-11-11 9:33:25.2970,0.26,0.74,0.81,1.12
2022-11-11 9:33:25.3120,0.9,0.6,1.0,1.47
2022-11-11 9:33:25.3130,1.12,0.54,1.0,1.59
2022-11-11 9:33:25.3270,1.15,0.85,0.96,1.72
2022-11-11 9:33:25.3280,0.88,0.91,0.85,1.52
2022-11-11 9:33:25.3440,0.63,0.86,0.77,1.31
2022-11-11 9:33:25.3450,0.45,0.89,0.61,1.16
2022-11-11 9:33:25.3750,0.34,0.87,0.52,1.06
2022-11-11 9:33:25.3750,0.47,0.89,0.39,1.07
2022-11-11 9:33:25.3960,0.77,0.6,-0.14,0.98
2022-11-11 9:33:25.3970,0.76,0.16,-0.88,1.17
2022-11-11 9:33:25.4120,0.19,-0.13,-1.8,1.81
2022-11-11 9:33:25.4120,-0.36,-0.91,-2.8,2.96
2022-11-11 9:33:25.4280,-0.14,-1.66,-3.2,3.6
2022-11-11 9:33:25.4280,0.89,-1.37,-2.65,3.11
2022-11-11 9:33:25.4440,1.56,-0.83,-1.36,2.22
2022-11-11 9:33:25.4450,1.11,-0.38,0.27,1.2
2022-11-11 9:33:25.4750,1.14,0.68,1.64,2.1
2022-11-11 9:33:25.4760,1.0,1.27,2.14,2.68
2022-11-11 9:33:25.4960,0.46,0.92,2.39,2.6
2022-11-11 9:33:25.4970,0.3,0.84,2.08,2.26
2022-11-11 9:33:25.5120,0.29,0.5,1.3,1.42
2022-11-11 9:33:25.5130,1.21,0.24,-0.32,1.27
2022-11-11 9:33:25.5280,1.11,2.26,-0.18,2.52
2022-11-11 9:33:25.5280,-2.7,3.37,-0.68,4.37
2022-11-11 9:33:25.5440,-1.29,0.11,-4.46,4.64
2022-11-11 9:33:25.5450,0.07,-2.41,-3.87,4.55
2022-11-11 9:33:25.5750,-0.13,-2.94,-3.45,4.53
2022-11-11 9:33:25.5760,-0.01,-1.82,-1.49,2.35
2022-11-11 9:33:25.5960,1.75,-0.97,0.17,2.0
2022-11-11 9:33:25.5970,1.93,-0.56,1.59,2.56
2022-11-11 9:33:25.6120,1.29,0.43,1.62,2.11
2022-11-11 9:33:25.6120,0.43,1.26,1.55,2.04
2022-11-11 9:33:25.6280,-0.85,1.29,1.22,1.96
2022-11-11 9:33:25.6290,-1.64,1.05,0.82,2.11
2022-11-11 9:33:25.6440,-1.83,1.13,0.44,2.19
2022-11-11 9:33:25.6450,-1.86,1.06,0.06,2.14
2022-11-11 9:33:25.6770,-2.02,0.49,0.76,2.21
2022-11-11 9:33:25.6770,-1.61,0.42,1.54,2.26
2022-11-11 9:33:25.6960,-0.68,0.72,1.79,2.04
2022-11-11 9:33:25.6970,0.12,1.38,1.76,2.23
2022-11-11 9:33:25.7120,0.32,2.98,0.29,3.01
2022-11-11 9:33:25.7120,-0.47,3.1,2.18,3.81
2022-11-11 9:33:25.7280,-1.23,2.49,2.13,3.49
2022-11-11 9:33:25.7280,-1.41,1.61,0.26,2.15
2022-11-11 9:33:25.7440,-1.41,0.7,-0.13,1.57
2022-11-11 9:33:25.7450,-1.66,0.05,0.04,1.66
2022-11-11 9:33:25.7760,-2.05,0.01,0.21,2.06
2022-11-11 9:33:25.7770,-1.85,0.71,-0.02,1.98
2022-11-11 9:33:25.7960,-1.17,1.67,-0.59,2.12
2022-11-11 9:33:25.7970,-0.71,2.61,-0.21,2.71
2022-11-11 9:33:25.8120,-0.34,2.54,0.54,2.61
2022-11-11 9:33:25.8130,-0.02,2.53,0.25,2.54
2022-11-11 9:33:25.8280,0.22,2.26,0.54,2.33
2022-11-11 9:33:25.8290,0.7,2.12,0.77,2.36
2022-11-11 9:33:25.8440,1.14,2.06,1.43,2.75
2022-11-11 9:33:25.8450,1.4,1.7,2.29,3.17
2022-11-11 9:33:25.8780,1.28,1.06,2.82,3.27
2022-11-11 9:33:25.8790,1.2,0.69,2.23,2.62
2022-11-11 9:33:25.8960,1.3,0.88,1.52,2.18
2022-11-11 9:33:25.8960,1.43,1.06,1.11,2.09
2022-11-11 9:33:25.9120,1.51,0.94,0.77,1.93
2022-11-11 9:33:25.9130,1.39,0.71,0.37,1.6
2022-11-11 9:33:25.9270,1.4,0.43,0.11,1.46
2022-11-11 9:33:25.9280,1.98,0.44,0.1,2.03
2022-11-11 9:33:25.9440,2.33,0.63,0.0,2.41
2022-11-11 9:33:25.9450,2.48,0.68,-0.38,2.59
2022-11-11 9:33:25.9780,2.44,0.48,-0.88,2.63
2022-11-11 9:33:25.9790,2.25,0.26,-1.04,2.49
2022-11-11 9:33:25.9970,1.89,0.02,-1.05,2.16
2022-11-11 9:33:25.9970,1.52,-0.44,-1.3,2.04
2022-11-11 9:33:26.0120,1.26,-1.0,-1.29,2.06
2022-11-11 9:33:26.0120,0.95,-1.69,-0.56,2.01
2022-11-11 9:33:26.0280,1.88,-1.87,-0.28,2.66
2022-11-11 9:33:26.0290,2.86,-1.59,-0.88,3.38
2022-11-11 9:33:26.0440,0.34,-2.51,-1.03,2.73
2022-11-11 9:33:26.0450,0.53,-2.8,-1.43,3.18
2022-11-11 9:33:26.0770,0.12,-3.13,-1.17,3.34
2022-11-11 9:33:26.0780,-0.42,-3.05,-1.1,3.26
2022-11-11 9:33:26.0960,-0.78,-2.87,-1.23,3.21
2022-11-11 9:33:26.0970,-1.02,-2.66,-1.52,3.22
2022-11-11 9:33:26.1120,-1.39,-2.57,-1.68,3.37
2022-11-11 9:33:26.1130,-1.83,-2.47,-1.52,3.42
2022-11-11 9:33:26.1270,-2.45,-2.59,-1.13,3.73
2022-11-11 9:33:26.1280,-3.15,-2.78,-0.76,4.26
2022-11-11 9:33:26.1440,-3.58,-2.69,0.02,4.47
2022-11-11 9:33:26.1450,-4.23,-2.36,0.37,4.85
2022-11-11 9:33:26.1770,-4.58,-1.9,-0.04,4.95
2022-11-11 9:33:26.1780,-4.31,-1.44,-0.38,4.56
2022-11-11 9:33:26.1960,-3.78,-1.07,-0.67,3.98
2022-11-11 9:33:26.1960,-3.22,-0.98,-0.91,3.48
2022-11-11 9:33:26.2120,-2.47,-0.87,-0.67,2.7
2022-11-11 9:33:26.2120,-1.86,-0.63,-0.32,1.98
2022-11-11 9:33:26.2280,-1.94,-0.66,-0.35,2.07
2022-11-11 9:33:26.2280,-2.41,-0.79,-0.73,2.63
2022-11-11 9:33:26.2440,-2.71,-0.76,-0.9,2.95
2022-11-11 9:33:26.2450,-2.27,-0.47,-0.93,2.49
2022-11-11 9:33:26.2750,-1.41,-0.17,-1.14,1.82
2022-11-11 9:33:26.2760,-0.46,-0.04,-1.48,1.55
2022-11-11 9:33:26.2960,0.17,0.22,-1.68,1.7
2022-11-11 9:33:26.2970,0.57,0.62,-1.67,1.87
2022-11-11 9:33:26.3120,0.99,1.18,-1.34,2.04
2022-11-11 9:33:26.3130,1.18,1.72,-0.54,2.15
2022-11-11 9:33:26.3270,1.09,2.31,0.42,2.58
2022-11-11 9:33:26.3280,1.13,2.99,1.31,3.45
2022-11-11 9:33:26.3440,1.27,3.44,1.85,4.1
2022-11-11 9:33:26.3450,1.07,3.51,2.41,4.39
2022-11-11 9:33:26.3780,0.6,3.34,2.99,4.52
2022-11-11 9:33:26.3790,0.15,3.05,3.26,4.46
2022-11-11 9:33:26.3960,0.09,2.38,4.25,4.87
2022-11-11 9:33:26.3970,-0.25,1.75,4.33,4.67
2022-11-11 9:33:26.4120,-1.16,1.39,2.43,3.03
2022-11-11 9:33:26.4120,-0.92,1.17,2.12,2.59
2022-11-11 9:33:26.4280,-0.53,1.15,1.4,1.88
2022-11-11 9:33:26.4280,-0.28,1.06,-0.1,1.1
2022-11-11 9:33:26.4440,-0.31,0.67,-0.93,1.18
2022-11-11 9:33:26.4450,-0.57,0.18,-0.36,0.69
2022-11-11 9:33:26.4760,-0.99,-0.21,0.63,1.19
2022-11-11 9:33:26.4760,-1.21,-0.27,1.79,2.17
2022-11-11 9:33:26.4960,-1.48,0.0,2.58,2.97
2022-11-11 9:33:26.4970,-1.79,0.33,2.74,3.28
2022-11-11 9:33:26.5120,-1.99,0.58,2.55,3.28
2022-11-11 9:33:26.5130,-2.01,0.64,2.17,3.02
2022-11-11 9:33:26.5280,-1.87,0.67,1.73,2.63
2022-11-11 9:33:26.5280,-1.4,0.75,1.48,2.17
2022-11-11 9:33:26.5440,-1.1,0.51,0.89,1.5
2022-11-11 9:33:26.5450,-1.02,-0.09,0.93,1.38
2022-11-11 9:33:26.5770,0.16,-0.42,2.5,2.54
2022-11-11 9:33:26.5770,2.24,-0.36,3.06,3.8
2022-11-11 9:33:26.5960,3.06,0.59,3.87,4.96
2022-11-11 9:33:26.5960,-0.04,0.14,2.56,2.56
2022-11-11 9:33:26.6120,-0.52,-0.38,1.08,1.25
2022-11-11 9:33:26.6130,-0.47,0.16,-0.03,0.49
2022-11-11 9:33:26.6280,-0.25,0.74,-0.96,1.23
2022-11-11 9:33:26.6280,-0.11,0.77,-1.27,1.48
2022-11-11 9:33:26.6440,-0.42,0.72,-1.06,1.34
2022-11-11 9:33:26.6450,-1.0,0.75,-1.17,1.71
2022-11-11 9:33:26.6750,-0.4,0.66,-0.91,1.19
2022-11-11 9:33:26.6760,-0.18,0.51,-0.71,0.89
2022-11-11 9:33:26.6960,-0.84,0.18,-1.1,1.39
2022-11-11 9:33:26.6960,-0.63,0.12,-1.03,1.21
2022-11-11 9:33:26.7110,0.28,0.0,-0.59,0.65
2022-11-11 9:33:26.7120,1.05,0.05,-0.32,1.09
2022-11-11 9:33:26.7260,1.35,0.09,0.03,1.35
2022-11-11 9:33:26.7270,0.77,-0.19,1.5,1.69
2022-11-11 9:33:26.7440,-0.11,-0.51,1.7,1.77
2022-11-11 9:33:26.7450,-0.43,-0.64,1.24,1.46
2022-11-11 9:33:26.7760,-0.4,-0.8,1.25,1.53
2022-11-11 9:33:26.7770,-0.3,-1.16,0.82,1.45
2022-11-11 9:33:26.7960,-0.4,-1.86,0.03,1.9
2022-11-11 9:33:26.7970,-0.8,-2.3,-0.87,2.58
2022-11-11 9:33:26.8120,-0.97,-2.57,-1.7,3.23
2022-11-11 9:33:26.8120,-0.81,-2.54,-1.8,3.21
2022-11-11 9:33:26.8280,-0.72,-2.28,-1.41,2.77
2022-11-11 9:33:26.8280,-0.74,-2.33,-0.89,2.6
2022-11-11 9:33:26.8440,-0.76,-2.55,-0.32,2.68
2022-11-11 9:33:26.8450,-0.69,-2.52,0.07,2.61
2022-11-11 9:33:26.8770,-0.5,-1.97,0.06,2.03
2022-11-11 9:33:26.8770,0.34,-1.02,-0.14,1.08
2022-11-11 9:33:26.8950,1.13,-0.18,-0.57,1.27
2022-11-11 9:33:26.8960,1.36,0.29,-0.88,1.64
2022-11-11 9:33:26.9110,1.39,0.32,-0.56,1.53
2022-11-11 9:33:26.9120,1.09,0.11,0.21,1.11
2022-11-11 9:33:26.9270,0.8,0.04,1.0,1.28
2022-11-11 9:33:26.9280,0.97,0.19,1.77,2.02
2022-11-11 9:33:26.9440,1.09,0.09,2.05,2.32
2022-11-11 9:33:26.9450,0.7,-0.38,1.79,1.95
2022-11-11 9:33:26.9760,0.38,-0.85,1.51,1.77
2022-11-11 9:33:26.9770,0.1,-1.09,1.58,1.92
2022-11-11 9:33:26.9960,-0.35,-1.07,1.48,1.85
2022-11-11 9:33:26.9970,-0.28,-0.69,0.86,1.13
2022-11-11 9:33:27.0120,0.01,-0.27,0.06,0.27
2022-11-11 9:33:27.0130,0.51,0.26,-0.57,0.8
2022-11-11 9:33:27.0280,1.07,0.51,-0.89,1.48
2022-11-11 9:33:27.0290,1.39,0.44,-0.98,1.75
2022-11-11 9:33:27.0440,1.26,0.15,-0.61,1.4
2022-11-11 9:33:27.0450,0.92,-0.29,0.0,0.96
2022-11-11 9:33:27.0760,0.7,-0.56,0.61,1.08
2022-11-11 9:33:27.0770,0.5,-0.6,1.06,1.31
2022-11-11 9:33:27.0960,0.28,-0.51,1.19,1.32
2022-11-11 9:33:27.0970,0.15,-0.33,1.04,1.1
2022-11-11 9:33:27.1120,0.18,0.2,0.37,0.45
2022-11-11 9:33:27.1120,0.31,0.59,-0.69,0.95
2022-11-11 9:33:27.1270,0.43,0.87,-1.08,1.45
2022-11-11 9:33:27.1280,0.68,0.96,-0.63,1.33
2022-11-11 9:33:27.1440,0.74,0.51,0.06,0.9
2022-11-11 9:33:27.1450,0.64,-0.1,0.68,0.93
2022-11-11 9:33:27.1760,0.47,-0.56,0.93,1.18
2022-11-11 9:33:27.1770,0.29,-0.8,0.8,1.16
2022-11-11 9:33:27.1960,0.16,-0.89,0.98,1.33
2022-11-11 9:33:27.1970,0.13,-0.69,1.16,1.35
2022-11-11 9:33:27.2120,-0.13,-0.5,0.92,1.05
2022-11-11 9:33:27.2120,-0.41,-0.15,0.51,0.67
2022-11-11 9:33:27.2280,-0.2,0.35,-0.15,0.43
2022-11-11 9:33:27.2290,0.04,0.53,-0.95,1.08
2022-11-11 9:33:27.2440,-0.03,0.36,-1.32,1.36
2022-11-11 9:33:27.2450,-0.11,0.08,-1.3,1.3
2022-11-11 9:33:27.2760,-0.07,-0.08,-1.0,1.0
2022-11-11 9:33:27.2770,-0.04,-0.14,-0.55,0.56
2022-11-11 9:33:27.2950,-0.2,-0.25,-0.04,0.32
2022-11-11 9:33:27.2960,-0.45,-0.38,0.31,0.66
2022-11-11 9:33:27.3120,-0.46,-0.44,0.38,0.74
2022-11-11 9:33:27.3130,-0.4,-0.5,0.35,0.72
2022-11-11 9:33:27.3270,-0.43,-0.52,0.22,0.7
2022-11-11 9:33:27.3280,-0.43,-0.44,-0.12,0.62
2022-11-11 9:33:27.3440,-0.65,-0.5,-0.23,0.85
2022-11-11 9:33:27.3450,-0.71,-0.28,0.31,0.82
2022-11-11 9:33:27.3780,-0.75,0.09,0.95,1.21
2022-11-11 9:33:27.3790,-0.91,0.3,1.3,1.61
2022-11-11 9:33:27.3960,-0.92,0.36,1.42,1.72
2022-11-11 9:33:27.3970,-0.86,0.3,1.3,1.58
2022-11-11 9:33:27.4110,-0.84,0.17,1.05,1.35
2022-11-11 9:33:27.4120,-0.93,0.22,0.87,1.29
2022-11-11 9:33:27.4270,-1.06,0.02,0.56,1.19
2022-11-11 9:33:27.4280,-1.11,0.03,0.29,1.14
2022-11-11 9:33:27.4440,-1.15,0.15,0.05,1.16
2022-11-11 9:33:27.4450,-1.25,0.36,-0.29,1.33
2022-11-11 9:33:27.4760,-1.25,0.65,-0.59,1.52
2022-11-11 9:33:27.4770,-1.23,0.87,-0.58,1.61
2022-11-11 9:33:27.4960,-1.19,0.89,-0.23,1.5
2022-11-11 9:33:27.4960,-1.1,0.62,0.33,1.3
2022-11-11 9:33:27.5110,-1.06,0.29,0.76,1.33
2022-11-11 9:33:27.5120,-0.94,0.16,0.77,1.22
2022-11-11 9:33:27.5270,-0.89,0.16,0.51,1.03
2022-11-11 9:33:27.5280,-0.83,0.2,0.23,0.88
2022-11-11 9:33:27.5440,-0.82,0.15,0.04,0.83
2022-11-11 9:33:27.5450,-0.81,-0.02,-0.13,0.82
2022-11-11 9:33:27.5780,-0.64,-0.17,-0.44,0.79
2022-11-11 9:33:27.5780,-0.52,-0.35,-0.76,0.98
2022-11-11 9:33:27.5960,-0.39,-0.48,-0.99,1.16
2022-11-11 9:33:27.5960,-0.29,-0.6,-0.98,1.18
2022-11-11 9:33:27.6120,-0.28,-0.71,-0.7,1.03
2022-11-11 9:33:27.6120,-0.26,-0.7,-0.34,0.82
2022-11-11 9:33:27.6270,-0.2,-0.61,-0.01,0.64
2022-11-11 9:33:27.6280,-0.13,-0.53,0.41,0.68
2022-11-11 9:33:27.6440,-0.08,-0.48,0.78,0.91
2022-11-11 9:33:27.6450,-0.05,-0.48,0.8,0.93
2022-11-11 9:33:27.6770,-0.05,-0.56,0.52,0.76
2022-11-11 9:33:27.6770,-0.19,-0.65,0.09,0.68
2022-11-11 9:33:27.6960,-0.19,-0.69,-0.31,0.77
2022-11-11 9:33:27.6970,-0.19,-0.73,-0.46,0.88
2022-11-11 9:33:27.7120,-0.24,-0.81,-0.36,0.91
2022-11-11 9:33:27.7120,-0.23,-0.9,-0.29,0.97
2022-11-11 9:33:27.7280,-0.21,-0.85,-0.39,0.95
2022-11-11 9:33:27.7280,-0.09,-0.68,-0.48,0.83
2022-11-11 9:33:27.7440,-0.11,-0.43,-0.47,0.64
2022-11-11 9:33:27.7450,-0.15,-0.23,-0.26,0.37
2022-11-11 9:33:27.7770,-0.13,-0.16,-0.01,0.2
2022-11-11 9:33:27.7780,-0.14,-0.17,0.3,0.37
2022-11-11 9:33:27.7960,-0.14,-0.18,0.59,0.63
2022-11-11 9:33:27.7960,-0.21,-0.26,0.54,0.63
2022-11-11 9:33:27.8110,-0.12,-0.2,0.2,0.3
2022-11-11 9:33:27.8120,0.09,-0.01,-0.08,0.12
2022-11-11 9:33:27.8270,0.14,0.1,-0.29,0.33
2022-11-11 9:33:27.8280,0.11,0.09,-0.36,0.38
2022-11-11 9:33:27.8440,0.01,0.04,-0.3,0.3
2022-11-11 9:33:27.8450,-0.08,-0.02,-0.35,0.35
2022-11-11 9:33:27.8770,-0.08,0.01,-0.27,0.28
2022-11-11 9:33:27.8770,-0.09,0.03,0.02,0.09
2022-11-11 9:33:27.8960,-0.05,0.01,0.29,0.29
2022-11-11 9:33:27.8960,0.0,-0.01,0.34,0.34
2022-11-11 9:33:27.9120,-0.02,-0.09,0.23,0.24
2022-11-11 9:33:27.9130,0.1,-0.08,0.09,0.15
2022-11-11 9:33:27.9270,0.1,-0.15,-0.14,0.22
2022-11-11 9:33:27.9280,0.11,-0.28,-0.36,0.46
2022-11-11 9:33:27.9440,0.08,-0.32,-0.48,0.58
2022-11-11 9:33:27.9450,0.21,-0.26,-0.36,0.49
2022-11-11 9:33:27.9770,0.25,-0.31,-0.11,0.41
2022-11-11 9:33:27.9780,0.27,-0.41,-0.06,0.49
2022-11-11 9:33:27.9960,0.29,-0.45,-0.15,0.55
2022-11-11 9:33:27.9960,0.26,-0.46,-0.24,0.58
2022-11-11 9:33:28.0110,0.23,-0.37,-0.15,0.46
2022-11-11 9:33:28.0120,0.13,-0.32,0.25,0.42
2022-11-11 9:33:28.0270,0.08,-0.27,0.64,0.69
2022-11-11 9:33:28.0280,0.1,-0.21,0.75,0.78
2022-11-11 9:33:28.0440,0.12,-0.15,0.56,0.59
2022-11-11 9:33:28.0450,0.11,-0.07,0.26,0.29
2022-11-11 9:33:28.0770,0.15,-0.01,0.01,0.15
2022-11-11 9:33:28.0770,0.18,0.04,-0.11,0.21
2022-11-11 9:33:28.0960,0.14,0.02,0.02,0.14
2022-11-11 9:33:28.0960,0.05,-0.03,0.14,0.15
2022-11-11 9:33:28.1120,0.08,0.01,0.15,0.17
2022-11-11 9:33:28.1120,0.16,0.09,0.17,0.25
2022-11-11 9:33:28.1270,0.14,0.03,0.19,0.23
2022-11-11 9:33:28.1280,0.04,-0.04,0.23,0.23
2022-11-11 9:33:28.1440,-0.02,0.11,0.21,0.23
2022-11-11 9:33:28.1450,-0.1,0.29,0.17,0.35
2022-11-11 9:33:28.1780,-0.17,0.38,0.12,0.43
2022-11-11 9:33:28.1790,-0.16,0.37,0.06,0.4
2022-11-11 9:33:28.1950,-0.18,0.23,0.07,0.3
2022-11-11 9:33:28.1960,-0.11,0.04,0.17,0.2
2022-11-11 9:33:28.2110,-0.08,-0.26,0.27,0.38
2022-11-11 9:33:28.2120,-0.05,-0.41,0.17,0.44
2022-11-11 9:33:28.2270,0.04,-0.31,-0.07,0.32
2022-11-11 9:33:28.2280,0.03,-0.22,-0.19,0.29
2022-11-11 9:33:28.2440,0.07,-0.11,-0.09,0.15
2022-11-11 9:33:28.2450,0.06,-0.07,0.09,0.12
2022-11-11 9:33:28.2760,0.0,-0.09,0.22,0.23
2022-11-11 9:33:28.2770,0.03,-0.04,0.17,0.17
2022-11-11 9:33:28.2950,0.03,-0.01,-0.06,0.06
2022-11-11 9:33:28.2960,-0.02,-0.15,-0.29,0.32
2022-11-11 9:33:28.3120,0.01,-0.25,-0.31,0.39
2022-11-11 9:33:28.3120,0.0,-0.26,-0.29,0.38
2022-11-11 9:33:28.3270,0.05,-0.19,-0.11,0.22
2022-11-11 9:33:28.3280,-0.03,-0.2,0.05,0.2
2022-11-11 9:33:28.3440,-0.08,-0.21,0.11,0.25
2022-11-11 9:33:28.3450,-0.12,-0.17,0.18,0.27
2022-11-11 9:33:28.3770,-0.17,-0.16,0.14,0.27
2022-11-11 9:33:28.3780,-0.12,-0.13,0.01,0.17
2022-11-11 9:33:28.3960,0.01,-0.09,0.11,0.14
2022-11-11 9:33:28.3960,-0.02,-0.19,0.22,0.29
2022-11-11 9:33:28.4110,-0.07,-0.23,0.21,0.31
2022-11-11 9:33:28.4120,-0.02,-0.07,0.19,0.2
2022-11-11 9:33:28.4270,-0.06,0.06,0.14,0.16
2022-11-11 9:33:28.4280,-0.12,0.07,0.15,0.2
2022-11-11 9:33:28.4440,-0.13,0.09,0.12,0.19
2022-11-11 9:33:28.4450,-0.05,0.11,0.01,0.12
2022-11-11 9:33:28.4760,-0.01,0.06,-0.02,0.06
2022-11-11 9:33:28.4770,-0.03,-0.08,0.07,0.11
2022-11-11 9:33:28.4960,-0.04,-0.12,0.12,0.17
2022-11-11 9:33:28.4960,-0.02,-0.08,0.07,0.1
2022-11-11 9:33:28.5120,-0.11,-0.17,0.13,0.24
2022-11-11 9:33:28.5120,-0.18,-0.18,0.16,0.3
2022-11-11 9:33:28.5270,-0.16,-0.01,0.03,0.16
2022-11-11 9:33:28.5280,-0.16,0.08,0.0,0.17
2022-11-11 9:33:28.5440,-0.15,0.03,0.11,0.18
2022-11-11 9:33:28.5450,-0.18,0.01,0.13,0.22
2022-11-11 9:33:28.5780,-0.17,0.05,0.01,0.17
2022-11-11 9:33:28.5780,-0.21,0.07,-0.12,0.25
2022-11-11 9:33:28.5950,-0.15,0.07,-0.23,0.28
2022-11-11 9:33:28.5960,-0.07,0.01,-0.16,0.17
2022-11-11 9:33:28.6110,-0.1,-0.13,-0.02,0.16
2022-11-11 9:33:28.6120,-0.12,-0.18,-0.02,0.21
2022-11-11 9:33:28.6270,-0.04,-0.1,-0.06,0.12
2022-11-11 9:33:28.6280,-0.03,-0.05,0.04,0.07
2022-11-11 9:33:28.6440,-0.08,-0.07,0.08,0.13
2022-11-11 9:33:28.6450,-0.04,0.0,0.06,0.07
2022-11-11 9:33:28.6770,-0.06,0.04,-0.06,0.09
2022-11-11 9:33:28.6780,-0.08,-0.03,-0.17,0.19
2022-11-11 9:33:28.6950,-0.11,-0.1,-0.19,0.24
2022-11-11 9:33:28.6960,-0.11,-0.14,-0.15,0.23
2022-11-11 9:33:28.7110,-0.09,-0.11,-0.04,0.14
2022-11-11 9:33:28.7120,-0.09,-0.08,0.06,0.13
2022-11-11 9:33:28.7270,-0.12,-0.05,0.13,0.18
2022-11-11 9:33:28.7280,-0.17,-0.03,0.15,0.22
2022-11-11 9:33:28.7440,-0.14,0.0,0.09,0.16
2022-11-11 9:33:28.7450,-0.08,-0.02,-0.01,0.08
2022-11-11 9:33:28.7780,-0.04,-0.15,-0.11,0.19
2022-11-11 9:33:28.7780,-0.03,-0.26,-0.2,0.32
2022-11-11 9:33:28.7960,0.02,-0.18,-0.23,0.29
2022-11-11 9:33:28.7970,0.05,-0.11,-0.19,0.22
2022-11-11 9:33:28.8110,0.01,-0.1,0.04,0.1
2022-11-11 9:33:28.8120,-0.06,-0.08,0.16,0.18
2022-11-11 9:33:28.8270,-0.1,-0.03,0.1,0.14
2022-11-11 9:33:28.8280,-0.06,0.06,0.02,0.08
2022-11-11 9:33:28.8440,-0.08,0.04,-0.05,0.1
2022-11-11 9:33:28.8450,-0.15,-0.06,-0.09,0.18
2022-11-11 9:33:28.8780,-0.07,0.01,-0.19,0.2
2022-11-11 9:33:28.8780,-0.07,0.08,-0.18,0.2
2022-11-11 9:33:28.8950,-0.1,-0.01,-0.17,0.19
2022-11-11 9:33:28.8960,-0.13,-0.12,-0.03,0.17
2022-11-11 9:33:28.9120,-0.09,-0.14,0.12,0.2
2022-11-11 9:33:28.9120,-0.06,-0.11,0.14,0.18
2022-11-11 9:33:28.9270,-0.12,-0.08,0.1,0.17
2022-11-11 9:33:28.9280,-0.15,0.0,0.08,0.17
2022-11-11 9:33:28.9440,-0.17,0.07,0.08,0.2
2022-11-11 9:33:28.9450,-0.18,0.07,0.09,0.21
2022-11-11 9:33:28.9770,-0.17,0.12,0.17,0.26
2022-11-11 9:33:28.9780,-0.11,0.17,0.16,0.25
2022-11-11 9:33:28.9960,-0.12,0.12,0.0,0.16
2022-11-11 9:33:28.9960,-0.07,0.04,-0.11,0.13
2022-11-11 9:33:29.0110,0.04,0.02,-0.06,0.07
2022-11-11 9:33:29.0120,0.05,0.0,0.0,0.05
2022-11-11 9:33:29.0270,0.04,-0.04,-0.01,0.05
2022-11-11 9:33:29.0280,0.02,-0.01,0.08,0.08
2022-11-11 9:33:29.0440,-0.02,-0.03,0.17,0.17
2022-11-11 9:33:29.0450,-0.11,-0.04,0.24,0.26
2022-11-11 9:33:29.0770,-0.07,0.05,0.25,0.26
2022-11-11 9:33:29.0780,-0.11,0.02,0.23,0.25
2022-11-11 9:33:29.0960,-0.08,-0.04,0.26,0.27
2022-11-11 9:33:29.0970,-0.05,-0.05,0.14,0.15
2022-11-11 9:33:29.1120,-0.1,-0.1,-0.01,0.14
2022-11-11 9:33:29.1130,-0.12,-0.06,-0.13,0.18
2022-11-11 9:33:29.1270,-0.13,-0.11,-0.12,0.2
2022-11-11 9:33:29.1280,-0.13,-0.14,0.06,0.2
2022-11-11 9:33:29.1440,-0.05,-0.09,0.12,0.15
2022-11-11 9:33:29.1450,-0.01,-0.07,0.0,0.07
2022-11-11 9:33:29.1770,-0.07,-0.15,-0.04,0.17
2022-11-11 9:33:29.1780,-0.07,-0.1,-0.16,0.2
2022-11-11 9:33:29.1950,-0.08,-0.06,-0.18,0.2
2022-11-11 9:33:29.1960,-0.12,-0.05,-0.08,0.15
2022-11-11 9:33:29.2110,-0.07,-0.03,0.02,0.07
2022-11-11 9:33:29.2120,-0.09,-0.11,0.14,0.19
2022-11-11 9:33:29.2270,-0.15,-0.24,-0.02,0.28
2022-11-11 9:33:29.2280,-0.13,-0.25,-0.25,0.37
2022-11-11 9:33:29.2440,-0.09,-0.12,-0.28,0.31
2022-11-11 9:33:29.2450,-0.07,0.0,-0.25,0.25
2022-11-11 9:33:29.2760,-0.06,0.02,-0.12,0.13
2022-11-11 9:33:29.2770,-0.03,0.0,0.11,0.11
2022-11-11 9:33:29.2960,-0.05,-0.11,0.2,0.23
2022-11-11 9:33:29.2960,-0.02,-0.18,0.14,0.22
2022-11-11 9:33:29.3120,0.0,-0.21,0.06,0.21
2022-11-11 9:33:29.3120,-0.01,-0.19,-0.03,0.19
2022-11-11 9:33:29.3270,-0.03,-0.12,-0.12,0.17
2022-11-11 9:33:29.3280,-0.03,-0.06,-0.08,0.1
2022-11-11 9:33:29.3440,0.0,-0.06,0.07,0.09
2022-11-11 9:33:29.3450,-0.06,-0.15,0.13,0.2
2022-11-11 9:33:29.3770,-0.01,-0.17,0.17,0.24
2022-11-11 9:33:29.3780,-0.02,-0.14,0.05,0.15
2022-11-11 9:33:29.3950,-0.09,-0.14,-0.19,0.25
2022-11-11 9:33:29.3960,-0.04,-0.08,-0.36,0.37
2022-11-11 9:33:29.4110,-0.04,0.02,-0.31,0.31
2022-11-11 9:33:29.4120,-0.04,-0.04,-0.24,0.24
2022-11-11 9:33:29.4270,-0.07,-0.03,-0.12,0.14
2022-11-11 9:33:29.4280,-0.05,-0.01,-0.12,0.13
2022-11-11 9:33:29.4440,-0.07,0.01,-0.13,0.14
2022-11-11 9:33:29.4450,-0.07,0.03,-0.1,0.12
2022-11-11 9:33:29.4770,-0.09,0.01,-0.05,0.1
2022-11-11 9:33:29.4770,-0.1,-0.03,0.04,0.11
2022-11-11 9:33:29.4950,-0.14,-0.03,0.14,0.2
2022-11-11 9:33:29.4960,-0.16,0.01,0.16,0.22
2022-11-11 9:33:29.5110,-0.19,0.01,0.17,0.25
2022-11-11 9:33:29.5120,-0.2,-0.04,0.14,0.24
2022-11-11 9:33:29.5270,-0.16,-0.04,0.09,0.18
2022-11-11 9:33:29.5280,-0.13,0.01,-0.08,0.15
2022-11-11 9:33:29.5440,-0.05,0.12,-0.46,0.47
2022-11-11 9:33:29.5450,-0.03,0.15,-0.43,0.45
2022-11-11 9:33:29.5780,-0.08,0.07,-0.26,0.28
2022-11-11 9:33:29.5780,-0.07,0.02,-0.2,0.21
2022-11-11 9:33:29.5960,-0.1,0.07,-0.26,0.28
2022-11-11 9:33:29.5960,-0.06,0.18,-0.27,0.33
2022-11-11 9:33:29.6110,-0.07,0.22,0.02,0.23
2022-11-11 9:33:29.6120,-0.13,0.07,0.31,0.34
2022-11-11 9:33:29.6270,-0.08,-0.01,0.54,0.54
2022-11-11 9:33:29.6280,-0.05,-0.13,0.45,0.47
2022-11-11 9:33:29.6440,-0.11,-0.28,0.29,0.41
2022-11-11 9:33:29.6450,-0.06,-0.15,0.25,0.29
2022-11-11 9:33:29.6770,0.01,-0.06,0.27,0.27
2022-11-11 9:33:29.6780,0.01,-0.08,0.32,0.33
2022-11-11 9:33:29.6950,0.05,-0.11,0.29,0.31
2022-11-11 9:33:29.6960,0.03,-0.23,-0.02,0.23
2022-11-11 9:33:29.7110,0.14,-0.18,-0.38,0.44
2022-11-11 9:33:29.7120,0.18,-0.12,-0.58,0.61
2022-11-11 9:33:29.7270,0.15,-0.12,-0.65,0.67
2022-11-11 9:33:29.7280,0.14,-0.06,-0.48,0.5
2022-11-11 9:33:29.7440,0.05,-0.1,-0.25,0.27
2022-11-11 9:33:29.7450,-0.09,-0.2,0.13,0.25
2022-11-11 9:33:29.7770,-0.28,-0.3,0.58,0.71
2022-11-11 9:33:29.7770,-0.38,-0.25,0.58,0.73
2022-11-11 9:33:29.7960,-0.27,-0.05,0.19,0.33
2022-11-11 9:33:29.7960,-0.1,0.12,-0.03,0.15
2022-11-11 9:33:29.8110,-0.03,0.22,0.1,0.24
2022-11-11 9:33:29.8120,-0.08,0.13,0.18,0.23
2022-11-11 9:33:29.8270,-0.14,0.03,0.04,0.14
2022-11-11 9:33:29.8280,-0.03,0.09,0.1,0.13
2022-11-11 9:33:29.8440,0.08,0.21,0.19,0.29
2022-11-11 9:33:29.8450,0.02,0.16,0.06,0.17
2022-11-11 9:33:29.8780,-0.04,0.15,-0.04,0.16
2022-11-11 9:33:29.8780,0.04,0.3,0.41,0.5
2022-11-11 9:33:29.8950,-0.03,0.41,0.73,0.83
2022-11-11 9:33:29.8960,-0.24,0.02,0.38,0.44
2022-11-11 9:33:29.9110,-0.21,-0.14,0.39,0.46
2022-11-11 9:33:29.9120,-0.16,-0.01,0.48,0.5
2022-11-11 9:33:29.9270,-0.06,0.06,0.34,0.35
2022-11-11 9:33:29.9270,-0.01,0.08,0.21,0.22
2022-11-11 9:33:29.9420,-0.04,-0.02,0.18,0.18
2022-11-11 9:33:29.9430,-0.07,-0.09,0.22,0.24
2022-11-11 9:33:29.9740,-0.12,-0.06,0.21,0.24
2022-11-11 9:33:29.9750,-0.08,-0.13,0.09,0.17
2022-11-11 9:33:29.9970,-0.07,-0.07,0.05,0.11
2022-11-11 9:33:29.9980,-0.14,0.03,0.05,0.15
2022-11-11 9:33:30.0110,-0.21,0.03,0.04,0.21
2022-11-11 9:33:30.0120,-0.28,-0.11,0.01,0.3
2022-11-11 9:33:30.0270,-0.29,-0.25,-0.02,0.38
2022-11-11 9:33:30.0280,-0.19,-0.2,0.04,0.27
2022-11-11 9:33:30.0440,-0.07,-0.17,0.0,0.18
2022-11-11 9:33:30.0450,-0.09,-0.17,-0.07,0.2
2022-11-11 9:33:30.0780,-0.14,-0.12,0.06,0.19
2022-11-11 9:33:30.0790,-0.22,0.21,0.51,0.59
2022-11-11 9:33:30.0950,-0.32,0.17,0.25,0.44
2022-11-11 9:33:30.0960,-0.23,-0.09,-0.28,0.37
2022-11-11 9:33:30.1120,-0.11,-0.12,-0.1,0.19
2022-11-11 9:33:30.1120,-0.15,-0.16,0.19,0.29
2022-11-11 9:33:30.1270,-0.09,-0.25,0.07,0.27
2022-11-11 9:33:30.1280,0.02,-0.25,-0.16,0.29
2022-11-11 9:33:30.1440,0.08,-0.23,-0.32,0.4
2022-11-11 9:33:30.1450,0.14,-0.22,-0.24,0.35
2022-11-11 9:33:30.1770,0.14,-0.1,0.13,0.21
2022-11-11 9:33:30.1780,0.0,0.03,0.31,0.31
2022-11-11 9:33:30.1960,-0.11,-0.08,-0.12,0.18
2022-11-11 9:33:30.1960,-0.17,-0.16,-0.54,0.58
2022-11-11 9:33:30.2120,-0.03,-0.09,-0.57,0.57
2022-11-11 9:33:30.2120,0.08,-0.12,-0.4,0.42
2022-11-11 9:33:30.2270,0.07,-0.14,-0.1,0.18
2022-11-11 9:33:30.2280,-0.01,-0.14,0.22,0.26
2022-11-11 9:33:30.2440,-0.14,-0.21,0.36,0.43
2022-11-11 9:33:30.2450,-0.26,-0.03,0.49,0.55
2022-11-11 9:33:30.2770,-0.3,0.4,0.56,0.75
2022-11-11 9:33:30.2770,-0.24,0.48,0.46,0.7
2022-11-11 9:33:30.2960,-0.15,0.46,0.35,0.59
2022-11-11 9:33:30.2960,-0.12,0.48,0.33,0.59
2022-11-11 9:33:30.3110,-0.17,0.34,0.32,0.49
2022-11-11 9:33:30.3120,-0.26,0.11,0.37,0.46
2022-11-11 9:33:30.3270,0.09,0.51,0.94,1.07
2022-11-11 9:33:30.3280,0.05,0.88,1.35,1.61
2022-11-11 9:33:30.3440,-0.3,0.64,1.45,1.61
2022-11-11 9:33:30.3450,-0.72,-0.23,1.09,1.32
2022-11-11 9:33:30.3770,-0.62,-1.09,0.45,1.33
2022-11-11 9:33:30.3780,-0.35,-1.29,0.02,1.33
2022-11-11 9:33:30.3950,-0.43,-0.89,-0.22,1.01
2022-11-11 9:33:30.3960,-0.51,-0.25,-0.33,0.65
2022-11-11 9:33:30.4110,-0.31,0.26,-0.27,0.48
2022-11-11 9:33:30.4120,-0.05,0.65,0.32,0.72
2022-11-11 9:33:30.4270,-0.16,0.76,1.73,1.89
2022-11-11 9:33:30.4280,-0.75,0.14,3.5,3.58
2022-11-11 9:33:30.4440,-1.47,-0.71,4.2,4.5
2022-11-11 9:33:30.4450,-1.89,-1.19,3.52,4.16
2022-11-11 9:33:30.4760,-1.79,-0.97,2.09,2.91
2022-11-11 9:33:30.4770,-1.0,-0.02,0.64,1.18
2022-11-11 9:33:30.4960,0.07,0.81,-0.3,0.86
2022-11-11 9:33:30.4960,0.9,0.44,-0.68,1.21
2022-11-11 9:33:30.5110,0.58,-1.0,-0.64,1.32
2022-11-11 9:33:30.5120,-0.03,-1.99,0.22,2.0
2022-11-11 9:33:30.5270,-0.1,-2.04,0.92,2.24
2022-11-11 9:33:30.5280,-0.05,-1.52,0.92,1.77
2022-11-11 9:33:30.5440,0.2,-1.02,0.15,1.05
2022-11-11 9:33:30.5450,0.67,-0.77,-0.55,1.15
2022-11-11 9:33:30.5780,0.69,-0.45,-0.72,1.09
2022-11-11 9:33:30.5790,0.39,0.08,-0.59,0.71
2022-11-11 9:33:30.5950,0.45,0.85,-0.02,0.96
2022-11-11 9:33:30.5960,0.49,1.31,0.38,1.44
2022-11-11 9:33:30.6110,0.15,1.5,0.57,1.61
2022-11-11 9:33:30.6120,1.11,1.29,1.46,2.24
2022-11-11 9:33:30.6270,0.3,0.13,2.58,2.6
2022-11-11 9:33:30.6280,-1.02,-1.97,3.2,3.89
2022-11-11 9:33:30.6440,-1.87,-3.32,3.12,4.92
2022-11-11 9:33:30.6440,-1.91,-3.57,2.02,4.52
2022-11-11 9:33:30.6790,-1.97,-2.79,-0.13,3.41
2022-11-11 9:33:30.6790,-1.75,-1.44,-2.28,3.21
2022-11-11 9:33:30.6950,-0.79,-0.05,-3.58,3.66
2022-11-11 9:33:30.6960,0.31,1.07,-3.58,3.74
2022-11-11 9:33:30.7120,0.32,1.15,-3.1,3.32
2022-11-11 9:33:30.7120,0.08,1.22,-2.41,2.7
2022-11-11 9:33:30.7270,-0.05,1.75,-1.85,2.54
2022-11-11 9:33:30.7280,-0.61,2.17,-1.67,2.8
2022-11-11 9:33:30.7440,-1.04,2.19,-1.97,3.12
2022-11-11 9:33:30.7450,-0.66,1.86,-2.01,2.81
2022-11-11 9:33:30.7790,-0.1,1.24,-1.65,2.06
2022-11-11 9:33:30.7800,0.4,0.47,-0.95,1.13
2022-11-11 9:33:30.7950,0.42,-0.53,-0.32,0.74
2022-11-11 9:33:30.7960,0.07,-1.31,-0.34,1.35
2022-11-11 9:33:30.8110,-0.03,-1.46,-0.6,1.57
2022-11-11 9:33:30.8120,0.25,-1.26,-0.55,1.39
2022-11-11 9:33:30.8270,0.75,-1.16,0.2,1.39
2022-11-11 9:33:30.8280,0.72,-1.29,1.45,2.07
2022-11-11 9:33:30.8440,0.21,-2.23,5.04,5.51
2022-11-11 9:33:30.8450,-1.84,-3.27,0.93,3.86
2022-11-11 9:33:30.8770,-2.41,-1.14,-0.06,2.66
2022-11-11 9:33:30.8780,-2.76,1.32,0.25,3.06
2022-11-11 9:33:30.8950,-3.71,2.1,-0.98,4.37
2022-11-11 9:33:30.8960,-2.78,1.17,-0.67,3.08
2022-11-11 9:33:30.9110,-3.25,-0.49,-2.33,4.02
2022-11-11 9:33:30.9120,-4.53,-1.28,-4.84,6.75
2022-11-11 9:33:30.9270,-4.36,-1.86,-5.96,7.61
2022-11-11 9:33:30.9280,-3.71,-2.42,-6.24,7.65
2022-11-11 9:33:30.9440,-2.45,-2.13,-5.96,6.78
2022-11-11 9:33:30.9450,-0.51,-1.36,-4.89,5.1
2022-11-11 9:33:30.9790,1.55,-0.56,-2.22,2.76
2022-11-11 9:33:30.9800,2.7,-0.01,-0.71,2.79
2022-11-11 9:33:30.9950,3.25,0.63,1.27,3.54
2022-11-11 9:33:30.9960,3.27,1.3,2.64,4.39
2022-11-11 9:33:31.0110,0.56,1.47,2.19,2.69
2022-11-11 9:33:31.0120,-1.94,1.66,1.02,2.74
2022-11-11 9:33:31.0270,-1.92,2.02,0.82,2.9
2022-11-11 9:33:31.0280,-0.98,2.53,1.05,2.9
2022-11-11 9:33:31.0440,-0.67,2.73,1.41,3.14
2022-11-11 9:33:31.0440,-0.89,2.3,1.54,2.9
2022-11-11 9:33:31.0780,-1.26,1.53,1.54,2.51
2022-11-11 9:33:31.0780,-1.39,0.82,1.26,2.04
2022-11-11 9:33:31.0950,-1.43,0.15,0.51,1.52
2022-11-11 9:33:31.0960,-1.53,-0.41,-0.45,1.64
2022-11-11 9:33:31.1110,-2.16,-0.95,-0.91,2.52
2022-11-11 9:33:31.1120,-4.05,-1.69,-0.56,4.42
2022-11-11 9:33:31.1270,-4.92,-2.17,-2.47,5.91
2022-11-11 9:33:31.1280,-4.05,-1.85,-3.74,5.81
2022-11-11 9:33:31.1440,-1.35,-0.32,-3.51,3.77
2022-11-11 9:33:31.1450,0.32,1.0,-4.49,4.61
2022-11-11 9:33:31.1790,-0.21,1.51,-5.16,5.38
2022-11-11 9:33:31.1800,-1.28,1.14,-5.41,5.67
2022-11-11 9:33:31.1950,-2.68,0.26,-5.78,6.37
2022-11-11 9:33:31.1960,-3.71,0.05,-5.41,6.56
2022-11-11 9:33:31.2110,-3.93,0.69,-4.67,6.14
2022-11-11 9:33:31.2120,-2.69,1.05,-3.59,4.6
2022-11-11 9:33:31.2270,-0.11,1.37,-0.98,1.68
2022-11-11 9:33:31.2280,-0.26,0.1,1.3,1.32
2022-11-11 9:33:31.2440,-1.29,-2.68,2.11,3.64
2022-11-11 9:33:31.2450,-0.66,-4.81,2.23,5.34
2022-11-11 9:33:31.2790,0.04,-5.84,1.83,6.12
2022-11-11 9:33:31.2800,0.03,-6.01,0.23,6.01
2022-11-11 9:33:31.2950,0.01,-5.66,-0.95,5.73
2022-11-11 9:33:31.2960,-0.26,-5.33,-1.24,5.47
2022-11-11 9:33:31.3110,-0.85,-5.33,-1.77,5.68
2022-11-11 9:33:31.3120,-1.03,-4.55,-1.29,4.84
2022-11-11 9:33:31.3270,-1.12,-3.78,-0.52,3.97
2022-11-11 9:33:31.3280,-1.66,-3.74,0.5,4.12
2022-11-11 9:33:31.3440,-1.84,-3.85,1.69,4.58
2022-11-11 9:33:31.3450,-1.47,-3.7,2.74,4.83
2022-11-11 9:33:31.3790,-0.87,-3.91,3.63,5.4
2022-11-11 9:33:31.3800,0.31,-4.25,2.3,4.84
2022-11-11 9:33:31.3950,1.05,-3.97,2.22,4.66
2022-11-11 9:33:31.3960,0.91,-3.88,2.67,4.79
2022-11-11 9:33:31.4110,0.11,-4.0,2.57,4.75
2022-11-11 9:33:31.4120,-0.77,-4.21,2.38,4.89
2022-11-11 9:33:31.4270,-1.27,-4.51,2.46,5.29
2022-11-11 9:33:31.4280,-1.32,-4.48,2.6,5.34
2022-11-11 9:33:31.4440,-1.37,-4.32,2.68,5.26
2022-11-11 9:33:31.4450,-1.66,-2.26,3.58,4.54
2022-11-11 9:33:31.4780,-2.19,-0.83,4.24,4.84
2022-11-11 9:33:31.4790,-4.07,-1.94,4.75,6.54
2022-11-11 9:33:31.4950,-6.17,-3.31,4.91,8.55
2022-11-11 9:33:31.4960,-6.15,-2.92,4.64,8.23
2022-11-11 9:33:31.5110,-5.66,-1.31,4.55,7.37
2022-11-11 9:33:31.5120,-6.29,-0.41,4.32,7.64
2022-11-11 9:33:31.5270,-6.33,0.41,4.26,7.64
2022-11-11 9:33:31.5280,-7.03,1.64,3.68,8.1
2022-11-11 9:33:31.5440,-8.07,3.02,2.99,9.12
2022-11-11 9:33:31.5450,-8.14,4.53,2.69,9.69
2022-11-11 9:33:31.5800,-7.28,6.03,2.12,9.68
2022-11-11 9:33:31.5810,-6.54,7.08,0.91,9.68
2022-11-11 9:33:31.5950,-5.85,7.63,-0.23,9.61
2022-11-11 9:33:31.5960,-5.74,5.67,-1.02,8.13
2022-11-11 9:33:31.6110,-5.54,4.91,-1.67,7.58
2022-11-11 9:33:31.6120,-4.64,8.5,-0.37,9.69
2022-11-11 9:33:31.6270,-4.42,9.99,-0.1,10.92
2022-11-11 9:33:31.6280,-4.07,7.17,-1.48,8.37
2022-11-11 9:33:31.6440,-3.83,5.24,-1.96,6.77
2022-11-11 9:33:31.6450,-3.65,4.94,-1.79,6.39
2022-11-11 9:33:31.6790,-4.05,5.93,-1.89,7.42
2022-11-11 9:33:31.6800,-4.07,6.26,-1.67,7.65
2022-11-11 9:33:31.6950,-3.25,6.95,-1.71,7.86
2022-11-11 9:33:31.6960,-3.74,6.65,-5.93,9.66
2022-11-11 9:33:31.7110,-2.86,6.34,-7.15,9.97
2022-11-11 9:33:31.7120,-1.26,5.25,-7.4,9.16
2022-11-11 9:33:31.7270,0.24,4.45,-6.3,7.71
2022-11-11 9:33:31.7280,0.72,4.3,-4.6,6.33
2022-11-11 9:33:31.7440,-0.55,3.9,-3.48,5.25
2022-11-11 9:33:31.7450,-2.41,1.9,-3.25,4.46
2022-11-11 9:33:31.7790,-2.76,0.48,-3.68,4.62
2022-11-11 9:33:31.7800,-1.24,0.0,-4.24,4.41
2022-11-11 9:33:31.7950,0.84,-0.62,-4.62,4.73
2022-11-11 9:33:31.7960,1.9,-1.3,-5.32,5.79
2022-11-11 9:33:31.8110,2.08,-1.42,-5.26,5.83
2022-11-11 9:33:31.8120,1.59,-1.77,-4.79,5.34
2022-11-11 9:33:31.8270,0.91,-2.21,-3.91,4.58
2022-11-11 9:33:31.8280,0.02,-2.31,-2.94,3.73
2022-11-11 9:33:31.8440,-0.2,-0.57,-1.65,1.75
2022-11-11 9:33:31.8450,0.4,0.55,-0.75,1.01
2022-11-11 9:33:31.8800,1.15,0.7,-0.66,1.49
2022-11-11 9:33:31.8810,1.61,1.47,-0.73,2.29
2022-11-11 9:33:31.8950,1.82,2.34,-0.32,2.98
2022-11-11 9:33:31.8960,1.72,2.52,0.21,3.05
2022-11-11 9:33:31.9110,1.22,2.59,0.47,2.9
2022-11-11 9:33:31.9120,1.17,2.46,0.83,2.84
2022-11-11 9:33:31.9270,1.49,2.28,1.03,2.91
2022-11-11 9:33:31.9280,1.58,2.57,0.67,3.09
2022-11-11 9:33:31.9440,1.94,2.47,0.13,3.14
2022-11-11 9:33:31.9450,2.21,2.15,-0.44,3.11
2022-11-11 9:33:31.9790,2.4,2.04,-0.81,3.25
2022-11-11 9:33:31.9790,2.61,2.07,-0.94,3.46
2022-11-11 9:33:31.9950,3.02,2.0,-1.13,3.79
2022-11-11 9:33:31.9960,3.36,2.0,-1.54,4.2
2022-11-11 9:33:32.0120,3.36,1.95,-2.15,4.44
2022-11-11 9:33:32.0150,2.93,1.08,-2.65,4.09
2022-11-11 9:33:32.0270,2.02,0.0,-2.85,3.49
2022-11-11 9:33:32.0280,1.23,-0.51,-2.84,3.13
2022-11-11 9:33:32.0440,0.97,-0.26,-2.8,2.97
2022-11-11 9:33:32.0450,0.91,0.15,-2.46,2.62
2022-11-11 9:33:32.0770,0.47,0.42,-1.68,1.79
2022-11-11 9:33:32.0780,-0.18,0.72,-1.15,1.36
2022-11-11 9:33:32.0950,-0.83,0.83,-0.56,1.3
2022-11-11 9:33:32.0960,-1.54,0.56,0.17,1.64
2022-11-11 9:33:32.1110,-1.91,0.49,0.92,2.17
2022-11-11 9:33:32.1120,-1.43,0.56,1.23,1.96
2022-11-11 9:33:32.1270,-0.89,1.22,1.26,1.96
2022-11-11 9:33:32.1280,-0.66,2.6,2.08,3.39
2022-11-11 9:33:32.1440,-1.45,1.15,1.95,2.68
2022-11-11 9:33:32.1450,-2.1,-0.47,2.61,3.38
2022-11-11 9:33:32.1790,-1.82,-0.71,2.38,3.07
2022-11-11 9:33:32.1800,-1.45,-1.35,2.14,2.91
2022-11-11 9:33:32.1950,-1.3,-1.95,2.65,3.53
2022-11-11 9:33:32.1960,-1.18,-1.93,2.28,3.21
2022-11-11 9:33:32.2110,-0.72,-1.39,1.36,2.07
2022-11-11 9:33:32.2120,0.08,-1.24,0.75,1.45
2022-11-11 9:33:32.2270,0.51,-1.36,0.12,1.45
2022-11-11 9:33:32.2280,0.34,-1.61,-0.13,1.65
2022-11-11 9:33:32.2440,0.0,-1.54,-0.18,1.55
2022-11-11 9:33:32.2450,-0.65,-1.01,-0.83,1.45
2022-11-11 9:33:32.2790,-1.31,0.05,-1.5,1.99
2022-11-11 9:33:32.2800,-2.01,1.08,-1.83,2.92
2022-11-11 9:33:32.2950,-2.33,1.78,-1.81,3.44
2022-11-11 9:33:32.2960,-2.01,3.1,-0.53,3.73
2022-11-11 9:33:32.3110,-1.91,4.15,1.01,4.67
2022-11-11 9:33:32.3120,-1.8,4.28,1.88,5.0
2022-11-11 9:33:32.3270,-0.85,4.03,1.37,4.34
2022-11-11 9:33:32.3280,1.09,2.66,0.67,2.95
2022-11-11 9:33:32.3440,3.25,1.05,0.59,3.46
2022-11-11 9:33:32.3450,4.96,-0.55,-0.18,4.99
2022-11-11 9:33:32.3810,5.67,-1.12,-1.15,5.89
2022-11-11 9:33:32.3820,4.96,-1.01,-2.24,5.53
2022-11-11 9:33:32.3950,2.66,-1.45,-2.21,3.74
2022-11-11 9:33:32.3960,-0.27,-1.56,-1.45,2.14
2022-11-11 9:33:32.4110,-2.31,0.13,-0.69,2.41
2022-11-11 9:33:32.4120,-2.44,2.1,-0.03,3.21
2022-11-11 9:33:32.4270,-2.12,2.98,0.44,3.68
2022-11-11 9:33:32.4280,-3.09,3.13,1.44,4.62
2022-11-11 9:33:32.4440,-4.28,3.07,3.37,6.25
2022-11-11 9:33:32.4450,-4.48,2.44,5.2,7.28
2022-11-11 9:33:32.4790,-3.74,0.11,5.88,6.96
2022-11-11 9:33:32.4800,-3.97,-1.2,4.71,6.27
2022-11-11 9:33:32.4950,-4.92,-0.91,2.06,5.41
2022-11-11 9:33:32.4960,-4.62,-1.32,-0.01,4.8
2022-11-11 9:33:32.5110,-3.96,-2.79,-0.6,4.88
2022-11-11 9:33:32.5120,-3.47,-3.3,-0.26,4.79
2022-11-11 9:33:32.5270,-1.64,-1.76,-0.75,2.51
2022-11-11 9:33:32.5280,-1.52,-0.2,-1.17,1.92
2022-11-11 9:33:32.5440,-2.76,0.5,-1.24,3.06
2022-11-11 9:33:32.5450,-3.19,0.89,0.6,3.36
2022-11-11 9:33:32.5810,-2.45,1.24,-0.38,2.77
2022-11-11 9:33:32.5820,-2.41,0.96,-1.44,2.96
2022-11-11 9:33:32.5950,-1.63,0.48,-1.85,2.51
2022-11-11 9:33:32.5960,-0.03,-0.53,-2.44,2.49
2022-11-11 9:33:32.6110,0.92,-2.3,-4.63,5.25
2022-11-11 9:33:32.6120,2.1,-2.23,-6.66,7.33
2022-11-11 9:33:32.6270,3.56,-0.85,-4.43,5.74
2022-11-11 9:33:32.6280,3.81,-0.7,-3.88,5.48
2022-11-11 9:33:32.6440,1.99,-0.74,-3.38,3.99
2022-11-11 9:33:32.6450,0.83,-0.68,-2.41,2.63
2022-11-11 9:33:32.6800,0.71,-0.68,-1.58,1.86
2022-11-11 9:33:32.6800,0.93,-0.95,-2.53,2.85
2022-11-11 9:33:32.6950,0.97,-0.26,-0.82,1.29
2022-11-11 9:33:32.6960,1.49,-0.97,-1.53,2.34
2022-11-11 9:33:32.7110,2.88,0.19,-2.36,3.72
2022-11-11 9:33:32.7120,5.3,0.79,-1.3,5.51
2022-11-11 9:33:32.7270,6.04,0.43,-0.89,6.12
2022-11-11 9:33:32.7280,4.61,0.57,-0.86,4.72
2022-11-11 9:33:32.7440,2.5,0.7,-1.49,2.99
2022-11-11 9:33:32.7450,0.46,1.12,0.17,1.22
2022-11-11 9:33:32.7800,-0.51,1.23,2.11,2.49
2022-11-11 9:33:32.7810,0.02,1.49,3.82,4.1
2022-11-11 9:33:32.7950,1.68,1.6,6.62,7.01
2022-11-11 9:33:32.7960,1.76,1.19,6.7,7.02
2022-11-11 9:33:32.8110,0.87,1.88,2.11,2.95
2022-11-11 9:33:32.8120,0.25,3.17,-1.53,3.52
2022-11-11 9:33:32.8270,0.29,4.4,-3.54,5.65
2022-11-11 9:33:32.8280,0.66,5.2,-4.32,6.79
2022-11-11 9:33:32.8440,2.46,5.78,-3.23,7.06
2022-11-11 9:33:32.8450,7.23,6.78,-0.89,9.95
2022-11-11 9:33:32.8800,8.56,5.28,2.07,10.26
2022-11-11 9:33:32.8810,4.73,3.86,1.69,6.33
2022-11-11 9:33:32.8950,1.34,2.6,1.8,3.43
2022-11-11 9:33:32.8960,-1.51,1.21,2.23,2.95
2022-11-11 9:33:32.9110,-4.71,-0.21,2.48,5.32
2022-11-11 9:33:32.9120,-5.92,-0.32,3.0,6.64
2022-11-11 9:33:32.9270,-5.09,0.63,3.44,6.17
2022-11-11 9:33:32.9280,-4.49,2.31,2.22,5.51
2022-11-11 9:33:32.9440,-3.8,3.33,1.04,5.15
2022-11-11 9:33:32.9440,-2.28,1.02,1.62,2.97
2022-11-11 9:33:32.9810,1.86,-6.68,2.07,7.23
2022-11-11 9:33:32.9810,10.96,-14.6,1.62,18.32
2022-11-11 9:33:32.9950,20.25,-16.51,0.45,26.13
2022-11-11 9:33:32.9960,19.68,-13.9,-1.04,24.11
2022-11-11 9:33:33.0110,7.05,-7.45,-2.06,10.46
2022-11-11 9:33:33.0120,-5.91,-3.8,-8.15,10.76
2022-11-11 9:33:33.0270,-10.82,0.3,-6.74,12.75
2022-11-11 9:33:33.0280,-8.83,2.65,-2.81,9.63
2022-11-11 9:33:33.0430,-6.03,1.3,-2.49,6.65
2022-11-11 9:33:33.0440,-2.5,-1.33,-2.68,3.89
2022-11-11 9:33:33.0810,0.19,-2.59,-2.36,3.5
2022-11-11 9:33:33.0810,1.02,-2.01,-1.15,2.53
2022-11-11 9:33:33.0950,0.27,-0.41,-0.1,0.5
2022-11-11 9:33:33.0950,-0.45,0.69,0.29,0.87
2022-11-11 9:33:33.1110,-0.71,1.3,0.38,1.52
2022-11-11 9:33:33.1120,-0.58,1.02,0.44,1.25
2022-11-11 9:33:33.1270,-0.03,0.15,0.28,0.31
2022-11-11 9:33:33.1280,0.4,-0.39,0.29,0.62
2022-11-11 9:33:33.1440,0.55,-0.65,0.31,0.9
2022-11-11 9:33:33.1450,0.54,-0.64,0.5,0.97
2022-11-11 9:33:33.1810,0.52,-0.44,0.55,0.87
2022-11-11 9:33:33.1820,0.65,-0.2,0.23,0.71
2022-11-11 9:33:33.1950,0.84,0.08,0.03,0.84
2022-11-11 9:33:33.1960,1.04,0.45,-0.03,1.13
2022-11-11 9:33:33.2110,1.05,0.65,-0.03,1.23
2022-11-11 9:33:33.2120,0.88,0.84,0.0,1.21
2022-11-11 9:33:33.2270,0.69,1.08,0.11,1.28
2022-11-11 9:33:33.2280,0.41,1.12,0.12,1.19
2022-11-11 9:33:33.2440,-0.31,0.75,-0.27,0.85
2022-11-11 9:33:33.2450,-1.01,-0.13,-0.86,1.33
2022-11-11 9:33:33.2810,-0.74,-0.07,-0.98,1.23
2022-11-11 9:33:33.2820,-0.32,0.38,-0.8,0.94
2022-11-11 9:33:33.2950,-0.03,0.76,-0.45,0.88
2022-11-11 9:33:33.2950,0.25,1.14,0.06,1.16
2022-11-11 9:33:33.3110,0.37,1.26,0.49,1.4
2022-11-11 9:33:33.3120,0.27,1.2,0.88,1.51
2022-11-11 9:33:33.3270,0.11,0.37,2.74,2.76
2022-11-11 9:33:33.3280,0.07,-0.04,3.27,3.27
2022-11-11 9:33:33.3440,-0.02,-0.32,3.19,3.2
2022-11-11 9:33:33.3450,0.0,-0.01,2.99,2.99
2022-11-11 9:33:33.3820,0.04,0.57,2.11,2.18
2022-11-11 9:33:33.3830,0.02,1.02,1.26,1.62
2022-11-11 9:33:33.3950,0.06,1.38,0.89,1.64
2022-11-11 9:33:33.3950,-0.08,1.37,0.75,1.56
2022-11-11 9:33:33.4110,-0.5,1.08,1.16,1.66
2022-11-11 9:33:33.4120,-0.83,0.24,1.69,1.89
2022-11-11 9:33:33.4270,-1.08,-0.61,1.68,2.08
2022-11-11 9:33:33.4280,-1.71,-1.36,1.21,2.49
2022-11-11 9:33:33.4430,-2.65,-2.09,1.17,3.57
2022-11-11 9:33:33.4440,-3.49,-2.56,1.12,4.47
2022-11-11 9:33:33.4820,-3.88,-2.59,0.78,4.72
2022-11-11 9:33:33.4830,-3.58,-1.99,0.1,4.09
2022-11-11 9:33:33.4950,-2.43,-0.79,-0.82,2.68
2022-11-11 9:33:33.4950,-1.15,0.2,-1.76,2.11
2022-11-11 9:33:33.5110,-0.32,0.71,-2.72,2.82
2022-11-11 9:33:33.5120,0.08,0.84,-3.88,3.97
2022-11-11 9:33:33.5270,-0.03,0.55,-4.84,4.87
2022-11-11 9:33:33.5280,-0.52,0.2,-4.15,4.18
2022-11-11 9:33:33.5440,-0.7,0.02,-2.81,2.89
2022-11-11 9:33:33.5440,-0.6,-0.05,-1.85,1.94
2022-11-11 9:33:33.5820,-0.5,-0.13,-1.12,1.23
2022-11-11 9:33:33.5830,-0.41,-0.2,-0.55,0.71
2022-11-11 9:33:33.5950,-0.29,-0.21,-0.15,0.38
2022-11-11 9:33:33.5960,-0.14,-0.17,0.13,0.25
2022-11-11 9:33:33.6110,-0.05,-0.15,0.38,0.41
2022-11-11 9:33:33.6120,0.02,-0.18,0.61,0.63
2022-11-11 9:33:33.6270,0.07,-0.22,0.83,0.86
2022-11-11 9:33:33.6280,0.13,-0.27,1.01,1.05
2022-11-11 9:33:33.6430,0.16,-0.3,1.14,1.18
2022-11-11 9:33:33.6440,0.19,-0.23,1.21,1.24
2022-11-11 9:33:33.6820,0.21,-0.14,1.23,1.25
2022-11-11 9:33:33.6830,0.18,-0.01,1.17,1.18
2022-11-11 9:33:33.6950,0.07,0.12,1.09,1.09
2022-11-11 9:33:33.6960,-0.08,0.23,0.96,0.99
2022-11-11 9:33:33.7110,-0.22,0.28,0.82,0.89
2022-11-11 9:33:33.7120,-0.32,0.28,0.68,0.8
2022-11-11 9:33:33.7270,-0.36,0.26,0.55,0.7
2022-11-11 9:33:33.7280,-0.36,0.22,0.4,0.58
2022-11-11 9:33:33.7430,-0.34,0.17,0.21,0.43
2022-11-11 9:33:33.7440,-0.38,0.08,-0.03,0.38
2022-11-11 9:33:33.7840,-0.43,-0.03,-0.26,0.5
2022-11-11 9:33:33.7850,-0.49,-0.13,-0.45,0.67
2022-11-11 9:33:33.7950,-0.51,-0.17,-0.6,0.8
2022-11-11 9:33:33.7950,-0.51,-0.17,-0.68,0.86
2022-11-11 9:33:33.8110,-0.49,-0.13,-0.72,0.88
2022-11-11 9:33:33.8120,-0.44,-0.08,-0.74,0.86
2022-11-11 9:33:33.8270,-0.38,-0.06,-0.69,0.78
2022-11-11 9:33:33.8280,-0.33,-0.06,-0.6,0.68
2022-11-11 9:33:33.8430,-0.25,-0.06,-0.43,0.5
2022-11-11 9:33:33.8440,-0.18,-0.06,-0.25,0.31
2022-11-11 9:33:33.8830,-0.13,-0.07,-0.08,0.16
2022-11-11 9:33:33.8840,-0.07,-0.06,0.06,0.11
2022-11-11 9:33:33.8950,0.02,-0.06,0.19,0.2
2022-11-11 9:33:33.8950,0.11,-0.01,0.3,0.31
2022-11-11 9:33:33.9110,0.17,0.0,0.41,0.44
2022-11-11 9:33:33.9120,0.23,-0.01,0.51,0.55
2022-11-11 9:33:33.9270,0.26,-0.02,0.6,0.65
2022-11-11 9:33:33.9280,0.27,-0.04,0.64,0.69
2022-11-11 9:33:33.9440,0.3,-0.02,0.65,0.71
2022-11-11 9:33:33.9450,0.31,0.04,0.6,0.67
2022-11-11 9:33:33.9840,0.29,0.1,0.52,0.6
2022-11-11 9:33:33.9850,0.16,0.09,0.42,0.45
2022-11-11 9:33:33.9950,-0.05,0.05,0.34,0.34
2022-11-11 9:33:33.9950,-0.28,0.01,0.27,0.38
2022-11-11 9:33:34.0110,-0.5,-0.01,0.18,0.53
2022-11-11 9:33:34.0120,-0.64,0.04,0.07,0.64
2022-11-11 9:33:34.0270,-0.69,0.11,-0.04,0.69
2022-11-11 9:33:34.0280,-0.65,0.1,-0.18,0.68
2022-11-11 9:33:34.0440,-0.51,0.08,-0.31,0.6
2022-11-11 9:33:34.0440,-0.33,0.07,-0.41,0.53
2022-11-11 9:33:34.0830,-0.19,0.03,-0.47,0.5
2022-11-11 9:33:34.0840,-0.11,-0.04,-0.48,0.49
2022-11-11 9:33:34.0950,-0.06,-0.15,-0.44,0.46
2022-11-11 9:33:34.0950,0.01,-0.24,-0.36,0.43
2022-11-11 9:33:34.1110,0.09,-0.24,-0.25,0.35
2022-11-11 9:33:34.1120,0.16,-0.15,-0.12,0.25
2022-11-11 9:33:34.1270,0.19,-0.04,-0.01,0.19
2022-11-11 9:33:34.1280,0.18,0.03,0.11,0.21
2022-11-11 9:33:34.1440,0.19,0.02,0.23,0.29
2022-11-11 9:33:34.1450,0.16,-0.02,0.32,0.35
2022-11-11 9:33:34.1830,0.11,-0.04,0.39,0.4
2022-11-11 9:33:34.1840,0.03,0.01,0.44,0.44
2022-11-11 9:33:34.1950,-0.08,0.1,0.45,0.46
2022-11-11 9:33:34.1950,-0.22,0.15,0.43,0.5
2022-11-11 9:33:34.2110,-0.36,0.13,0.38,0.53
2022-11-11 9:33:34.2120,-0.48,0.13,0.3,0.58
2022-11-11 9:33:34.2270,-0.55,0.1,0.2,0.59
2022-11-11 9:33:34.2280,-0.57,0.06,0.08,0.57
2022-11-11 9:33:34.2430,-0.52,0.08,-0.04,0.52
2022-11-11 9:33:34.2440,-0.41,0.1,-0.17,0.45
2022-11-11 9:33:34.2830,-0.33,0.08,-0.26,0.42
2022-11-11 9:33:34.2830,-0.26,0.04,-0.3,0.39
2022-11-11 9:33:34.2950,-0.17,0.0,-0.31,0.35
2022-11-11 9:33:34.2960,-0.06,-0.06,-0.29,0.3
2022-11-11 9:33:34.3110,0.03,-0.12,-0.24,0.26
2022-11-11 9:33:34.3120,0.1,-0.13,-0.17,0.23
2022-11-11 9:33:34.3270,0.15,-0.1,-0.11,0.21
2022-11-11 9:33:34.3280,0.19,-0.05,-0.06,0.2
2022-11-11 9:33:34.3440,0.23,-0.08,0.01,0.24
2022-11-11 9:33:34.3450,0.2,-0.24,0.09,0.32
2022-11-11 9:33:34.3830,0.15,-0.38,0.17,0.44
2022-11-11 9:33:34.3840,0.09,-0.3,0.25,0.4
2022-11-11 9:33:34.3950,0.04,-0.08,0.28,0.29
2022-11-11 9:33:34.3960,-0.02,0.09,0.29,0.3
2022-11-11 9:33:34.4110,-0.07,0.16,0.26,0.31
2022-11-11 9:33:34.4120,-0.08,0.17,0.2,0.27
2022-11-11 9:33:34.4270,-0.12,0.11,0.15,0.22
2022-11-11 9:33:34.4280,-0.2,0.01,0.13,0.23
2022-11-11 9:33:34.4440,-0.28,0.01,0.12,0.3
2022-11-11 9:33:34.4440,-0.31,0.09,0.08,0.33
2022-11-11 9:33:34.4820,-0.31,0.17,0.06,0.35
2022-11-11 9:33:34.4830,-0.27,0.17,0.02,0.31
2022-11-11 9:33:34.4950,-0.25,0.07,-0.01,0.25
2022-11-11 9:33:34.4950,-0.27,-0.1,-0.02,0.28
2022-11-11 9:33:34.5110,-0.29,-0.21,-0.01,0.35
2022-11-11 9:33:34.5120,-0.25,-0.21,-0.02,0.32
2022-11-11 9:33:34.5270,-0.15,-0.16,-0.06,0.22
2022-11-11 9:33:34.5280,-0.05,-0.13,-0.11,0.17
2022-11-11 9:33:34.5440,0.03,-0.15,-0.12,0.19
2022-11-11 9:33:34.5450,0.09,-0.19,-0.13,0.24
2022-11-11 9:33:34.5820,0.12,-0.18,-0.1,0.23
2022-11-11 9:33:34.5830,0.12,-0.13,-0.06,0.18
2022-11-11 9:33:34.5950,0.13,-0.05,-0.03,0.14
2022-11-11 9:33:34.5960,0.12,0.03,0.02,0.12
2022-11-11 9:33:34.6110,0.07,0.07,0.08,0.12
2022-11-11 9:33:34.6120,0.02,0.04,0.14,0.14
2022-11-11 9:33:34.6270,-0.05,-0.01,0.19,0.19
2022-11-11 9:33:34.6280,-0.09,-0.02,0.22,0.23
2022-11-11 9:33:34.6430,-0.11,0.0,0.24,0.26
2022-11-11 9:33:34.6440,-0.16,0.02,0.25,0.29
2022-11-11 9:33:34.6820,-0.21,0.02,0.23,0.31
2022-11-11 9:33:34.6830,-0.28,0.0,0.19,0.33
2022-11-11 9:33:34.6950,-0.31,-0.02,0.14,0.34
2022-11-11 9:33:34.6950,-0.3,-0.03,0.06,0.3
2022-11-11 9:33:34.7110,-0.28,-0.03,0.01,0.28
2022-11-11 9:33:34.7120,-0.24,-0.03,-0.07,0.25
2022-11-11 9:33:34.7270,-0.19,-0.03,-0.11,0.22
2022-11-11 9:33:34.7270,-0.16,-0.04,-0.16,0.22
2022-11-11 9:33:34.7440,-0.11,-0.05,-0.18,0.21
2022-11-11 9:33:34.7450,-0.07,-0.09,-0.17,0.2
2022-11-11 9:33:34.7830,-0.03,-0.1,-0.15,0.18
2022-11-11 9:33:34.7840,0.01,-0.1,-0.13,0.16
2022-11-11 9:33:34.7950,0.03,-0.1,-0.08,0.13
2022-11-11 9:33:34.7950,0.04,-0.07,-0.04,0.09
2022-11-11 9:33:34.8110,0.04,-0.04,0.0,0.05
2022-11-11 9:33:34.8110,0.0,-0.02,0.03,0.03
2022-11-11 9:33:34.8270,-0.04,-0.01,0.05,0.06
2022-11-11 9:33:34.8270,-0.08,0.02,0.04,0.09
2022-11-11 9:33:34.8430,-0.1,0.05,0.04,0.11
2022-11-11 9:33:34.8440,-0.14,0.03,0.05,0.15
2022-11-11 9:33:34.8820,-0.16,0.02,0.06,0.17
2022-11-11 9:33:34.8820,-0.17,0.0,0.06,0.18
2022-11-11 9:33:34.8950,-0.16,-0.03,0.08,0.18
2022-11-11 9:33:34.8950,-0.13,-0.09,0.1,0.18
2022-11-11 9:33:34.9090,-0.1,-0.19,0.11,0.24
2022-11-11 9:33:34.9100,-0.1,-0.28,0.14,0.32
2022-11-11 9:33:34.9270,-0.09,-0.31,0.13,0.34
2022-11-11 9:33:34.9280,-0.06,-0.19,0.1,0.22
2022-11-11 9:33:34.9430,0.01,0.07,0.07,0.09
2022-11-11 9:33:34.9440,0.09,0.26,0.03,0.27
2022-11-11 9:33:34.9820,0.12,0.27,-0.01,0.29
2022-11-11 9:33:34.9820,0.08,0.16,-0.02,0.18
2022-11-11 9:33:34.9950,-0.02,-0.01,0.0,0.02
2022-11-11 9:33:34.9960,-0.14,-0.14,0.01,0.19
2022-11-11 9:33:35.0110,-0.23,-0.15,0.03,0.27
2022-11-11 9:33:35.0120,-0.28,-0.08,0.01,0.29
2022-11-11 9:33:35.0270,-0.3,0.01,0.0,0.3
2022-11-11 9:33:35.0280,-0.3,0.03,0.02,0.3
2022-11-11 9:33:35.0430,-0.31,0.03,0.03,0.31
2022-11-11 9:33:35.0440,-0.31,0.05,0.04,0.31
2022-11-11 9:33:35.0810,-0.31,0.09,0.05,0.32
2022-11-11 9:33:35.0820,-0.29,0.09,0.06,0.3
2022-11-11 9:33:35.0950,-0.27,0.06,0.06,0.28
2022-11-11 9:33:35.0950,-0.21,-0.03,0.04,0.21
2022-11-11 9:33:35.1110,-0.11,-0.12,0.03,0.16
2022-11-11 9:33:35.1120,-0.02,-0.17,0.0,0.17
2022-11-11 9:33:35.1270,0.05,-0.18,-0.04,0.19
2022-11-11 9:33:35.1280,0.12,-0.13,-0.07,0.19
2022-11-11 9:33:35.1430,0.12,-0.07,-0.09,0.16
2022-11-11 9:33:35.1440,0.03,-0.03,-0.08,0.09
2022-11-11 9:33:35.1810,-0.09,0.0,-0.04,0.09
2022-11-11 9:33:35.1820,-0.21,0.0,-0.01,0.21
2022-11-11 9:33:35.1950,-0.29,-0.01,0.01,0.29
2022-11-11 9:33:35.1950,-0.33,0.01,0.03,0.33
2022-11-11 9:33:35.2110,-0.34,0.04,0.06,0.34
2022-11-11 9:33:35.2110,-0.33,0.02,0.09,0.34
2022-11-11 9:33:35.2270,-0.31,-0.01,0.1,0.32
2022-11-11 9:33:35.2280,-0.25,-0.03,0.1,0.27
2022-11-11 9:33:35.2430,-0.18,-0.04,0.08,0.2
2022-11-11 9:33:35.2440,-0.12,-0.05,0.07,0.14
2022-11-11 9:33:35.2810,-0.08,-0.06,0.03,0.1
2022-11-11 9:33:35.2820,-0.04,-0.08,0.03,0.09
2022-11-11 9:33:35.2950,-0.02,-0.09,0.02,0.09
2022-11-11 9:33:35.2950,-0.01,-0.08,0.01,0.08
2022-11-11 9:33:35.3110,0.01,-0.05,-0.02,0.05
2022-11-11 9:33:35.3120,0.02,-0.03,-0.03,0.04
2022-11-11 9:33:35.3270,0.03,-0.04,-0.03,0.05
2022-11-11 9:33:35.3270,0.02,-0.06,-0.03,0.06
2022-11-11 9:33:35.3430,0.02,-0.06,-0.02,0.06
2022-11-11 9:33:35.3440,0.0,-0.05,0.0,0.05
2022-11-11 9:33:35.3810,0.0,-0.02,0.02,0.02
2022-11-11 9:33:35.3820,-0.01,-0.01,0.03,0.03
2022-11-11 9:33:35.3950,-0.05,-0.02,0.06,0.08
2022-11-11 9:33:35.3950,-0.07,-0.04,0.08,0.11
2022-11-11 9:33:35.4110,-0.09,-0.04,0.1,0.14
2022-11-11 9:33:35.4120,-0.09,-0.05,0.11,0.15
2022-11-11 9:33:35.4270,-0.06,-0.05,0.14,0.16
2022-11-11 9:33:35.4270,-0.03,-0.04,0.15,0.15
2022-11-11 9:33:35.4430,-0.02,-0.05,0.17,0.17
2022-11-11 9:33:35.4440,0.0,-0.03,0.17,0.17
2022-11-11 9:33:35.4810,0.01,0.0,0.13,0.13
2022-11-11 9:33:35.4810,0.05,0.01,0.1,0.11
2022-11-11 9:33:35.4950,0.06,-0.02,0.06,0.08
2022-11-11 9:33:35.4960,0.05,-0.09,0.02,0.1
2022-11-11 9:33:35.5110,0.03,-0.14,-0.03,0.14
2022-11-11 9:33:35.5120,0.03,-0.17,-0.05,0.17
2022-11-11 9:33:35.5270,0.04,-0.15,-0.1,0.18
2022-11-11 9:33:35.5270,0.02,-0.13,-0.13,0.18
2022-11-11 9:33:35.5430,-0.02,-0.08,-0.13,0.15
2022-11-11 9:33:35.5440,-0.06,-0.04,-0.1,0.12
2022-11-11 9:33:35.5810,-0.1,-0.02,-0.06,0.11
2022-11-11 9:33:35.5820,-0.12,0.0,0.0,0.12
2022-11-11 9:33:35.5950,-0.13,0.01,0.05,0.13
2022-11-11 9:33:35.5960,-0.12,-0.01,0.1,0.15
2022-11-11 9:33:35.6110,-0.09,-0.02,0.14,0.16
2022-11-11 9:33:35.6120,-0.06,-0.03,0.16,0.17
2022-11-11 9:33:35.6270,-0.04,-0.01,0.18,0.18
2022-11-11 9:33:35.6280,-0.01,-0.02,0.18,0.18
2022-11-11 9:33:35.6430,0.0,-0.06,0.17,0.18
2022-11-11 9:33:35.6440,0.0,-0.07,0.13,0.14
2022-11-11 9:33:35.6800,-0.01,-0.05,0.09,0.1
2022-11-11 9:33:35.6810,-0.05,-0.01,0.05,0.07
2022-11-11 9:33:35.6940,-0.09,-0.01,0.01,0.09
2022-11-11 9:33:35.6950,-0.15,-0.01,-0.03,0.15
2022-11-11 9:33:35.7110,-0.19,-0.03,-0.05,0.19
2022-11-11 9:33:35.7120,-0.21,-0.02,-0.05,0.21
2022-11-11 9:33:35.7270,-0.23,0.02,-0.05,0.23
2022-11-11 9:33:35.7270,-0.23,0.03,-0.05,0.23
2022-11-11 9:33:35.7430,-0.22,0.03,-0.03,0.22
2022-11-11 9:33:35.7440,-0.19,0.04,-0.03,0.19
2022-11-11 9:33:35.7800,-0.16,-0.01,-0.03,0.16
2022-11-11 9:33:35.7810,-0.15,-0.06,-0.02,0.16
2022-11-11 9:33:35.7950,-0.11,-0.1,-0.03,0.15
2022-11-11 9:33:35.7950,-0.1,-0.1,-0.03,0.14
2022-11-11 9:33:35.8100,-0.1,-0.07,-0.02,0.12
2022-11-11 9:33:35.8110,-0.09,-0.06,-0.01,0.1
2022-11-11 9:33:35.8270,-0.09,-0.06,-0.01,0.1
2022-11-11 9:33:35.8270,-0.08,-0.04,0.0,0.08
2022-11-11 9:33:35.8280,-0.07,-0.05,0.03,0.09
2022-11-11 9:33:35.8430,-0.06,-0.08,0.06,0.11
2022-11-11 9:33:35.8800,-0.05,-0.08,0.1,0.13
2022-11-11 9:33:35.8810,-0.05,-0.04,0.12,0.13
2022-11-11 9:33:35.8930,-0.03,0.01,0.13,0.13
2022-11-11 9:33:35.8940,-0.02,0.03,0.13,0.13
2022-11-11 9:33:35.8940,-0.03,0.0,0.11,0.11
2022-11-11 9:33:35.9110,-0.05,-0.01,0.1,0.11
2022-11-11 9:33:35.9110,-0.08,-0.01,0.08,0.11
2022-11-11 9:33:35.9270,-0.1,-0.03,0.05,0.11
2022-11-11 9:33:35.9270,-0.1,-0.03,0.02,0.1
2022-11-11 9:33:35.9430,-0.11,-0.02,0.01,0.11
