time,ax,ay,az,atotal
2022-11-15 21:15:04.6190,2.06,-1.49,2.81,3.78
2022-11-15 21:15:04.6240,1.94,-1.31,2.32,3.29
2022-11-15 21:15:04.6250,1.87,-0.72,1.08,2.27
2022-11-15 21:15:04.6420,2.01,-0.05,0.0,2.01
2022-11-15 21:15:04.6430,1.95,0.46,-0.64,2.1
2022-11-15 21:15:04.6570,1.59,0.85,-1.0,2.06
2022-11-15 21:15:04.6580,1.33,1.01,-1.24,2.08
2022-11-15 21:15:04.7150,1.06,1.01,-1.4,2.02
2022-11-15 21:15:04.7160,0.61,0.88,-1.39,1.75
2022-11-15 21:15:04.7250,-0.11,0.61,-1.08,1.24
2022-11-15 21:15:04.7260,-1.23,0.06,-0.58,1.36
2022-11-15 21:15:04.7420,-1.81,-0.72,-0.09,1.95
2022-11-15 21:15:04.7430,-1.63,-1.23,0.28,2.06
2022-11-15 21:15:04.7580,-0.68,-1.32,0.44,1.54
2022-11-15 21:15:04.7590,0.65,-1.18,0.41,1.4
2022-11-15 21:15:04.7750,1.55,-0.7,0.43,1.75
2022-11-15 21:15:04.7760,1.43,-0.13,0.51,1.52
2022-11-15 21:15:04.8370,0.53,0.25,0.68,0.89
2022-11-15 21:15:04.8380,-0.01,0.42,0.94,1.02
2022-11-15 21:15:04.8390,-0.7,0.52,0.86,1.22
2022-11-15 21:15:04.8580,-1.7,0.74,0.38,1.89
2022-11-15 21:15:04.8590,-3.09,1.31,-0.42,3.38
2022-11-15 21:15:04.8740,-3.31,0.96,-0.92,3.56
2022-11-15 21:15:04.8750,-3.66,1.15,-1.3,4.05
2022-11-15 21:15:04.8910,-4.55,1.66,-1.3,5.01
2022-11-15 21:15:04.8920,-4.1,0.94,-1.1,4.34
2022-11-15 21:15:04.9080,-2.82,0.32,-0.89,2.97
2022-11-15 21:15:04.9690,-0.58,-0.02,-0.45,0.73
2022-11-15 21:15:04.9700,1.56,-0.61,0.23,1.69
2022-11-15 21:15:04.9740,3.36,-1.17,0.55,3.6
2022-11-15 21:15:04.9920,4.91,-1.57,1.1,5.27
2022-11-15 21:15:04.9930,5.95,-1.6,1.1,6.25
2022-11-15 21:15:05.0080,5.95,-1.19,0.57,6.09
2022-11-15 21:15:05.0090,4.7,-0.5,-0.27,4.73
2022-11-15 21:15:05.0240,3.53,0.25,-0.97,3.66
2022-11-15 21:15:05.0250,2.61,0.8,-1.15,2.96
2022-11-15 21:15:05.0410,1.36,1.02,-1.41,2.2
2022-11-15 21:15:05.1030,0.53,1.14,-1.47,1.93
2022-11-15 21:15:05.1040,0.03,1.34,-1.38,1.92
2022-11-15 21:15:05.1070,-0.12,1.47,-1.24,1.92
2022-11-15 21:15:05.1260,-0.13,1.31,-0.89,1.58
2022-11-15 21:15:05.1260,-0.31,0.79,-0.4,0.93
2022-11-15 21:15:05.1410,-0.13,0.01,0.21,0.24
2022-11-15 21:15:05.1420,0.21,-0.53,0.61,0.83
2022-11-15 21:15:05.1580,0.24,-0.77,0.8,1.13
2022-11-15 21:15:05.1580,0.05,-0.88,0.85,1.22
2022-11-15 21:15:05.1740,-0.08,-0.95,0.71,1.18
2022-11-15 21:15:05.2370,-0.17,-0.96,0.46,1.07
2022-11-15 21:15:05.2380,-0.29,-0.99,0.2,1.05
2022-11-15 21:15:05.2390,-0.52,-1.03,-0.13,1.16
2022-11-15 21:15:05.2580,-0.83,-0.97,-0.4,1.33
2022-11-15 21:15:05.2590,-1.14,-0.88,-0.67,1.58
2022-11-15 21:15:05.2740,-1.41,-0.67,-0.92,1.81
2022-11-15 21:15:05.2750,-1.31,-0.37,-0.99,1.68
2022-11-15 21:15:05.2910,-1.05,0.01,-0.99,1.44
2022-11-15 21:15:05.2920,-0.77,0.39,-0.84,1.2
2022-11-15 21:15:05.3080,-0.7,0.76,-0.71,1.25
2022-11-15 21:15:05.3700,-1.05,1.39,-0.81,1.92
2022-11-15 21:15:05.3710,-1.7,2.33,-0.98,3.04
2022-11-15 21:15:05.3730,-0.7,1.97,-0.38,2.12
2022-11-15 21:15:05.3920,1.04,1.2,-0.16,1.59
2022-11-15 21:15:05.3930,2.12,0.61,-0.28,2.22
2022-11-15 21:15:05.4080,2.76,0.14,-0.52,2.81
2022-11-15 21:15:05.4080,2.81,-0.16,-0.8,2.92
2022-11-15 21:15:05.4250,2.18,-0.48,-0.75,2.35
2022-11-15 21:15:05.4250,1.47,-0.93,-0.49,1.8
2022-11-15 21:15:05.4410,1.19,-0.85,-0.14,1.46
2022-11-15 21:15:05.5030,0.19,0.01,-0.15,0.24
2022-11-15 21:15:05.5040,-0.51,0.72,-0.09,0.88
2022-11-15 21:15:05.5070,-0.7,1.07,0.12,1.28
2022-11-15 21:15:05.5250,-0.54,1.04,0.42,1.24
2022-11-15 21:15:05.5260,-0.11,0.73,0.74,1.04
2022-11-15 21:15:05.5410,0.34,0.17,0.88,0.95
2022-11-15 21:15:05.5420,0.46,-0.47,0.7,0.96
2022-11-15 21:15:05.5580,0.1,-0.88,0.33,0.94
2022-11-15 21:15:05.5590,-0.21,-1.15,0.05,1.17
2022-11-15 21:15:05.5740,-0.4,-1.26,-0.08,1.32
2022-11-15 21:15:05.6360,-0.48,-1.2,-0.14,1.3
2022-11-15 21:15:05.6370,-0.55,-0.96,-0.13,1.11
2022-11-15 21:15:05.6400,-0.64,-0.55,-0.08,0.84
2022-11-15 21:15:05.6410,-0.65,-0.22,-0.01,0.68
2022-11-15 21:15:05.6590,-0.58,-0.09,0.06,0.59
2022-11-15 21:15:05.6590,-0.66,0.02,0.06,0.66
2022-11-15 21:15:05.6750,-0.79,0.09,0.09,0.8
2022-11-15 21:15:05.6750,-0.91,0.12,0.14,0.92
2022-11-15 21:15:05.6910,-1.03,0.14,0.17,1.05
2022-11-15 21:15:05.6920,-0.93,0.08,0.3,0.98
2022-11-15 21:15:05.7520,-0.65,-0.06,0.44,0.78
2022-11-15 21:15:05.7530,-0.37,-0.21,0.48,0.64
2022-11-15 21:15:05.7570,-0.17,-0.37,0.4,0.57
2022-11-15 21:15:05.7580,0.03,-0.67,0.28,0.72
2022-11-15 21:15:05.7750,0.23,-0.84,0.09,0.87
2022-11-15 21:15:05.7760,0.23,-0.52,0.02,0.56
2022-11-15 21:15:05.7910,0.05,-0.04,0.12,0.13
2022-11-15 21:15:05.7920,0.07,0.18,0.27,0.33
2022-11-15 21:15:05.8080,0.13,0.43,0.3,0.54
2022-11-15 21:15:05.8080,0.14,0.69,0.25,0.74
2022-11-15 21:15:05.8690,0.22,0.87,0.22,0.92
2022-11-15 21:15:05.8700,0.35,0.99,0.17,1.06
2022-11-15 21:15:05.8750,0.5,1.08,0.1,1.19
2022-11-15 21:15:05.8760,0.51,1.04,-0.02,1.15
2022-11-15 21:15:05.8920,0.38,0.71,-0.15,0.81
2022-11-15 21:15:05.8930,0.2,0.22,-0.24,0.38
2022-11-15 21:15:05.9080,0.04,-0.32,-0.26,0.41
2022-11-15 21:15:05.9090,-0.06,-0.83,-0.27,0.87
2022-11-15 21:15:05.9250,-0.23,-1.13,-0.32,1.19
2022-11-15 21:15:05.9260,-0.4,-1.24,-0.33,1.34
2022-11-15 21:15:05.9860,-0.5,-1.23,-0.23,1.34
2022-11-15 21:15:05.9870,-0.54,-1.1,-0.09,1.22
2022-11-15 21:15:05.9900,-0.5,-0.84,0.08,0.98
2022-11-15 21:15:06.0080,-0.36,-0.51,0.26,0.67
2022-11-15 21:15:06.0090,-0.17,-0.21,0.38,0.46
2022-11-15 21:15:06.0250,0.0,0.02,0.37,0.37
2022-11-15 21:15:06.0260,0.12,0.21,0.26,0.35
2022-11-15 21:15:06.0410,0.17,0.29,0.08,0.34
2022-11-15 21:15:06.0420,0.2,0.29,-0.15,0.38
2022-11-15 21:15:06.0570,0.2,0.25,-0.37,0.48
2022-11-15 21:15:06.1210,0.2,0.16,-0.49,0.55
2022-11-15 21:15:06.1220,0.17,0.05,-0.48,0.51
2022-11-15 21:15:06.1450,0.12,-0.05,-0.44,0.45
2022-11-15 21:15:06.1460,0.11,-0.14,-0.33,0.37
2022-11-15 21:15:06.1590,0.07,-0.19,-0.2,0.28
2022-11-15 21:15:06.1600,0.03,-0.18,-0.08,0.19
2022-11-15 21:15:06.1750,-0.04,-0.15,0.0,0.15
2022-11-15 21:15:06.1750,-0.13,-0.09,-0.01,0.15
2022-11-15 21:15:06.1910,-0.2,-0.04,0.02,0.2
2022-11-15 21:15:06.1920,-0.2,-0.03,0.05,0.2
2022-11-15 21:15:06.2550,-0.22,-0.02,0.09,0.23
2022-11-15 21:15:06.2560,-0.2,-0.01,0.1,0.22
2022-11-15 21:15:06.2770,-0.1,0.03,0.09,0.13
2022-11-15 21:15:06.2780,0.07,0.08,0.03,0.11
2022-11-15 21:15:06.2930,0.16,0.1,-0.03,0.19
2022-11-15 21:15:06.2930,0.21,0.11,-0.12,0.26
2022-11-15 21:15:06.3080,0.24,0.1,-0.2,0.32
2022-11-15 21:15:06.3090,0.21,0.14,-0.27,0.36
2022-11-15 21:15:06.3250,0.18,0.17,-0.29,0.38
2022-11-15 21:15:06.3250,0.18,0.19,-0.3,0.39
2022-11-15 21:15:06.3890,0.18,0.21,-0.33,0.43
2022-11-15 21:15:06.3900,0.17,0.17,-0.34,0.41
2022-11-15 21:15:06.4090,0.14,0.06,-0.35,0.38
2022-11-15 21:15:06.4100,0.13,-0.06,-0.39,0.41
2022-11-15 21:15:06.4250,0.13,-0.18,-0.42,0.47
2022-11-15 21:15:06.4260,0.05,-0.29,-0.41,0.5
2022-11-15 21:15:06.4410,-0.12,-0.42,-0.34,0.55
2022-11-15 21:15:06.4420,-0.33,-0.49,-0.27,0.64
2022-11-15 21:15:06.4580,-0.45,-0.51,-0.23,0.71
2022-11-15 21:15:06.4590,-0.5,-0.49,-0.18,0.72
2022-11-15 21:15:06.5220,-0.47,-0.47,-0.12,0.67
2022-11-15 21:15:06.5230,-0.42,-0.48,-0.03,0.63
2022-11-15 21:15:06.5430,-0.37,-0.58,0.06,0.69
2022-11-15 21:15:06.5440,-0.22,-0.6,-0.04,0.64
2022-11-15 21:15:06.5590,-0.2,-0.52,-0.08,0.56
2022-11-15 21:15:06.5600,-0.28,-0.62,-0.03,0.68
2022-11-15 21:15:06.5750,-0.51,-0.87,-0.05,1.0
2022-11-15 21:15:06.5750,-0.6,-0.86,-0.01,1.04
2022-11-15 21:15:06.5910,-0.57,-0.28,0.0,0.63
2022-11-15 21:15:06.5920,-0.26,0.36,-0.25,0.5
2022-11-15 21:15:06.6560,-0.18,-0.4,-0.04,0.44
2022-11-15 21:15:06.6570,-0.16,-0.32,-0.41,0.54
2022-11-15 21:15:06.6760,0.35,0.39,-0.83,0.98
2022-11-15 21:15:06.6770,0.8,0.73,-1.11,1.55
2022-11-15 21:15:06.6920,0.41,0.54,-0.88,1.11
2022-11-15 21:15:06.6930,-0.08,0.18,-0.38,0.42
2022-11-15 21:15:06.7080,-0.12,-0.02,0.03,0.12
2022-11-15 21:15:06.7090,-0.09,-0.06,0.2,0.22
2022-11-15 21:15:06.7240,-0.08,0.04,0.21,0.22
2022-11-15 21:15:06.7250,-0.04,0.16,0.16,0.22
2022-11-15 21:15:06.7880,0.09,0.17,0.13,0.23
2022-11-15 21:15:06.7880,0.19,0.07,0.09,0.22
2022-11-15 21:15:06.8090,0.11,-0.09,0.04,0.14
2022-11-15 21:15:06.8100,-0.01,-0.21,0.06,0.21
2022-11-15 21:15:06.8260,-0.03,-0.17,0.07,0.18
2022-11-15 21:15:06.8260,0.07,0.02,0.0,0.07
2022-11-15 21:15:06.8410,0.34,0.43,-0.21,0.58
2022-11-15 21:15:06.8420,0.54,0.69,-0.42,0.97
2022-11-15 21:15:06.8580,0.22,0.51,-0.38,0.67
2022-11-15 21:15:06.8590,0.06,0.67,0.11,0.68
2022-11-15 21:15:06.9220,0.08,0.44,0.72,0.84
2022-11-15 21:15:06.9230,-0.11,-0.06,0.59,0.6
2022-11-15 21:15:06.9440,-0.3,-0.29,-0.01,0.41
2022-11-15 21:15:06.9450,-0.35,-0.38,-0.45,0.68
2022-11-15 21:15:06.9590,-0.51,-0.37,-0.5,0.8
2022-11-15 21:15:06.9600,-0.91,-0.07,-0.12,0.92
2022-11-15 21:15:06.9740,-1.5,0.92,0.28,1.78
2022-11-15 21:15:06.9750,-1.97,1.98,0.6,2.85
2022-11-15 21:15:06.9910,-0.97,1.04,1.17,1.84
2022-11-15 21:15:06.9920,0.37,-0.35,0.69,0.85
2022-11-15 21:15:07.0550,0.46,-1.1,-0.01,1.19
2022-11-15 21:15:07.0560,-0.2,-1.09,-0.42,1.18
2022-11-15 21:15:07.0760,-0.3,-0.99,-0.44,1.12
2022-11-15 21:15:07.0770,-0.14,-0.71,-0.47,0.86
2022-11-15 21:15:07.0920,0.14,-0.53,-0.47,0.72
2022-11-15 21:15:07.0930,0.43,-0.37,-0.59,0.81
2022-11-15 21:15:07.1080,0.59,-0.3,-0.63,0.91
2022-11-15 21:15:07.1080,0.3,-0.28,-0.31,0.51
2022-11-15 21:15:07.1240,0.41,-0.46,-0.67,0.91
2022-11-15 21:15:07.1250,0.64,-0.73,-0.81,1.26
2022-11-15 21:15:07.1880,0.61,-0.83,-0.52,1.15
2022-11-15 21:15:07.1890,0.35,-0.76,-0.2,0.86
2022-11-15 21:15:07.2100,0.08,-0.72,-0.17,0.74
2022-11-15 21:15:07.2110,0.01,-0.46,-0.39,0.6
2022-11-15 21:15:07.2260,-0.22,-0.17,-0.42,0.5
2022-11-15 21:15:07.2270,-0.43,-0.07,-0.33,0.54
2022-11-15 21:15:07.2410,-0.37,-0.08,-0.36,0.52
2022-11-15 21:15:07.2420,-0.46,-0.12,-0.41,0.62
2022-11-15 21:15:07.2580,-0.35,-0.11,-0.33,0.49
2022-11-15 21:15:07.2590,-0.32,-0.04,-0.2,0.37
2022-11-15 21:15:07.3240,-0.26,0.03,-0.19,0.32
2022-11-15 21:15:07.3240,0.03,0.08,-0.19,0.2
2022-11-15 21:15:07.3430,0.17,0.02,-0.24,0.29
2022-11-15 21:15:07.3430,0.34,-0.18,-0.31,0.49
2022-11-15 21:15:07.3590,0.39,-0.31,-0.31,0.58
2022-11-15 21:15:07.3600,0.21,-0.43,-0.27,0.54
2022-11-15 21:15:07.3740,0.01,-0.47,-0.24,0.52
2022-11-15 21:15:07.3750,-0.27,-0.32,-0.22,0.47
2022-11-15 21:15:07.3910,-0.39,-0.15,-0.19,0.45
2022-11-15 21:15:07.3920,-0.2,-0.05,-0.19,0.28
2022-11-15 21:15:07.4550,0.03,-0.09,-0.26,0.27
2022-11-15 21:15:07.4550,0.04,-0.2,-0.29,0.35
2022-11-15 21:15:07.4760,-0.01,-0.29,-0.2,0.35
2022-11-15 21:15:07.4770,-0.13,-0.3,-0.03,0.32
2022-11-15 21:15:07.4920,-0.14,-0.34,0.16,0.4
2022-11-15 21:15:07.4930,0.0,-0.48,0.27,0.55
2022-11-15 21:15:07.5070,0.24,-0.66,0.28,0.75
2022-11-15 21:15:07.5080,0.42,-0.83,0.16,0.94
2022-11-15 21:15:07.5240,0.41,-0.93,-0.06,1.01
2022-11-15 21:15:07.5250,0.13,-0.79,-0.19,0.82
2022-11-15 21:15:07.5890,-0.32,-0.42,-0.28,0.59
2022-11-15 21:15:07.5900,-0.59,0.04,-0.26,0.64
2022-11-15 21:15:07.6100,-0.5,0.55,-0.11,0.75
2022-11-15 21:15:07.6110,-0.16,0.98,0.1,0.99
2022-11-15 21:15:07.6260,0.13,1.21,0.3,1.25
2022-11-15 21:15:07.6270,0.23,1.23,0.35,1.29
2022-11-15 21:15:07.6410,0.19,1.11,0.33,1.17
2022-11-15 21:15:07.6420,0.06,0.91,0.28,0.95
2022-11-15 21:15:07.6570,0.02,0.69,0.23,0.72
2022-11-15 21:15:07.6580,0.03,0.49,0.07,0.49
2022-11-15 21:15:07.7220,0.06,0.26,-0.09,0.28
2022-11-15 21:15:07.7230,0.09,-0.05,-0.19,0.21
2022-11-15 21:15:07.7430,-0.01,-0.35,-0.25,0.43
2022-11-15 21:15:07.7430,-0.14,-0.57,-0.31,0.66
2022-11-15 21:15:07.7590,-0.27,-0.71,-0.38,0.84
2022-11-15 21:15:07.7600,-0.36,-0.8,-0.43,0.97
2022-11-15 21:15:07.7740,-0.43,-0.85,-0.44,1.04
2022-11-15 21:15:07.7750,-0.52,-0.86,-0.41,1.08
2022-11-15 21:15:07.7910,-0.6,-0.84,-0.39,1.1
2022-11-15 21:15:07.7920,-0.66,-0.77,-0.36,1.07
2022-11-15 21:15:07.8550,-0.6,-0.69,-0.31,0.96
2022-11-15 21:15:07.8560,-0.44,-0.59,-0.21,0.76
2022-11-15 21:15:07.8770,-0.18,-0.41,0.0,0.44
2022-11-15 21:15:07.8780,-0.07,-0.2,-0.04,0.21
2022-11-15 21:15:07.8920,-0.24,0.24,-0.09,0.35
2022-11-15 21:15:07.8930,-0.4,0.46,-0.24,0.65
2022-11-15 21:15:07.9080,-0.47,0.42,-0.5,0.8
2022-11-15 21:15:07.9090,-0.1,0.41,-0.42,0.59
2022-11-15 21:15:07.9240,0.35,0.14,-0.15,0.4
2022-11-15 21:15:07.9250,0.41,-0.22,0.71,0.84
2022-11-15 21:15:07.9890,0.23,-0.36,1.21,1.28
2022-11-15 21:15:07.9890,0.32,-0.22,1.31,1.36
2022-11-15 21:15:08.0090,0.53,0.09,0.83,0.98
2022-11-15 21:15:08.0100,0.59,0.52,0.14,0.79
2022-11-15 21:15:08.0250,0.59,0.81,-0.52,1.12
2022-11-15 21:15:08.0260,0.41,0.73,-1.16,1.43
2022-11-15 21:15:08.0410,0.14,0.37,-1.5,1.55
2022-11-15 21:15:08.0420,0.01,-0.03,-1.35,1.35
2022-11-15 21:15:08.0580,0.0,-0.39,-0.43,0.58
2022-11-15 21:15:08.0590,-0.29,-0.84,0.74,1.15
2022-11-15 21:15:08.1220,-0.66,-1.06,1.29,1.79
2022-11-15 21:15:08.1220,-1.08,-1.07,1.19,1.93
2022-11-15 21:15:08.1230,-1.03,-0.82,0.45,1.39
2022-11-15 21:15:08.1250,-0.5,-0.25,-0.36,0.66
2022-11-15 21:15:08.1260,0.08,0.35,-0.62,0.71
2022-11-15 21:15:08.1270,0.53,0.8,-0.32,1.01
2022-11-15 21:15:08.1280,0.92,1.06,0.31,1.43
2022-11-15 21:15:08.1290,0.96,0.97,0.77,1.56
2022-11-15 21:15:08.1300,0.57,0.68,0.75,1.16
2022-11-15 21:15:08.1310,-0.03,0.33,0.32,0.46
2022-11-15 21:15:08.1890,-0.37,0.31,-0.56,0.73
2022-11-15 21:15:08.1890,-0.08,0.58,-1.36,1.48
2022-11-15 21:15:08.2090,0.21,0.61,-1.14,1.3
2022-11-15 21:15:08.2100,0.09,0.25,-0.54,0.6
2022-11-15 21:15:08.2250,0.27,-0.27,0.01,0.38
2022-11-15 21:15:08.2260,0.48,-0.63,0.42,0.89
2022-11-15 21:15:08.2410,0.23,-0.82,0.51,0.99
2022-11-15 21:15:08.2420,-0.4,-0.75,0.38,0.93
2022-11-15 21:15:08.2570,-1.01,-0.83,0.11,1.31
2022-11-15 21:15:08.2580,-1.16,-1.13,0.07,1.62
2022-11-15 21:15:08.3210,-0.88,-1.24,0.29,1.54
2022-11-15 21:15:08.3210,-1.05,-1.32,0.35,1.72
2022-11-15 21:15:08.3430,-1.04,-1.65,0.18,1.95
2022-11-15 21:15:08.3440,-1.04,-1.82,0.0,2.09
2022-11-15 21:15:08.3580,-1.16,-1.87,0.0,2.2
2022-11-15 21:15:08.3590,-1.68,-2.04,-0.01,2.64
2022-11-15 21:15:08.3740,-1.9,-2.45,-0.25,3.11
2022-11-15 21:15:08.3750,-2.5,-2.93,-0.72,3.91
2022-11-15 21:15:08.3910,-2.85,-3.1,-1.06,4.34
2022-11-15 21:15:08.3910,-2.39,-2.79,-1.22,3.87
2022-11-15 21:15:08.4540,-1.86,-2.06,-1.19,3.01
2022-11-15 21:15:08.4550,-1.15,-0.97,-0.74,1.67
2022-11-15 21:15:08.4760,-0.21,-0.07,-0.09,0.23
2022-11-15 21:15:08.4760,0.25,0.58,0.54,0.83
2022-11-15 21:15:08.4920,0.55,0.87,0.63,1.2
2022-11-15 21:15:08.4930,1.23,1.21,0.12,1.72
2022-11-15 21:15:08.5070,1.79,1.78,-0.33,2.54
2022-11-15 21:15:08.5080,2.1,2.55,-0.43,3.33
2022-11-15 21:15:08.5240,2.61,3.56,-0.46,4.43
2022-11-15 21:15:08.5250,3.06,4.59,-0.71,5.56
2022-11-15 21:15:08.5870,3.08,5.17,-1.14,6.12
2022-11-15 21:15:08.5880,2.69,5.11,-1.46,5.95
2022-11-15 21:15:08.6100,2.11,4.44,-1.5,5.13
2022-11-15 21:15:08.6110,1.59,3.22,-1.33,3.82
2022-11-15 21:15:08.6250,1.22,1.91,-1.03,2.48
2022-11-15 21:15:08.6260,1.2,0.82,-0.53,1.54
2022-11-15 21:15:08.6410,0.98,0.04,-0.08,0.98
2022-11-15 21:15:08.6420,-0.03,-0.51,0.19,0.54
2022-11-15 21:15:08.6570,-0.86,-1.02,0.7,1.5
2022-11-15 21:15:08.6580,-1.25,-1.54,0.91,2.18
2022-11-15 21:15:08.7210,-1.67,-1.97,0.81,2.7
2022-11-15 21:15:08.7220,-1.63,-2.21,0.74,2.84
2022-11-15 21:15:08.7430,-1.26,-2.3,0.42,2.65
2022-11-15 21:15:08.7440,0.51,-1.25,0.5,1.43
2022-11-15 21:15:08.7590,0.73,-0.58,0.79,1.22
2022-11-15 21:15:08.7590,-0.38,-0.73,1.09,1.36
2022-11-15 21:15:08.7740,-0.9,-0.82,1.28,1.76
2022-11-15 21:15:08.7750,-1.21,-0.94,1.02,1.84
2022-11-15 21:15:08.7910,-0.88,-0.91,-0.08,1.26
2022-11-15 21:15:08.7920,0.3,-0.54,-1.35,1.48
2022-11-15 21:15:08.8550,0.58,-0.15,-1.97,2.05
2022-11-15 21:15:08.8560,0.09,-0.03,-1.52,1.52
2022-11-15 21:15:08.8760,-0.76,-0.25,-0.17,0.81
2022-11-15 21:15:08.8770,-1.51,-0.66,1.24,2.06
2022-11-15 21:15:08.8920,-1.68,-1.03,1.97,2.78
2022-11-15 21:15:08.8930,-1.36,-1.11,1.73,2.46
2022-11-15 21:15:08.9080,-0.77,-0.82,0.96,1.47
2022-11-15 21:15:08.9080,-0.18,-0.44,0.24,0.53
2022-11-15 21:15:08.9240,0.26,-0.16,-0.28,0.41
2022-11-15 21:15:08.9250,0.54,0.01,-0.57,0.78
2022-11-15 21:15:08.9870,0.69,0.14,-0.65,0.95
2022-11-15 21:15:08.9880,0.66,0.28,-0.62,0.94
2022-11-15 21:15:09.0100,0.59,0.42,-0.55,0.9
2022-11-15 21:15:09.0110,0.52,0.54,-0.51,0.9
2022-11-15 21:15:09.0250,0.4,0.61,-0.54,0.9
2022-11-15 21:15:09.0260,0.25,0.54,-0.49,0.77
2022-11-15 21:15:09.0410,0.14,0.37,-0.32,0.5
2022-11-15 21:15:09.0410,-0.01,0.15,-0.1,0.18
2022-11-15 21:15:09.0570,-0.17,-0.07,0.06,0.19
2022-11-15 21:15:09.0580,-0.31,-0.29,0.19,0.46
2022-11-15 21:15:09.1210,-0.43,-0.49,0.28,0.7
2022-11-15 21:15:09.1210,-0.49,-0.64,0.28,0.85
2022-11-15 21:15:09.1430,-0.49,-0.66,0.21,0.84
2022-11-15 21:15:09.1440,-0.39,-0.57,0.1,0.69
2022-11-15 21:15:09.1580,-0.29,-0.46,-0.03,0.54
2022-11-15 21:15:09.1590,-0.22,-0.32,-0.15,0.41
2022-11-15 21:15:09.1740,-0.16,-0.16,-0.22,0.31
2022-11-15 21:15:09.1750,-0.12,0.1,-0.26,0.3
2022-11-15 21:15:09.1910,0.06,0.57,-0.17,0.59
2022-11-15 21:15:09.1920,0.17,0.54,-0.16,0.58
2022-11-15 21:15:09.2560,0.04,0.25,-0.15,0.29
2022-11-15 21:15:09.2560,-0.01,0.3,-0.09,0.31
2022-11-15 21:15:09.2760,0.06,0.41,-0.13,0.43
2022-11-15 21:15:09.2770,0.11,0.18,-0.09,0.22
2022-11-15 21:15:09.2920,0.01,-0.1,0.27,0.28
2022-11-15 21:15:09.2930,-0.16,-0.32,0.5,0.61
2022-11-15 21:15:09.3080,-0.21,-0.37,0.41,0.59
2022-11-15 21:15:09.3080,-0.06,-0.22,0.14,0.26
2022-11-15 21:15:09.3240,0.11,-0.04,-0.12,0.16
2022-11-15 21:15:09.3250,0.25,0.13,-0.16,0.32
2022-11-15 21:15:09.3890,0.27,0.18,-0.08,0.33
2022-11-15 21:15:09.3890,0.2,0.19,-0.05,0.28
2022-11-15 21:15:09.4090,0.17,0.23,-0.09,0.29
2022-11-15 21:15:09.4100,0.17,0.21,-0.1,0.28
2022-11-15 21:15:09.4250,0.15,0.05,-0.1,0.18
2022-11-15 21:15:09.4260,0.07,-0.18,-0.03,0.19
2022-11-15 21:15:09.4410,-0.15,-0.37,0.07,0.4
2022-11-15 21:15:09.4420,-0.33,-0.45,0.17,0.58
2022-11-15 21:15:09.4570,-0.35,-0.37,0.17,0.53
2022-11-15 21:15:09.4580,-0.22,-0.2,0.07,0.3
2022-11-15 21:15:09.5200,-0.1,-0.04,-0.12,0.16
2022-11-15 21:15:09.5210,0.02,0.07,-0.28,0.28
2022-11-15 21:15:09.5240,0.12,0.11,-0.29,0.33
2022-11-15 21:15:09.5420,0.17,0.11,-0.11,0.23
2022-11-15 21:15:09.5420,0.12,0.02,0.04,0.12
2022-11-15 21:15:09.5570,-0.11,-0.17,0.03,0.2
2022-11-15 21:15:09.5580,-0.26,-0.31,-0.1,0.41
2022-11-15 21:15:09.5740,-0.24,-0.33,-0.29,0.5
2022-11-15 21:15:09.5750,-0.2,-0.29,-0.39,0.52
2022-11-15 21:15:09.5900,-0.24,-0.25,-0.39,0.52
2022-11-15 21:15:09.6520,-0.26,-0.21,-0.3,0.44
2022-11-15 21:15:09.6530,-0.23,-0.18,-0.23,0.37
2022-11-15 21:15:09.6560,-0.24,-0.17,-0.16,0.33
2022-11-15 21:15:09.6730,-0.24,-0.21,-0.05,0.32
2022-11-15 21:15:09.6730,-0.18,-0.22,0.03,0.28
2022-11-15 21:15:09.6910,-0.16,-0.23,0.01,0.28
2022-11-15 21:15:09.6920,-0.14,-0.21,-0.04,0.25
2022-11-15 21:15:09.7060,-0.17,-0.21,-0.1,0.28
2022-11-15 21:15:09.7070,-0.22,-0.24,-0.14,0.35
2022-11-15 21:15:09.7240,-0.21,-0.23,-0.17,0.35
2022-11-15 21:15:09.7860,-0.22,-0.28,-0.14,0.38
2022-11-15 21:15:09.7870,-0.08,-0.31,-0.08,0.33
2022-11-15 21:15:09.7900,0.09,-0.24,-0.11,0.27
2022-11-15 21:15:09.8080,0.16,-0.18,-0.22,0.32
2022-11-15 21:15:09.8090,0.14,-0.1,-0.26,0.31
2022-11-15 21:15:09.8240,0.08,-0.03,-0.13,0.15
2022-11-15 21:15:09.8250,-0.02,-0.02,0.08,0.08
2022-11-15 21:15:09.8410,-0.05,0.02,0.24,0.24
2022-11-15 21:15:09.8420,0.0,0.09,0.24,0.25
2022-11-15 21:15:09.8560,0.06,0.15,0.13,0.2
2022-11-15 21:15:09.9180,0.0,0.12,-0.01,0.12
2022-11-15 21:15:09.9190,-0.13,-0.01,-0.19,0.23
2022-11-15 21:15:09.9250,-0.21,-0.14,-0.37,0.44
2022-11-15 21:15:09.9260,-0.15,-0.16,-0.48,0.52
2022-11-15 21:15:09.9410,-0.06,-0.09,-0.5,0.51
2022-11-15 21:15:09.9420,-0.02,-0.07,-0.38,0.38
2022-11-15 21:15:09.9580,0.01,-0.09,-0.16,0.18
2022-11-15 21:15:09.9580,0.03,-0.11,-0.01,0.11
2022-11-15 21:15:09.9740,0.14,-0.12,0.04,0.18
2022-11-15 21:15:09.9750,0.2,-0.12,0.01,0.23
2022-11-15 21:15:10.0350,0.19,-0.17,-0.07,0.26
2022-11-15 21:15:10.0350,0.04,-0.29,-0.16,0.33
2022-11-15 21:15:10.0390,-0.14,-0.4,-0.24,0.48
2022-11-15 21:15:10.0400,-0.21,-0.41,-0.33,0.56
2022-11-15 21:15:10.0580,-0.25,-0.33,-0.43,0.59
2022-11-15 21:15:10.0590,-0.39,-0.33,-0.53,0.73
2022-11-15 21:15:10.0740,-0.56,-0.46,-0.57,0.92
2022-11-15 21:15:10.0750,-0.65,-0.52,-0.58,1.01
2022-11-15 21:15:10.0900,-0.51,-0.38,-0.44,0.77
2022-11-15 21:15:10.0910,-0.36,-0.19,-0.19,0.44
2022-11-15 21:15:10.1510,-0.1,-0.01,0.09,0.13
2022-11-15 21:15:10.1520,0.04,0.05,0.23,0.23
2022-11-15 21:15:10.1560,0.04,-0.07,0.22,0.23
2022-11-15 21:15:10.1560,-0.02,-0.27,0.08,0.28
2022-11-15 21:15:10.1750,-0.18,-0.49,-0.17,0.54
2022-11-15 21:15:10.1750,-0.26,-0.58,-0.4,0.75
2022-11-15 21:15:10.1910,-0.2,-0.43,-0.41,0.62
2022-11-15 21:15:10.1910,-0.07,-0.16,-0.17,0.24
2022-11-15 21:15:10.2070,0.04,0.07,0.13,0.15
2022-11-15 21:15:10.2080,0.09,0.2,0.29,0.36
2022-11-15 21:15:10.2680,0.13,0.3,0.28,0.43
2022-11-15 21:15:10.2680,0.17,0.39,0.17,0.45
2022-11-15 21:15:10.2730,0.19,0.41,0.1,0.46
2022-11-15 21:15:10.2730,0.18,0.37,0.08,0.41
2022-11-15 21:15:10.2920,0.15,0.31,0.1,0.35
2022-11-15 21:15:10.2930,0.17,0.29,0.14,0.36
2022-11-15 21:15:10.3080,0.22,0.32,0.18,0.42
2022-11-15 21:15:10.3080,0.31,0.43,0.21,0.57
2022-11-15 21:15:10.3240,0.37,0.52,0.21,0.67
2022-11-15 21:15:10.3250,0.37,0.54,0.16,0.67
2022-11-15 21:15:10.3840,0.28,0.46,0.12,0.55
2022-11-15 21:15:10.3840,0.14,0.34,0.05,0.37
2022-11-15 21:15:10.3920,0.03,0.21,0.03,0.21
2022-11-15 21:15:10.3930,-0.04,0.1,0.11,0.15
2022-11-15 21:15:10.4080,-0.08,0.05,0.12,0.15
2022-11-15 21:15:10.4090,-0.03,0.13,0.09,0.16
2022-11-15 21:15:10.4240,-0.02,0.24,0.07,0.25
2022-11-15 21:15:10.4250,-0.06,0.32,0.02,0.32
2022-11-15 21:15:10.4410,-0.02,0.36,-0.08,0.36
2022-11-15 21:15:10.4420,0.02,0.26,-0.22,0.34
2022-11-15 21:15:10.5010,-0.07,0.07,-0.3,0.31
2022-11-15 21:15:10.5020,-0.21,-0.13,-0.27,0.36
2022-11-15 21:15:10.5060,-0.31,-0.26,-0.14,0.42
2022-11-15 21:15:10.5060,-0.32,-0.3,-0.07,0.44
2022-11-15 21:15:10.5250,-0.29,-0.32,-0.04,0.43
2022-11-15 21:15:10.5260,-0.26,-0.37,0.02,0.45
2022-11-15 21:15:10.5410,-0.21,-0.38,0.12,0.45
2022-11-15 21:15:10.5420,-0.2,-0.33,0.12,0.4
2022-11-15 21:15:10.5580,-0.1,-0.19,0.02,0.21
2022-11-15 21:15:10.5580,0.05,-0.08,-0.16,0.18
2022-11-15 21:15:10.6170,0.13,0.0,-0.32,0.34
2022-11-15 21:15:10.6180,0.15,0.01,-0.4,0.42
2022-11-15 21:15:10.6240,0.14,-0.01,-0.34,0.36
2022-11-15 21:15:10.6250,0.12,0.07,-0.3,0.33
2022-11-15 21:15:10.6420,0.18,0.08,-0.33,0.38
2022-11-15 21:15:10.6420,0.16,0.05,-0.52,0.54
2022-11-15 21:15:10.6580,0.02,-0.09,-0.47,0.47
2022-11-15 21:15:10.6580,-0.05,-0.25,-0.18,0.31
2022-11-15 21:15:10.6740,-0.06,-0.36,0.03,0.36
2022-11-15 21:15:10.6750,-0.1,-0.46,0.04,0.47
2022-11-15 21:15:10.7330,-0.09,-0.61,-0.01,0.61
2022-11-15 21:15:10.7340,-0.08,-0.61,0.13,0.62
2022-11-15 21:15:10.7420,0.0,-0.52,0.29,0.59
2022-11-15 21:15:10.7430,0.1,-0.4,0.23,0.47
2022-11-15 21:15:10.7580,0.09,-0.26,0.01,0.27
2022-11-15 21:15:10.7590,0.03,-0.11,-0.12,0.16
2022-11-15 21:15:10.7740,0.1,0.03,-0.27,0.28
2022-11-15 21:15:10.7750,0.13,0.12,-0.48,0.51
2022-11-15 21:15:10.7910,0.09,0.16,-0.5,0.53
2022-11-15 21:15:10.7920,-0.05,0.09,-0.31,0.32
2022-11-15 21:15:10.8500,-0.18,-0.05,-0.1,0.21
2022-11-15 21:15:10.8510,-0.28,-0.15,-0.1,0.33
2022-11-15 21:15:10.8580,-0.27,-0.22,-0.22,0.41
2022-11-15 21:15:10.8590,-0.25,-0.3,-0.27,0.47
2022-11-15 21:15:10.8750,-0.19,-0.39,-0.33,0.54
2022-11-15 21:15:10.8750,-0.12,-0.36,-0.31,0.49
2022-11-15 21:15:10.8910,-0.11,-0.24,-0.33,0.42
2022-11-15 21:15:10.8920,-0.02,-0.05,-0.38,0.38
2022-11-15 21:15:10.9070,0.05,0.14,-0.35,0.38
2022-11-15 21:15:10.9080,0.05,0.15,-0.36,0.39
2022-11-15 21:15:10.9660,0.2,-0.11,-0.3,0.37
2022-11-15 21:15:10.9660,0.42,-0.4,0.07,0.58
2022-11-15 21:15:10.9750,0.39,-0.47,0.15,0.62
2022-11-15 21:15:10.9760,0.06,-0.83,-0.07,0.83
2022-11-15 21:15:10.9920,0.09,-1.16,0.26,1.19
2022-11-15 21:15:10.9920,-0.37,-1.02,0.4,1.15
2022-11-15 21:15:11.0080,-1.83,-0.64,0.13,1.94
2022-11-15 21:15:11.0080,-2.94,-0.48,-0.07,2.97
2022-11-15 21:15:11.0240,-2.17,-0.27,-0.24,2.19
2022-11-15 21:15:11.0250,-0.72,0.0,-0.95,1.19
2022-11-15 21:15:11.0830,-0.19,0.44,-1.12,1.21
2022-11-15 21:15:11.0830,0.06,0.85,-0.42,0.95
2022-11-15 21:15:11.0920,0.19,1.13,-0.24,1.17
2022-11-15 21:15:11.0930,0.94,1.41,-0.23,1.71
2022-11-15 21:15:11.1080,1.54,1.15,0.14,1.92
2022-11-15 21:15:11.1090,1.52,0.49,-0.03,1.59
2022-11-15 21:15:11.1240,1.26,-0.2,0.47,1.35
2022-11-15 21:15:11.1250,0.85,-0.82,1.29,1.74
2022-11-15 21:15:11.1410,0.64,-1.05,0.95,1.55
2022-11-15 21:15:11.1420,0.43,-1.11,0.49,1.28
2022-11-15 21:15:11.1990,0.04,-1.03,0.14,1.04
2022-11-15 21:15:11.2000,-0.5,-1.05,-0.22,1.18
2022-11-15 21:15:11.2090,-1.04,-0.92,-0.98,1.69
2022-11-15 21:15:11.2090,-1.58,-0.39,-0.73,1.78
2022-11-15 21:15:11.2250,-1.34,0.45,-0.52,1.5
2022-11-15 21:15:11.2260,-1.28,0.88,-0.32,1.58
2022-11-15 21:15:11.2410,-1.44,0.62,0.22,1.58
2022-11-15 21:15:11.2410,-1.29,0.05,0.74,1.48
2022-11-15 21:15:11.2570,-1.07,-0.43,0.83,1.42
2022-11-15 21:15:11.2580,-1.11,-0.69,0.41,1.36
2022-11-15 21:15:11.3160,-1.11,-0.71,0.18,1.32
2022-11-15 21:15:11.3160,-0.63,-0.56,-0.09,0.84
2022-11-15 21:15:11.3250,0.3,-0.37,-0.67,0.82
2022-11-15 21:15:11.3260,1.22,-0.15,-0.98,1.57
2022-11-15 21:15:11.3420,1.8,0.07,-0.81,1.97
2022-11-15 21:15:11.3420,2.41,0.32,-0.48,2.47
2022-11-15 21:15:11.3580,2.58,0.49,-0.41,2.65
2022-11-15 21:15:11.3580,1.54,0.37,-0.38,1.62
2022-11-15 21:15:11.3740,-0.16,0.06,-0.18,0.24
2022-11-15 21:15:11.3750,-0.2,-0.01,0.21,0.29
2022-11-15 21:15:11.4330,0.48,-0.09,0.08,0.49
2022-11-15 21:15:11.4330,0.3,-0.54,-0.19,0.64
2022-11-15 21:15:11.4410,-0.13,-0.97,-0.68,1.19
2022-11-15 21:15:11.4410,-0.17,-0.95,-0.81,1.25
2022-11-15 21:15:11.4580,0.07,-0.65,-0.75,0.99
2022-11-15 21:15:11.4590,0.53,0.03,-0.82,0.97
2022-11-15 21:15:11.4740,0.66,0.53,-0.76,1.13
2022-11-15 21:15:11.4750,0.54,0.63,-0.2,0.85
2022-11-15 21:15:11.4900,0.75,0.54,0.14,0.93
2022-11-15 21:15:11.4910,1.23,0.5,-0.08,1.33
2022-11-15 21:15:11.5500,1.25,0.49,-0.34,1.38
2022-11-15 21:15:11.5510,0.7,0.54,-0.18,0.9
2022-11-15 21:15:11.5580,0.2,0.54,0.51,0.76
2022-11-15 21:15:11.5580,-0.31,0.45,1.24,1.35
2022-11-15 21:15:11.5750,-0.82,0.31,1.49,1.72
2022-11-15 21:15:11.5760,-1.03,0.13,1.17,1.56
2022-11-15 21:15:11.5910,-0.8,-0.09,0.52,0.95
2022-11-15 21:15:11.5920,-0.47,-0.34,-0.34,0.67
2022-11-15 21:15:11.6080,-0.26,-0.52,-1.07,1.21
2022-11-15 21:15:11.6090,-0.27,-0.54,-1.14,1.29
2022-11-15 21:15:11.6680,-0.5,-0.44,-0.69,0.95
2022-11-15 21:15:11.6690,-0.79,-0.32,-0.1,0.85
2022-11-15 21:15:11.6740,-0.92,-0.19,0.51,1.06
2022-11-15 21:15:11.6750,-0.86,-0.08,0.94,1.27
2022-11-15 21:15:11.6910,-0.61,-0.05,0.94,1.12
2022-11-15 21:15:11.6920,-0.28,-0.08,0.63,0.69
2022-11-15 21:15:11.7070,-0.01,-0.07,0.13,0.14
2022-11-15 21:15:11.7080,0.11,-0.06,-0.43,0.44
2022-11-15 21:15:11.7240,0.14,-0.04,-0.9,0.91
2022-11-15 21:15:11.7250,0.05,0.01,-1.32,1.32
2022-11-15 21:15:11.7840,-0.13,0.01,-1.51,1.51
2022-11-15 21:15:11.7850,-0.16,-0.05,-1.27,1.28
2022-11-15 21:15:11.7900,-0.09,-0.06,-0.61,0.61
2022-11-15 21:15:11.7900,-0.18,-0.22,0.1,0.3
2022-11-15 21:15:11.8080,-0.22,-0.39,0.46,0.64
2022-11-15 21:15:11.8090,-0.36,-0.4,0.51,0.74
2022-11-15 21:15:11.8240,-0.42,-0.42,0.36,0.69
2022-11-15 21:15:11.8250,-0.38,-0.4,0.13,0.56
2022-11-15 21:15:11.8400,-0.24,-0.29,-0.09,0.38
2022-11-15 21:15:11.8410,-0.1,-0.17,-0.2,0.28
2022-11-15 21:15:11.9000,0.0,-0.1,-0.15,0.18
2022-11-15 21:15:11.9010,0.07,-0.08,-0.04,0.11
2022-11-15 21:15:11.9090,0.12,-0.01,0.04,0.12
2022-11-15 21:15:11.9090,0.2,0.1,0.02,0.22
2022-11-15 21:15:11.9250,0.23,0.16,-0.11,0.3
2022-11-15 21:15:11.9250,0.15,0.12,-0.21,0.28
2022-11-15 21:15:11.9410,0.02,0.01,-0.22,0.22
2022-11-15 21:15:11.9410,-0.09,-0.06,-0.17,0.2
2022-11-15 21:15:11.9570,-0.15,-0.12,-0.07,0.2
2022-11-15 21:15:11.9580,-0.16,-0.21,0.06,0.27
2022-11-15 21:15:12.0180,-0.15,-0.2,0.09,0.26
2022-11-15 21:15:12.0190,-0.16,-0.11,0.01,0.19
2022-11-15 21:15:12.0220,-0.11,0.03,-0.1,0.15
2022-11-15 21:15:12.0230,-0.09,0.16,-0.21,0.27
2022-11-15 21:15:12.0410,-0.05,0.21,-0.29,0.36
2022-11-15 21:15:12.0420,-0.05,0.17,-0.28,0.33
2022-11-15 21:15:12.0570,-0.06,0.18,-0.18,0.26
2022-11-15 21:15:12.0580,-0.01,0.22,-0.01,0.22
2022-11-15 21:15:12.0740,-0.02,0.16,0.16,0.22
2022-11-15 21:15:12.0750,-0.08,0.07,0.28,0.29
2022-11-15 21:15:12.1330,-0.05,0.01,0.38,0.38
2022-11-15 21:15:12.1340,-0.08,-0.16,0.45,0.48
2022-11-15 21:15:12.1390,-0.12,-0.34,0.48,0.6
2022-11-15 21:15:12.1400,-0.12,-0.48,0.49,0.69
2022-11-15 21:15:12.1580,-0.09,-0.48,0.44,0.65
2022-11-15 21:15:12.1590,0.02,-0.29,0.32,0.43
2022-11-15 21:15:12.1740,0.11,-0.06,0.19,0.22
2022-11-15 21:15:12.1750,0.17,0.09,0.09,0.21
2022-11-15 21:15:12.1910,0.25,0.21,-0.02,0.32
2022-11-15 21:15:12.1920,0.21,0.14,-0.1,0.27
2022-11-15 21:15:12.2510,0.11,-0.02,-0.08,0.13
2022-11-15 21:15:12.2520,0.06,-0.06,-0.01,0.08
2022-11-15 21:15:12.2560,0.02,-0.02,0.05,0.05
2022-11-15 21:15:12.2560,-0.05,-0.02,0.07,0.08
2022-11-15 21:15:12.2750,-0.03,-0.03,0.02,0.04
2022-11-15 21:15:12.2750,-0.01,0.01,-0.1,0.1
2022-11-15 21:15:12.2900,-0.09,0.02,-0.13,0.15
2022-11-15 21:15:12.2910,-0.08,0.05,-0.08,0.12
2022-11-15 21:15:12.3070,0.03,0.11,-0.03,0.11
2022-11-15 21:15:12.3080,0.03,0.04,-0.07,0.08
2022-11-15 21:15:12.3650,-0.05,-0.09,-0.18,0.2
2022-11-15 21:15:12.3660,-0.08,-0.15,-0.26,0.31
2022-11-15 21:15:12.3750,-0.09,-0.15,-0.32,0.36
2022-11-15 21:15:12.3760,-0.13,-0.18,-0.27,0.34
2022-11-15 21:15:12.3910,-0.18,-0.21,-0.2,0.34
2022-11-15 21:15:12.3920,-0.27,-0.23,-0.13,0.37
2022-11-15 21:15:12.4080,-0.29,-0.19,-0.12,0.36
2022-11-15 21:15:12.4080,-0.24,-0.07,-0.15,0.29
2022-11-15 21:15:12.4240,-0.16,0.03,-0.2,0.25
2022-11-15 21:15:12.4250,-0.06,0.1,-0.23,0.25
2022-11-15 21:15:12.4830,0.02,0.11,-0.22,0.24
2022-11-15 21:15:12.4840,0.03,0.06,-0.2,0.21
2022-11-15 21:15:12.4900,-0.03,-0.12,-0.2,0.23
2022-11-15 21:15:12.4910,-0.02,-0.25,-0.19,0.31
2022-11-15 21:15:12.5090,0.05,-0.22,-0.13,0.26
2022-11-15 21:15:12.5090,0.05,-0.13,-0.03,0.14
2022-11-15 21:15:12.5240,0.01,-0.1,0.07,0.12
2022-11-15 21:15:12.5250,0.0,-0.06,0.05,0.07
2022-11-15 21:15:12.5400,0.03,0.03,-0.05,0.06
2022-11-15 21:15:12.5410,0.02,0.12,-0.13,0.17
2022-11-15 21:15:12.5990,0.04,0.2,-0.21,0.29
2022-11-15 21:15:12.5990,0.09,0.21,-0.28,0.36
2022-11-15 21:15:12.6080,0.1,0.1,-0.32,0.34
2022-11-15 21:15:12.6090,0.2,-0.01,-0.3,0.36
2022-11-15 21:15:12.6250,0.28,-0.01,-0.2,0.34
2022-11-15 21:15:12.6250,0.26,0.08,-0.12,0.29
2022-11-15 21:15:12.6400,0.19,0.11,0.01,0.21
2022-11-15 21:15:12.6410,0.06,-0.02,0.03,0.06
2022-11-15 21:15:12.6570,-0.09,-0.23,-0.09,0.26
2022-11-15 21:15:12.6580,-0.22,-0.33,-0.21,0.44
2022-11-15 21:15:12.7150,-0.19,-0.3,-0.28,0.45
2022-11-15 21:15:12.7160,-0.04,-0.24,-0.43,0.49
2022-11-15 21:15:12.7250,-0.19,-0.18,-0.58,0.63
2022-11-15 21:15:12.7260,-0.54,-0.08,-0.54,0.76
2022-11-15 21:15:12.7410,-0.91,0.05,-0.23,0.93
2022-11-15 21:15:12.7420,-1.16,0.12,0.19,1.18
2022-11-15 21:15:12.7570,-1.12,0.2,0.13,1.14
2022-11-15 21:15:12.7580,-0.86,0.21,-0.18,0.9
2022-11-15 21:15:12.7740,-0.47,0.11,-0.15,0.5
2022-11-15 21:15:12.7750,-0.06,-0.03,-0.01,0.06
2022-11-15 21:15:12.8320,0.25,-0.19,0.23,0.38
2022-11-15 21:15:12.8330,0.42,-0.32,0.4,0.66
2022-11-15 21:15:12.8420,0.36,-0.41,0.15,0.56
2022-11-15 21:15:12.8430,0.19,-0.38,-0.14,0.44
2022-11-15 21:15:12.8580,0.03,-0.27,-0.05,0.27
2022-11-15 21:15:12.8590,0.09,-0.13,0.15,0.21
2022-11-15 21:15:12.8740,0.31,-0.04,0.1,0.32
2022-11-15 21:15:12.8750,0.1,-0.06,-0.22,0.24
2022-11-15 21:15:12.8900,-0.59,-0.12,-0.25,0.65
2022-11-15 21:15:12.8910,-0.53,-0.06,0.14,0.55
2022-11-15 21:15:12.9480,-0.02,0.04,0.39,0.39
2022-11-15 21:15:12.9490,0.11,-0.03,0.28,0.3
2022-11-15 21:15:12.9590,-0.03,-0.16,0.07,0.17
2022-11-15 21:15:12.9590,-0.27,-0.23,-0.09,0.36
2022-11-15 21:15:12.9750,-0.52,-0.34,-0.11,0.63
2022-11-15 21:15:12.9750,-0.74,-0.58,-0.22,0.96
2022-11-15 21:15:12.9900,-0.58,-0.74,-0.18,0.95
2022-11-15 21:15:12.9910,-0.06,-0.67,0.12,0.68
2022-11-15 21:15:13.0070,0.16,-0.6,0.01,0.62
2022-11-15 21:15:13.0080,0.25,-0.6,-0.16,0.66
2022-11-15 21:15:13.0660,0.29,-0.51,-0.22,0.62
2022-11-15 21:15:13.0670,0.17,-0.39,-0.26,0.49
2022-11-15 21:15:13.0720,-0.21,-0.43,-0.3,0.56
2022-11-15 21:15:13.0730,-0.32,-0.61,-0.19,0.71
2022-11-15 21:15:13.0890,0.22,-0.66,0.19,0.72
2022-11-15 21:15:13.0900,0.67,-0.56,0.34,0.93
2022-11-15 21:15:13.1060,0.78,-0.39,0.21,0.89
2022-11-15 21:15:13.1070,0.79,-0.18,-0.01,0.81
2022-11-15 21:15:13.1230,0.9,0.19,-0.18,0.93
2022-11-15 21:15:13.1240,0.9,0.59,-0.42,1.15
2022-11-15 21:15:13.1800,0.92,0.95,-0.7,1.49
2022-11-15 21:15:13.1810,0.97,1.24,-0.86,1.79
2022-11-15 21:15:13.1920,0.77,1.34,-1.0,1.84
2022-11-15 21:15:13.1920,0.6,1.19,-0.91,1.61
2022-11-15 21:15:13.2080,0.67,1.09,-0.58,1.4
2022-11-15 21:15:13.2090,0.74,1.02,-0.21,1.27
2022-11-15 21:15:13.2240,0.76,0.77,0.16,1.09
2022-11-15 21:15:13.2250,0.51,0.57,0.37,0.84
2022-11-15 21:15:13.2400,0.4,0.42,0.54,0.79
2022-11-15 21:15:13.2410,0.35,0.31,0.57,0.73
2022-11-15 21:15:13.3000,0.11,0.19,0.53,0.57
2022-11-15 21:15:13.3010,-0.19,0.02,0.42,0.46
2022-11-15 21:15:13.3090,-0.43,-0.21,0.46,0.66
2022-11-15 21:15:13.3090,-0.69,-0.45,0.52,0.97
2022-11-15 21:15:13.3250,-1.01,-0.68,0.28,1.24
2022-11-15 21:15:13.3250,-1.29,-0.94,0.22,1.61
2022-11-15 21:15:13.3410,-1.21,-0.97,-0.03,1.55
2022-11-15 21:15:13.3410,-0.97,-0.78,-0.46,1.32
2022-11-15 21:15:13.3570,-0.78,-0.54,-0.71,1.18
2022-11-15 21:15:13.3580,-0.6,-0.28,-0.75,1.0
2022-11-15 21:15:13.4150,-0.54,-0.1,-0.65,0.85
2022-11-15 21:15:13.4160,-0.54,-0.09,-0.42,0.69
2022-11-15 21:15:13.4250,-0.52,-0.19,-0.16,0.57
2022-11-15 21:15:13.4260,-0.51,-0.31,0.04,0.59
2022-11-15 21:15:13.4410,-0.5,-0.37,0.08,0.62
2022-11-15 21:15:13.4420,-0.41,-0.36,-0.01,0.54
2022-11-15 21:15:13.4570,-0.27,-0.27,-0.16,0.41
2022-11-15 21:15:13.4580,-0.19,-0.14,-0.24,0.33
2022-11-15 21:15:13.4740,-0.13,0.02,-0.17,0.21
2022-11-15 21:15:13.4750,-0.03,0.13,-0.02,0.13
2022-11-15 21:15:13.5320,0.09,0.1,0.09,0.16
2022-11-15 21:15:13.5330,0.19,-0.06,0.16,0.25
2022-11-15 21:15:13.5420,0.3,-0.16,0.16,0.37
2022-11-15 21:15:13.5420,0.36,-0.14,0.1,0.39
2022-11-15 21:15:13.5580,0.29,-0.09,0.01,0.3
2022-11-15 21:15:13.5590,0.14,0.01,-0.03,0.14
2022-11-15 21:15:13.5740,0.0,0.05,0.0,0.05
2022-11-15 21:15:13.5750,-0.13,0.01,-0.06,0.14
2022-11-15 21:15:13.5900,-0.19,0.02,-0.14,0.23
2022-11-15 21:15:13.5910,-0.17,0.02,-0.1,0.19
2022-11-15 21:15:13.6480,-0.17,0.0,-0.02,0.17
2022-11-15 21:15:13.6490,-0.18,-0.08,0.04,0.2
2022-11-15 21:15:13.6580,-0.21,-0.13,0.07,0.25
2022-11-15 21:15:13.6590,-0.2,-0.2,0.09,0.29
2022-11-15 21:15:13.6750,-0.2,-0.35,0.07,0.4
2022-11-15 21:15:13.6750,-0.2,-0.46,0.01,0.5
2022-11-15 21:15:13.6900,-0.18,-0.44,-0.06,0.47
2022-11-15 21:15:13.6910,-0.13,-0.28,-0.11,0.32
2022-11-15 21:15:13.7070,-0.1,-0.12,-0.15,0.21
2022-11-15 21:15:13.7080,-0.07,-0.03,-0.15,0.16
2022-11-15 21:15:13.7640,-0.02,0.03,-0.09,0.09
2022-11-15 21:15:13.7650,0.01,0.08,-0.09,0.12
2022-11-15 21:15:13.7750,0.03,0.12,-0.08,0.14
2022-11-15 21:15:13.7760,0.1,0.12,-0.04,0.16
2022-11-15 21:15:13.7910,0.16,0.06,0.0,0.17
2022-11-15 21:15:13.7920,0.16,-0.08,0.02,0.18
2022-11-15 21:15:13.8070,0.07,-0.25,0.03,0.26
2022-11-15 21:15:13.8080,-0.01,-0.26,-0.02,0.26
2022-11-15 21:15:13.8240,-0.05,-0.09,-0.16,0.19
2022-11-15 21:15:13.8250,-0.06,0.06,-0.21,0.22
2022-11-15 21:15:13.8810,-0.05,0.06,-0.17,0.18
2022-11-15 21:15:13.8820,-0.09,-0.03,-0.16,0.18
2022-11-15 21:15:13.8910,-0.15,-0.14,-0.16,0.26
2022-11-15 21:15:13.8920,-0.15,-0.18,-0.15,0.27
2022-11-15 21:15:13.8930,-0.14,-0.21,-0.14,0.28
2022-11-15 21:15:13.9080,-0.17,-0.28,-0.12,0.34
2022-11-15 21:15:13.9090,-0.18,-0.33,-0.11,0.39
2022-11-15 21:15:13.9240,-0.17,-0.29,-0.07,0.34
2022-11-15 21:15:13.9240,-0.11,-0.22,-0.04,0.24
2022-11-15 21:15:13.9400,-0.03,-0.1,-0.04,0.11
2022-11-15 21:15:13.9960,0.01,0.01,-0.05,0.05
2022-11-15 21:15:13.9970,0.06,0.13,-0.01,0.14
2022-11-15 21:15:14.0090,0.12,0.26,0.01,0.28
2022-11-15 21:15:14.0090,0.18,0.33,0.0,0.37
2022-11-15 21:15:14.0250,0.13,0.24,-0.02,0.27
2022-11-15 21:15:14.0250,0.03,0.1,-0.04,0.11
2022-11-15 21:15:14.0400,-0.07,0.0,0.02,0.07
2022-11-15 21:15:14.0410,-0.11,-0.03,0.12,0.16
2022-11-15 21:15:14.0570,-0.11,-0.03,0.09,0.14
2022-11-15 21:15:14.0580,-0.03,0.0,0.02,0.03
2022-11-15 21:15:14.1130,0.02,0.08,0.01,0.08
2022-11-15 21:15:14.1130,0.05,0.13,0.0,0.13
2022-11-15 21:15:14.1250,0.05,0.14,0.0,0.14
2022-11-15 21:15:14.1260,0.05,0.14,0.01,0.14
2022-11-15 21:15:14.1260,0.04,0.11,0.01,0.11
2022-11-15 21:15:14.1420,0.0,0.06,0.03,0.06
2022-11-15 21:15:14.1420,-0.02,0.02,0.06,0.06
2022-11-15 21:15:14.1430,-0.02,-0.02,0.01,0.03
2022-11-15 21:15:14.1570,-0.06,-0.07,-0.02,0.09
2022-11-15 21:15:14.1580,-0.1,-0.05,0.0,0.11
2022-11-15 21:15:14.2130,-0.09,0.06,-0.01,0.1
2022-11-15 21:15:14.2130,-0.04,0.21,0.07,0.22
2022-11-15 21:15:14.2240,0.01,0.36,0.2,0.41
2022-11-15 21:15:14.2250,0.02,0.43,0.28,0.51
2022-11-15 21:15:14.2410,-0.05,0.4,0.28,0.49
2022-11-15 21:15:14.2420,-0.12,0.34,0.22,0.42
2022-11-15 21:15:14.2570,-0.19,0.19,0.18,0.32
2022-11-15 21:15:14.2580,-0.21,0.06,0.16,0.27
2022-11-15 21:15:14.2740,-0.2,0.01,0.21,0.29
2022-11-15 21:15:14.2750,-0.17,0.0,0.34,0.38
2022-11-15 21:15:14.3300,-0.13,0.03,0.43,0.45
2022-11-15 21:15:14.3310,-0.07,0.08,0.41,0.42
2022-11-15 21:15:14.3420,-0.02,0.11,0.32,0.33
2022-11-15 21:15:14.3430,0.01,0.13,0.24,0.27
2022-11-15 21:15:14.3600,0.0,0.16,0.2,0.25
2022-11-15 21:15:14.3610,0.04,0.18,0.19,0.26
2022-11-15 21:15:14.3740,0.08,0.16,0.17,0.24
2022-11-15 21:15:14.3750,0.1,0.12,0.12,0.19
2022-11-15 21:15:14.3900,0.12,0.06,0.02,0.13
2022-11-15 21:15:14.3910,0.11,0.03,-0.06,0.12
2022-11-15 21:15:14.4460,0.05,-0.04,-0.09,0.11
2022-11-15 21:15:14.4460,-0.04,-0.16,-0.09,0.18
2022-11-15 21:15:14.4580,-0.12,-0.29,-0.08,0.32
2022-11-15 21:15:14.4590,-0.19,-0.37,-0.08,0.42
2022-11-15 21:15:14.4730,-0.22,-0.37,-0.15,0.45
2022-11-15 21:15:14.4730,-0.21,-0.28,-0.16,0.38
2022-11-15 21:15:14.4890,-0.14,-0.19,-0.11,0.26
2022-11-15 21:15:14.4900,-0.05,-0.17,-0.12,0.21
2022-11-15 21:15:14.5060,0.01,-0.17,-0.17,0.24
2022-11-15 21:15:14.5070,0.15,-0.22,-0.21,0.33
2022-11-15 21:15:14.5620,0.13,-0.36,-0.33,0.5
2022-11-15 21:15:14.5630,0.1,-0.44,-0.47,0.65
2022-11-15 21:15:14.5720,0.03,-0.43,-0.5,0.66
2022-11-15 21:15:14.5730,-0.07,-0.38,-0.47,0.6
2022-11-15 21:15:14.5920,-0.09,-0.28,-0.4,0.49
2022-11-15 21:15:14.5920,-0.03,-0.22,-0.38,0.44
2022-11-15 21:15:14.6080,-0.05,-0.23,-0.46,0.51
2022-11-15 21:15:14.6080,-0.03,-0.19,-0.48,0.51
2022-11-15 21:15:14.6240,-0.06,-0.22,-0.39,0.45
2022-11-15 21:15:14.6250,-0.08,-0.32,-0.32,0.45
2022-11-15 21:15:14.6790,-0.09,-0.38,-0.33,0.51
2022-11-15 21:15:14.6800,-0.1,-0.38,-0.33,0.51
2022-11-15 21:15:14.6920,-0.09,-0.34,-0.29,0.45
2022-11-15 21:15:14.6930,-0.01,-0.24,-0.28,0.36
2022-11-15 21:15:14.7080,0.06,-0.15,-0.31,0.34
2022-11-15 21:15:14.7080,0.08,-0.14,-0.33,0.36
2022-11-15 21:15:14.7240,0.08,-0.17,-0.29,0.34
2022-11-15 21:15:14.7250,0.04,-0.17,-0.25,0.3
2022-11-15 21:15:14.7400,-0.02,-0.2,-0.24,0.31
2022-11-15 21:15:14.7410,-0.02,-0.17,-0.27,0.31
2022-11-15 21:15:14.7950,0.05,-0.12,-0.27,0.29
2022-11-15 21:15:14.7960,0.16,-0.16,-0.22,0.31
2022-11-15 21:15:14.8060,0.24,-0.2,-0.16,0.35
2022-11-15 21:15:14.8070,0.22,-0.14,-0.07,0.27
2022-11-15 21:15:14.8220,0.19,-0.01,0.0,0.19
2022-11-15 21:15:14.8230,0.16,0.1,-0.01,0.18
2022-11-15 21:15:14.8390,0.09,0.14,-0.01,0.16
2022-11-15 21:15:14.8400,0.0,0.11,-0.05,0.12
2022-11-15 21:15:14.8570,-0.09,0.03,-0.16,0.18
2022-11-15 21:15:14.8580,-0.15,-0.02,-0.26,0.3
2022-11-15 21:15:14.9120,-0.19,-0.02,-0.26,0.32
2022-11-15 21:15:14.9130,-0.24,-0.03,-0.2,0.31
2022-11-15 21:15:14.9250,-0.23,-0.04,-0.12,0.26
2022-11-15 21:15:14.9260,-0.16,-0.01,-0.09,0.18
2022-11-15 21:15:14.9410,-0.06,0.03,-0.03,0.07
2022-11-15 21:15:14.9420,0.01,-0.02,0.01,0.02
2022-11-15 21:15:14.9570,0.03,-0.08,0.0,0.08
2022-11-15 21:15:14.9580,0.07,-0.1,-0.08,0.14
2022-11-15 21:15:14.9740,0.12,-0.06,-0.12,0.18
2022-11-15 21:15:14.9750,0.15,0.01,-0.11,0.18
2022-11-15 21:15:15.0290,0.14,0.13,-0.13,0.23
2022-11-15 21:15:15.0300,0.1,0.21,-0.16,0.28
2022-11-15 21:15:15.0420,0.05,0.15,-0.17,0.23
2022-11-15 21:15:15.0430,0.02,0.11,-0.19,0.22
2022-11-15 21:15:15.0580,-0.04,0.08,-0.19,0.21
2022-11-15 21:15:15.0580,-0.13,0.01,-0.13,0.18
2022-11-15 21:15:15.0740,-0.19,0.01,-0.09,0.21
2022-11-15 21:15:15.0740,-0.19,0.03,-0.06,0.2
2022-11-15 21:15:15.0900,-0.15,0.02,-0.08,0.17
2022-11-15 21:15:15.0910,-0.09,-0.02,-0.12,0.15
2022-11-15 21:15:15.1450,-0.02,-0.06,-0.17,0.18
2022-11-15 21:15:15.1460,0.06,-0.13,-0.16,0.21
2022-11-15 21:15:15.1580,0.07,-0.17,-0.14,0.23
2022-11-15 21:15:15.1590,0.0,-0.12,-0.2,0.23
2022-11-15 21:15:15.1740,-0.02,0.13,-0.57,0.58
2022-11-15 21:15:15.1750,0.08,0.41,-0.59,0.72
2022-11-15 21:15:15.1900,0.1,0.33,-0.24,0.42
2022-11-15 21:15:15.1910,0.04,0.01,0.18,0.18
2022-11-15 21:15:15.2070,0.04,-0.19,0.44,0.48
2022-11-15 21:15:15.2080,0.0,-0.32,0.42,0.52
2022-11-15 21:15:15.2610,-0.14,-0.32,0.29,0.45
2022-11-15 21:15:15.2620,-0.29,-0.31,0.31,0.52
2022-11-15 21:15:15.2750,-0.3,-0.34,-0.08,0.46
2022-11-15 21:15:15.2760,-0.19,-0.29,-0.8,0.87
2022-11-15 21:15:15.2910,-0.33,-0.35,-0.56,0.73
2022-11-15 21:15:15.2920,-0.48,-0.63,-0.05,0.79
2022-11-15 21:15:15.3070,-0.41,-0.71,0.15,0.83
2022-11-15 21:15:15.3080,-0.23,-0.6,0.25,0.68
2022-11-15 21:15:15.3240,-0.15,-0.52,0.39,0.66
2022-11-15 21:15:15.3250,-0.13,-0.43,0.5,0.67
2022-11-15 21:15:15.3770,-0.14,-0.31,0.38,0.51
2022-11-15 21:15:15.3780,-0.09,-0.2,0.21,0.3
2022-11-15 21:15:15.3920,-0.09,-0.17,0.1,0.21
2022-11-15 21:15:15.3930,-0.15,-0.16,0.16,0.27
2022-11-15 21:15:15.4080,-0.2,-0.15,0.31,0.39
2022-11-15 21:15:15.4090,-0.2,-0.11,0.36,0.42
2022-11-15 21:15:15.4240,-0.2,-0.1,0.39,0.44
2022-11-15 21:15:15.4240,-0.22,-0.08,0.44,0.49
2022-11-15 21:15:15.4400,-0.12,0.04,0.42,0.43
2022-11-15 21:15:15.4410,-0.01,0.15,0.36,0.39
2022-11-15 21:15:15.4940,0.04,0.18,0.29,0.34
2022-11-15 21:15:15.4950,0.1,0.22,0.23,0.33
2022-11-15 21:15:15.5080,0.12,0.29,0.16,0.35
2022-11-15 21:15:15.5090,0.08,0.34,0.1,0.36
2022-11-15 21:15:15.5240,0.04,0.37,0.06,0.37
2022-11-15 21:15:15.5250,-0.05,0.37,-0.03,0.37
2022-11-15 21:15:15.5400,-0.06,0.43,-0.13,0.45
2022-11-15 21:15:15.5410,-0.01,0.51,-0.1,0.51
2022-11-15 21:15:15.5570,0.03,0.44,0.02,0.44
2022-11-15 21:15:15.5580,0.03,0.24,0.16,0.28
2022-11-15 21:15:15.6100,0.05,0.0,0.28,0.28
2022-11-15 21:15:15.6110,0.11,-0.21,0.27,0.35
2022-11-15 21:15:15.6250,0.06,-0.4,0.17,0.43
2022-11-15 21:15:15.6260,0.01,-0.46,0.06,0.46
2022-11-15 21:15:15.6420,-0.02,-0.37,-0.12,0.38
2022-11-15 21:15:15.6420,-0.06,-0.16,-0.3,0.34
2022-11-15 21:15:15.6570,-0.14,-0.05,-0.41,0.43
2022-11-15 21:15:15.6580,-0.14,-0.12,-0.49,0.52
2022-11-15 21:15:15.6740,-0.07,-0.3,-0.49,0.57
2022-11-15 21:15:15.6750,0.0,-0.43,-0.4,0.58
2022-11-15 21:15:15.7270,0.02,-0.43,-0.36,0.56
2022-11-15 21:15:15.7280,0.0,-0.39,-0.36,0.53
2022-11-15 21:15:15.7420,-0.02,-0.31,-0.38,0.49
2022-11-15 21:15:15.7420,-0.02,-0.25,-0.4,0.47
2022-11-15 21:15:15.7580,0.01,-0.16,-0.4,0.43
2022-11-15 21:15:15.7580,0.06,0.03,-0.36,0.36
2022-11-15 21:15:15.7730,0.12,0.18,-0.33,0.39
2022-11-15 21:15:15.7740,0.08,0.14,-0.29,0.33
2022-11-15 21:15:15.7900,-0.01,0.02,-0.28,0.28
2022-11-15 21:15:15.7910,-0.11,0.01,-0.34,0.35
2022-11-15 21:15:15.8430,-0.18,0.14,-0.46,0.51
2022-11-15 21:15:15.8440,-0.23,0.26,-0.54,0.64
2022-11-15 21:15:15.8580,-0.23,0.27,-0.54,0.64
2022-11-15 21:15:15.8590,-0.14,0.25,-0.53,0.6
2022-11-15 21:15:15.8740,-0.05,0.28,-0.5,0.57
2022-11-15 21:15:15.8750,0.0,0.36,-0.39,0.53
2022-11-15 21:15:15.8900,0.06,0.49,-0.27,0.56
2022-11-15 21:15:15.8910,0.17,0.64,-0.15,0.67
2022-11-15 21:15:15.9070,0.14,0.61,-0.03,0.62
2022-11-15 21:15:15.9080,-0.04,0.41,0.08,0.41
2022-11-15 21:15:15.9600,-0.14,0.13,0.15,0.24
2022-11-15 21:15:15.9610,-0.18,-0.05,0.13,0.22
2022-11-15 21:15:15.9750,-0.17,-0.13,0.08,0.22
2022-11-15 21:15:15.9760,-0.01,-0.09,0.1,0.13
2022-11-15 21:15:15.9910,0.16,-0.03,0.12,0.2
2022-11-15 21:15:15.9920,0.31,0.12,0.14,0.36
2022-11-15 21:15:16.0070,0.55,0.32,0.17,0.65
2022-11-15 21:15:16.0080,0.81,0.51,0.25,0.98
2022-11-15 21:15:16.0240,1.04,0.7,0.37,1.3
2022-11-15 21:15:16.0250,1.12,0.86,0.59,1.53
2022-11-15 21:15:16.0770,1.03,0.88,0.84,1.59
2022-11-15 21:15:16.0780,0.67,0.77,1.09,1.49
2022-11-15 21:15:16.0920,0.31,0.63,1.3,1.47
2022-11-15 21:15:16.0930,-0.01,0.49,1.36,1.44
2022-11-15 21:15:16.1080,-0.23,0.38,1.27,1.34
2022-11-15 21:15:16.1090,-0.33,0.29,1.08,1.16
2022-11-15 21:15:16.1240,-0.38,0.26,0.93,1.03
2022-11-15 21:15:16.1240,-0.31,0.2,0.89,0.96
2022-11-15 21:15:16.1400,-0.27,0.13,0.88,0.92
2022-11-15 21:15:16.1410,-0.37,0.1,0.85,0.93
2022-11-15 21:15:16.1940,-0.48,0.17,0.75,0.9
2022-11-15 21:15:16.1950,-0.46,0.4,0.58,0.84
2022-11-15 21:15:16.2090,-0.39,0.65,0.44,0.87
2022-11-15 21:15:16.2100,-0.31,0.91,0.37,1.03
2022-11-15 21:15:16.2240,-0.13,1.23,0.36,1.28
2022-11-15 21:15:16.2250,0.08,1.46,0.48,1.53
2022-11-15 21:15:16.2400,0.19,1.48,0.68,1.63
2022-11-15 21:15:16.2410,0.31,1.37,0.89,1.66
2022-11-15 21:15:16.2570,0.33,1.17,0.99,1.56
2022-11-15 21:15:16.2580,0.3,0.93,0.98,1.38
2022-11-15 21:15:16.3100,0.29,0.74,0.96,1.24
2022-11-15 21:15:16.3110,0.36,0.64,0.93,1.18
2022-11-15 21:15:16.3250,0.4,0.62,0.86,1.13
2022-11-15 21:15:16.3260,0.28,0.77,0.74,1.1
2022-11-15 21:15:16.3410,0.25,1.0,0.7,1.24
2022-11-15 21:15:16.3420,0.4,1.16,0.73,1.42
2022-11-15 21:15:16.3570,0.41,1.15,0.76,1.43
2022-11-15 21:15:16.3580,0.18,0.98,0.79,1.27
2022-11-15 21:15:16.3740,-0.03,0.71,0.8,1.07
2022-11-15 21:15:16.3750,0.28,0.61,0.68,0.95
2022-11-15 21:15:16.4280,0.81,0.83,0.37,1.21
2022-11-15 21:15:16.4280,1.08,1.1,0.04,1.54
2022-11-15 21:15:16.4420,1.49,1.38,-0.1,2.03
2022-11-15 21:15:16.4430,2.19,1.76,-0.13,2.81
2022-11-15 21:15:16.4580,2.24,1.83,0.0,2.89
2022-11-15 21:15:16.4590,1.93,1.67,0.16,2.55
2022-11-15 21:15:16.4740,1.42,1.4,0.46,2.04
2022-11-15 21:15:16.4740,1.19,1.3,0.9,1.97
2022-11-15 21:15:16.4900,1.25,1.25,1.35,2.22
2022-11-15 21:15:16.4910,1.34,1.07,1.68,2.4
2022-11-15 21:15:16.5440,1.18,0.73,1.79,2.26
2022-11-15 21:15:16.5450,0.79,0.44,1.69,1.91
2022-11-15 21:15:16.5590,0.48,0.4,1.52,1.64
2022-11-15 21:15:16.5590,0.65,0.6,1.13,1.43
2022-11-15 21:15:16.5750,0.87,0.86,0.78,1.45
2022-11-15 21:15:16.5750,1.1,0.94,0.83,1.66
2022-11-15 21:15:16.5900,0.99,0.8,1.6,2.04
2022-11-15 21:15:16.5910,0.76,0.48,2.47,2.62
2022-11-15 21:15:16.6070,1.06,0.22,1.97,2.24
2022-11-15 21:15:16.6080,1.3,-0.09,0.8,1.52
2022-11-15 21:15:16.6590,1.35,-0.13,0.05,1.35
2022-11-15 21:15:16.6600,1.45,0.37,-0.44,1.55
2022-11-15 21:15:16.6750,1.51,0.65,-0.91,1.87
2022-11-15 21:15:16.6760,1.35,0.38,-1.43,2.0
2022-11-15 21:15:16.6910,0.62,-0.49,-1.8,1.96
2022-11-15 21:15:16.6920,0.29,-0.82,-2.14,2.31
2022-11-15 21:15:16.7070,0.21,-0.84,-1.95,2.13
2022-11-15 21:15:16.7080,-0.52,-1.35,-0.66,1.59
2022-11-15 21:15:16.7240,-0.57,-1.46,0.21,1.58
2022-11-15 21:15:16.7240,-0.77,-1.47,0.2,1.67
2022-11-15 21:15:16.7770,-2.98,-2.21,0.86,3.8
2022-11-15 21:15:16.7780,-4.16,-2.61,1.28,5.07
2022-11-15 21:15:16.7920,-4.55,-2.66,1.51,5.48
2022-11-15 21:15:16.7930,-4.66,-2.5,1.72,5.56
2022-11-15 21:15:16.8080,-4.46,-1.9,2.04,5.25
2022-11-15 21:15:16.8090,-4.19,-1.03,2.21,4.84
2022-11-15 21:15:16.8240,-3.63,-0.05,2.09,4.18
2022-11-15 21:15:16.8240,-2.53,0.73,1.75,3.16
2022-11-15 21:15:16.8400,-1.3,0.9,1.39,2.1
2022-11-15 21:15:16.8410,-0.14,0.61,0.89,1.08
2022-11-15 21:15:16.8940,0.91,0.31,0.32,1.01
2022-11-15 21:15:16.8950,1.2,0.15,-0.07,1.21
2022-11-15 21:15:16.9090,1.57,0.25,-0.09,1.59
2022-11-15 21:15:16.9090,1.9,0.25,0.31,1.94
2022-11-15 21:15:16.9240,1.83,0.15,0.43,1.88
2022-11-15 21:15:16.9250,1.42,0.13,-0.33,1.46
2022-11-15 21:15:16.9400,0.91,0.01,-1.19,1.49
2022-11-15 21:15:16.9410,0.55,-0.07,-1.39,1.49
2022-11-15 21:15:16.9570,0.32,0.06,-1.16,1.2
2022-11-15 21:15:16.9580,-0.18,0.17,-0.74,0.78
2022-11-15 21:15:17.0100,-1.13,0.16,-0.23,1.16
2022-11-15 21:15:17.0110,-2.62,0.0,0.24,2.63
2022-11-15 21:15:17.0250,-4.0,0.1,0.59,4.04
2022-11-15 21:15:17.0260,-4.89,0.47,1.01,5.01
2022-11-15 21:15:17.0410,-5.17,1.2,1.25,5.45
2022-11-15 21:15:17.0420,-4.53,2.06,1.46,5.18
2022-11-15 21:15:17.0570,-3.7,2.39,1.85,4.77
2022-11-15 21:15:17.0580,-3.85,2.13,2.4,5.01
2022-11-15 21:15:17.0740,-4.25,1.75,2.92,5.44
2022-11-15 21:15:17.0750,-4.3,1.52,3.31,5.63
2022-11-15 21:15:17.1260,-3.97,1.33,3.58,5.5
2022-11-15 21:15:17.1270,-3.52,1.28,3.76,5.3
2022-11-15 21:15:17.1420,-2.95,1.71,3.84,5.13
2022-11-15 21:15:17.1420,-2.35,1.88,3.68,4.75
2022-11-15 21:15:17.1580,-1.9,1.59,3.16,4.01
2022-11-15 21:15:17.1580,-1.86,1.13,2.33,3.18
2022-11-15 21:15:17.1740,-2.06,0.57,1.14,2.42
2022-11-15 21:15:17.1750,-2.03,0.01,-0.15,2.03
2022-11-15 21:15:17.1900,-1.89,-0.62,-1.12,2.28
2022-11-15 21:15:17.1910,-1.62,-1.3,-1.53,2.57
2022-11-15 21:15:17.2430,-1.24,-1.77,-1.17,2.45
2022-11-15 21:15:17.2440,-0.85,-2.0,-0.46,2.22
2022-11-15 21:15:17.2590,-0.06,-2.35,0.92,2.52
2022-11-15 21:15:17.2590,0.91,-2.51,3.07,4.06
2022-11-15 21:15:17.2740,1.33,-2.35,4.09,4.9
2022-11-15 21:15:17.2750,1.56,-2.05,4.15,4.88
2022-11-15 21:15:17.2900,1.67,-1.82,3.49,4.27
2022-11-15 21:15:17.2910,1.66,-1.87,2.14,3.29
2022-11-15 21:15:17.3070,1.98,-1.95,0.78,2.88
2022-11-15 21:15:17.3080,2.88,-1.8,0.22,3.4
2022-11-15 21:15:17.3600,4.05,-1.42,0.08,4.29
2022-11-15 21:15:17.3610,4.08,-0.85,-0.67,4.22
2022-11-15 21:15:17.3750,3.13,-0.04,-1.65,3.53
2022-11-15 21:15:17.3760,1.62,0.87,-2.7,3.26
2022-11-15 21:15:17.3910,0.19,1.83,-3.51,3.96
2022-11-15 21:15:17.3920,-0.86,2.6,-3.85,4.72
2022-11-15 21:15:17.4070,-1.43,3.0,-3.86,5.09
2022-11-15 21:15:17.4080,-1.5,2.98,-3.72,4.99
2022-11-15 21:15:17.4240,-1.14,2.56,-3.34,4.35
2022-11-15 21:15:17.4250,-0.48,1.84,-2.7,3.3
2022-11-15 21:15:17.4770,0.19,0.92,-2.02,2.22
2022-11-15 21:15:17.4780,0.84,-0.12,-1.16,1.43
2022-11-15 21:15:17.4920,1.5,-1.04,-0.06,1.82
2022-11-15 21:15:17.4920,1.92,-1.69,1.07,2.77
2022-11-15 21:15:17.5080,2.03,-1.91,2.13,3.5
2022-11-15 21:15:17.5080,1.77,-1.59,2.88,3.73
2022-11-15 21:15:17.5240,1.13,-0.73,3.15,3.42
2022-11-15 21:15:17.5240,0.34,0.42,2.72,2.77
2022-11-15 21:15:17.5400,-0.31,1.48,1.67,2.25
2022-11-15 21:15:17.5410,-0.77,2.3,0.41,2.45
2022-11-15 21:15:17.5940,-1.0,2.85,-0.78,3.11
2022-11-15 21:15:17.5950,-1.01,3.1,-1.85,3.74
2022-11-15 21:15:17.6080,-0.87,3.1,-2.61,4.14
2022-11-15 21:15:17.6090,-0.61,2.9,-2.96,4.18
2022-11-15 21:15:17.6240,-0.24,2.48,-2.78,3.73
2022-11-15 21:15:17.6250,0.15,1.77,-2.02,2.68
2022-11-15 21:15:17.6400,0.46,0.99,-0.73,1.31
2022-11-15 21:15:17.6410,0.62,0.4,0.79,1.08
2022-11-15 21:15:17.6570,0.68,0.03,2.25,2.35
2022-11-15 21:15:17.6580,0.62,-0.21,3.41,3.47
2022-11-15 21:15:17.7110,0.39,-0.3,4.01,4.04
2022-11-15 21:15:17.7120,0.03,-0.29,4.07,4.08
2022-11-15 21:15:17.7250,-0.33,-0.21,3.71,3.73
2022-11-15 21:15:17.7260,-0.64,-0.09,2.95,3.01
2022-11-15 21:15:17.7410,-0.81,0.08,1.9,2.06
2022-11-15 21:15:17.7420,-0.8,0.24,0.83,1.17
2022-11-15 21:15:17.7570,-0.64,0.34,0.02,0.72
2022-11-15 21:15:17.7580,-0.42,0.39,-0.43,0.71
2022-11-15 21:15:17.7730,-0.23,0.41,-0.56,0.73
2022-11-15 21:15:17.7740,-0.11,0.42,-0.46,0.63
2022-11-15 21:15:17.8280,0.01,0.47,-0.2,0.51
2022-11-15 21:15:17.8280,0.19,0.58,0.22,0.64
2022-11-15 21:15:17.8430,0.52,0.7,0.88,1.23
2022-11-15 21:15:17.8430,1.0,0.73,1.8,2.18
2022-11-15 21:15:17.8580,1.65,0.63,2.78,3.29
2022-11-15 21:15:17.8580,2.27,0.42,3.42,4.12
2022-11-15 21:15:17.8740,2.71,0.24,3.41,4.36
2022-11-15 21:15:17.8740,2.91,0.08,2.77,4.01
2022-11-15 21:15:17.8900,2.82,-0.06,2.04,3.48
2022-11-15 21:15:17.8910,2.57,-0.15,1.55,3.0
2022-11-15 21:15:17.9450,2.16,-0.08,1.55,2.65
2022-11-15 21:15:17.9460,1.49,-0.01,1.92,2.43
2022-11-15 21:15:17.9580,0.71,-0.12,2.07,2.19
2022-11-15 21:15:17.9590,0.03,-0.33,1.58,1.61
2022-11-15 21:15:17.9740,-0.29,-0.61,0.62,0.91
2022-11-15 21:15:17.9750,-0.04,-1.14,-0.39,1.2
2022-11-15 21:15:17.9900,0.69,-1.53,-1.1,2.0
2022-11-15 21:15:17.9910,1.26,-1.37,-1.51,2.39
2022-11-15 21:15:18.0070,1.31,-1.04,-1.62,2.32
2022-11-15 21:15:18.0080,0.91,-0.81,-1.6,2.01
2022-11-15 21:15:18.0610,0.34,-0.64,-1.63,1.78
2022-11-15 21:15:18.0620,-0.13,-0.81,-1.7,1.88
2022-11-15 21:15:18.0750,-0.31,-1.54,-1.8,2.38
2022-11-15 21:15:18.0760,-0.22,-2.64,-1.91,3.26
2022-11-15 21:15:18.0910,0.13,-3.64,-1.93,4.12
2022-11-15 21:15:18.0920,0.63,-4.43,-1.83,4.83
2022-11-15 21:15:18.1070,1.19,-4.97,-1.49,5.32
2022-11-15 21:15:18.1080,1.8,-5.1,-0.99,5.49
2022-11-15 21:15:18.1230,2.26,-4.77,-0.52,5.3
2022-11-15 21:15:18.1240,2.45,-3.99,-0.1,4.68
2022-11-15 21:15:18.1790,2.34,-2.76,0.18,3.62
2022-11-15 21:15:18.1790,2.02,-1.36,0.14,2.43
2022-11-15 21:15:18.1920,1.56,-0.08,0.0,1.56
2022-11-15 21:15:18.1930,1.01,1.12,-0.13,1.51
2022-11-15 21:15:18.2080,0.37,2.27,-0.21,2.3
2022-11-15 21:15:18.2080,-0.36,3.18,0.3,3.21
2022-11-15 21:15:18.2240,-1.23,3.81,0.64,4.05
2022-11-15 21:15:18.2240,-1.9,4.2,-0.14,4.61
2022-11-15 21:15:18.2400,-2.23,4.31,-1.49,5.07
2022-11-15 21:15:18.2410,-2.3,4.17,-2.6,5.42
2022-11-15 21:15:18.2960,-2.15,3.92,-3.22,5.5
2022-11-15 21:15:18.2970,-1.84,3.6,-3.51,5.35
2022-11-15 21:15:18.3080,-1.47,3.21,-3.61,5.04
2022-11-15 21:15:18.3090,-1.02,2.73,-3.58,4.61
2022-11-15 21:15:18.3240,-0.53,2.12,-3.41,4.05
2022-11-15 21:15:18.3250,-0.2,1.41,-3.22,3.52
2022-11-15 21:15:18.3400,-0.09,0.69,-2.99,3.06
2022-11-15 21:15:18.3410,-0.32,-0.04,-2.46,2.48
2022-11-15 21:15:18.3570,-1.21,-0.85,-1.2,1.9
2022-11-15 21:15:18.3580,-2.83,-1.69,0.87,3.4
2022-11-15 21:15:18.4120,-4.69,-2.24,2.78,5.89
2022-11-15 21:15:18.4120,-5.69,-1.92,2.98,6.7
2022-11-15 21:15:18.4250,-5.24,-0.63,1.85,5.59
2022-11-15 21:15:18.4260,-4.26,0.52,1.2,4.45
2022-11-15 21:15:18.4410,-3.56,1.11,1.16,3.9
2022-11-15 21:15:18.4420,-3.14,1.38,1.32,3.67
2022-11-15 21:15:18.4570,-2.91,1.43,1.4,3.53
2022-11-15 21:15:18.4570,-2.77,1.33,1.3,3.33
2022-11-15 21:15:18.4740,-2.54,1.12,1.19,3.02
2022-11-15 21:15:18.4740,-1.87,0.69,1.27,2.36
2022-11-15 21:15:18.5290,-0.33,-0.15,1.63,1.66
2022-11-15 21:15:18.5300,1.82,-1.38,2.33,3.26
2022-11-15 21:15:18.5420,4.05,-2.67,2.71,5.55
2022-11-15 21:15:18.5430,5.98,-3.53,2.57,7.4
2022-11-15 21:15:18.5580,7.0,-3.42,2.25,8.1
2022-11-15 21:15:18.5580,6.47,-2.45,2.22,7.26
2022-11-15 21:15:18.5730,4.85,-1.67,2.67,5.78
2022-11-15 21:15:18.5740,3.09,-1.52,3.51,4.91
2022-11-15 21:15:18.5900,2.03,-1.57,3.65,4.46
2022-11-15 21:15:18.5910,1.84,-1.52,2.63,3.55
2022-11-15 21:15:18.6460,1.71,-1.33,1.26,2.5
2022-11-15 21:15:18.6470,1.14,-0.97,0.1,1.5
2022-11-15 21:15:18.6580,0.08,-0.45,-1.09,1.18
2022-11-15 21:15:18.6590,-1.29,0.08,-2.4,2.72
2022-11-15 21:15:18.6740,-2.43,0.67,-3.65,4.43
2022-11-15 21:15:18.6750,-3.09,1.25,-4.59,5.67
2022-11-15 21:15:18.6900,-3.34,1.73,-5.69,6.82
2022-11-15 21:15:18.6910,-3.17,1.93,-6.7,7.65
2022-11-15 21:15:18.7070,-2.83,1.99,-7.01,7.81
2022-11-15 21:15:18.7080,-2.27,1.75,-6.39,7.0
2022-11-15 21:15:18.7580,-1.26,1.16,-5.2,5.47
2022-11-15 21:15:18.7580,0.07,0.36,-3.72,3.73
2022-11-15 21:15:18.7760,1.5,-0.58,-2.06,2.61
2022-11-15 21:15:18.7760,2.76,-1.48,-0.24,3.14
2022-11-15 21:15:18.7910,3.44,-2.07,1.58,4.31
2022-11-15 21:15:18.7920,3.11,-2.13,2.88,4.74
2022-11-15 21:15:18.8070,2.12,-1.47,3.51,4.35
2022-11-15 21:15:18.8080,1.06,-0.19,3.43,3.59
2022-11-15 21:15:18.8230,0.14,1.17,2.74,2.98
2022-11-15 21:15:18.8240,-0.54,2.21,1.75,2.87
2022-11-15 21:15:18.8760,-1.03,2.88,0.58,3.11
2022-11-15 21:15:18.8760,-1.31,3.11,-0.52,3.41
2022-11-15 21:15:18.8920,-1.42,3.02,-1.35,3.59
2022-11-15 21:15:18.8930,-1.39,2.83,-2.02,3.74
2022-11-15 21:15:18.9080,-1.3,2.62,-2.54,3.87
2022-11-15 21:15:18.9090,-1.17,2.45,-2.92,3.98
2022-11-15 21:15:18.9240,-0.98,2.3,-2.96,3.87
2022-11-15 21:15:18.9250,-0.69,2.04,-2.47,3.27
2022-11-15 21:15:18.9400,-0.07,1.33,-1.15,1.75
2022-11-15 21:15:18.9410,0.56,0.41,1.18,1.36
2022-11-15 21:15:18.9910,0.87,-0.26,3.9,4.0
2022-11-15 21:15:18.9920,0.75,-0.46,5.55,5.61
2022-11-15 21:15:19.0080,0.34,-0.16,5.11,5.12
2022-11-15 21:15:19.0090,-0.08,0.37,2.73,2.75
2022-11-15 21:15:19.0240,-0.28,0.84,-0.28,0.92
2022-11-15 21:15:19.0250,-0.19,0.97,-2.49,2.67
2022-11-15 21:15:19.0400,-0.12,0.91,-3.34,3.46
2022-11-15 21:15:19.0410,-0.31,0.99,-2.89,3.07
2022-11-15 21:15:19.0570,-0.73,1.21,-1.0,1.73
2022-11-15 21:15:19.0580,-0.72,1.07,2.52,2.83
2022-11-15 21:15:19.1080,0.19,0.22,6.46,6.46
2022-11-15 21:15:19.1090,1.37,-0.67,7.78,7.92
2022-11-15 21:15:19.1250,2.15,-1.1,5.56,6.06
2022-11-15 21:15:19.1260,2.68,-1.03,2.4,3.74
2022-11-15 21:15:19.1410,3.09,-0.6,0.54,3.19
2022-11-15 21:15:19.1420,3.31,0.02,0.4,3.33
2022-11-15 21:15:19.1570,3.23,0.69,1.55,3.64
2022-11-15 21:15:19.1580,2.87,1.17,2.94,4.27
2022-11-15 21:15:19.1730,2.48,1.39,3.22,4.29
2022-11-15 21:15:19.1740,2.41,1.16,1.89,3.27
2022-11-15 21:15:19.2250,2.74,0.27,0.22,2.76
2022-11-15 21:15:19.2260,3.37,-0.72,-0.8,3.53
2022-11-15 21:15:19.2420,4.06,-1.05,-1.45,4.43
2022-11-15 21:15:19.2430,4.39,-0.92,-1.77,4.82
2022-11-15 21:15:19.2570,3.87,-0.7,-1.89,4.36
2022-11-15 21:15:19.2580,2.65,-0.66,-1.96,3.36
2022-11-15 21:15:19.2730,1.28,-0.65,-2.18,2.61
2022-11-15 21:15:19.2740,0.32,-0.82,-2.59,2.73
2022-11-15 21:15:19.2900,-0.21,-1.27,-3.2,3.44
2022-11-15 21:15:19.2910,-0.42,-2.16,-3.92,4.49
2022-11-15 21:15:19.3420,-0.52,-3.3,-4.7,5.76
2022-11-15 21:15:19.3420,-0.81,-4.47,-5.27,6.95
2022-11-15 21:15:19.3590,-1.35,-5.42,-5.27,7.67
2022-11-15 21:15:19.3590,-1.86,-6.15,-4.78,8.0
2022-11-15 21:15:19.3740,-2.09,-6.65,-4.18,8.12
2022-11-15 21:15:19.3750,-1.89,-6.89,-3.61,8.0
2022-11-15 21:15:19.3900,-1.36,-6.81,-3.01,7.56
2022-11-15 21:15:19.3910,-0.7,-6.18,-2.55,6.72
2022-11-15 21:15:19.4070,-0.31,-4.87,-2.16,5.33
2022-11-15 21:15:19.4080,-0.39,-3.0,-1.9,3.57
2022-11-15 21:15:19.4590,-0.71,-1.14,-1.7,2.16
2022-11-15 21:15:19.4600,-1.05,0.59,-1.33,1.79
2022-11-15 21:15:19.4750,-1.52,2.4,0.96,2.99
2022-11-15 21:15:19.4760,-2.16,4.07,3.98,6.08
2022-11-15 21:15:19.4910,-2.59,5.08,3.71,6.8
2022-11-15 21:15:19.4920,-2.82,5.31,0.84,6.07
2022-11-15 21:15:19.5070,-2.96,5.15,-1.73,6.18
2022-11-15 21:15:19.5080,-2.87,4.79,-3.23,6.45
2022-11-15 21:15:19.5240,-2.54,4.36,-4.08,6.48
2022-11-15 21:15:19.5240,-1.92,3.96,-4.41,6.23
2022-11-15 21:15:19.5750,-1.02,3.66,-4.33,5.76
2022-11-15 21:15:19.5760,-0.07,3.3,-3.98,5.17
2022-11-15 21:15:19.5920,0.71,2.86,-3.24,4.37
2022-11-15 21:15:19.5930,0.87,2.35,-2.21,3.34
2022-11-15 21:15:19.6080,0.16,1.73,-0.91,1.96
2022-11-15 21:15:19.6080,-1.39,0.94,0.76,1.84
2022-11-15 21:15:19.6240,-3.35,0.14,2.45,4.15
2022-11-15 21:15:19.6240,-4.87,-0.49,3.55,6.04
2022-11-15 21:15:19.6400,-5.43,-0.75,3.54,6.52
2022-11-15 21:15:19.6410,-5.19,-0.67,3.01,6.03
2022-11-15 21:15:19.6920,-4.66,-0.4,2.55,5.32
2022-11-15 21:15:19.6930,-4.07,0.05,2.0,4.53
2022-11-15 21:15:19.7080,-3.51,0.58,1.18,3.74
2022-11-15 21:15:19.7090,-3.02,0.97,0.47,3.2
2022-11-15 21:15:19.7250,-2.33,0.96,0.29,2.53
2022-11-15 21:15:19.7250,-1.15,0.34,0.76,1.41
2022-11-15 21:15:19.7400,0.58,-0.81,1.75,2.01
2022-11-15 21:15:19.7410,2.67,-2.27,2.85,4.51
2022-11-15 21:15:19.7570,4.93,-3.45,3.97,7.2
2022-11-15 21:15:19.7580,6.71,-3.81,4.95,9.16
2022-11-15 21:15:19.8070,6.97,-2.77,5.57,9.34
2022-11-15 21:15:19.8080,5.49,-0.93,5.43,7.77
2022-11-15 21:15:19.8250,3.84,0.24,5.47,6.68
2022-11-15 21:15:19.8260,2.64,0.35,5.59,6.19
2022-11-15 21:15:19.8410,2.3,-0.3,4.69,5.23
2022-11-15 21:15:19.8420,2.67,-0.99,3.11,4.21
2022-11-15 21:15:19.8570,2.8,-1.3,1.49,3.42
2022-11-15 21:15:19.8580,2.27,-1.15,-0.04,2.54
2022-11-15 21:15:19.8730,0.97,-0.84,-1.76,2.17
2022-11-15 21:15:19.8740,-0.74,-0.67,-3.65,3.78
2022-11-15 21:15:19.9240,-2.18,-0.6,-5.57,6.01
2022-11-15 21:15:19.9240,-3.05,-0.75,-7.59,8.21
2022-11-15 21:15:19.9420,-3.4,-0.85,-9.52,10.14
2022-11-15 21:15:19.9420,-3.61,-0.57,-10.88,11.47
2022-11-15 21:15:19.9580,-3.75,0.23,-10.88,11.51
2022-11-15 21:15:19.9580,-3.76,1.21,-9.13,9.94
2022-11-15 21:15:19.9740,-3.41,1.77,-7.17,8.13
2022-11-15 21:15:19.9740,-2.57,1.67,-6.05,6.78
2022-11-15 21:15:19.9900,-1.49,1.17,-5.27,5.6
2022-11-15 21:15:19.9910,-0.37,0.48,-4.39,4.43
2022-11-15 21:15:20.0410,0.63,-0.27,-3.11,3.18
2022-11-15 21:15:20.0420,1.33,-0.83,-1.38,2.08
2022-11-15 21:15:20.0590,1.73,-1.05,0.65,2.12
2022-11-15 21:15:20.0590,1.84,-1.14,2.85,3.57
2022-11-15 21:15:20.0740,1.58,-0.8,4.86,5.17
2022-11-15 21:15:20.0750,0.89,0.19,6.18,6.24
2022-11-15 21:15:20.0900,-0.03,1.6,6.2,6.4
2022-11-15 21:15:20.0910,-0.72,2.8,4.42,5.28
2022-11-15 21:15:20.1070,-0.98,3.39,1.97,4.04
2022-11-15 21:15:20.1080,-0.78,3.41,0.02,3.49
2022-11-15 21:15:20.1570,-0.28,2.97,-1.64,3.4
2022-11-15 21:15:20.1580,0.24,2.27,-3.15,3.89
2022-11-15 21:15:20.1750,0.7,1.69,-4.28,4.65
2022-11-15 21:15:20.1760,1.03,1.32,-4.57,4.86
2022-11-15 21:15:20.1910,1.13,1.14,-3.76,4.08
2022-11-15 21:15:20.1910,0.94,1.0,-1.39,1.95
2022-11-15 21:15:20.2070,0.63,0.83,2.29,2.51
2022-11-15 21:15:20.2080,0.31,0.69,5.35,5.4
2022-11-15 21:15:20.2230,-0.15,0.68,6.22,6.25
2022-11-15 21:15:20.2240,-0.59,0.73,4.87,4.95
2022-11-15 21:15:20.2740,-0.96,0.59,2.58,2.81
2022-11-15 21:15:20.2750,-1.19,0.25,0.55,1.33
2022-11-15 21:15:20.2920,-1.34,-0.17,-0.7,1.52
2022-11-15 21:15:20.2920,-1.52,-0.44,-1.16,1.96
2022-11-15 21:15:20.3070,-1.71,-0.52,-0.81,1.96
2022-11-15 21:15:20.3080,-1.86,-0.4,0.38,1.94
2022-11-15 21:15:20.3240,-1.57,-0.18,2.25,2.74
2022-11-15 21:15:20.3240,-0.68,-0.01,3.94,3.99
2022-11-15 21:15:20.3400,0.41,0.18,4.43,4.45
2022-11-15 21:15:20.3410,1.41,0.45,3.63,3.92
2022-11-15 21:15:20.3900,2.22,0.74,2.42,3.36
2022-11-15 21:15:20.3910,2.8,1.06,1.62,3.4
2022-11-15 21:15:20.4090,3.15,1.33,1.43,3.7
2022-11-15 21:15:20.4090,3.4,1.44,1.41,3.95
2022-11-15 21:15:20.4240,3.74,1.18,0.94,4.03
2022-11-15 21:15:20.4250,4.33,0.53,0.25,4.36
2022-11-15 21:15:20.4400,5.11,-0.31,-0.12,5.12
2022-11-15 21:15:20.4410,6.09,-1.1,-0.23,6.19
2022-11-15 21:15:20.4570,6.83,-1.76,-0.49,7.07
2022-11-15 21:15:20.4580,6.73,-1.85,-0.83,7.02
2022-11-15 21:15:20.5070,5.47,-1.43,-1.1,5.75
2022-11-15 21:15:20.5080,3.48,-1.27,-1.43,3.97
2022-11-15 21:15:20.5250,1.9,-1.53,-1.93,3.11
2022-11-15 21:15:20.5260,0.78,-1.77,-2.58,3.22
2022-11-15 21:15:20.5410,-0.07,-2.14,-3.32,3.95
2022-11-15 21:15:20.5420,-0.8,-2.84,-4.13,5.07
2022-11-15 21:15:20.5570,-1.61,-3.64,-4.9,6.31
2022-11-15 21:15:20.5570,-2.56,-4.28,-5.21,7.21
2022-11-15 21:15:20.5730,-3.53,-5.02,-5.07,7.96
2022-11-15 21:15:20.5740,-4.25,-5.64,-4.51,8.37
2022-11-15 21:15:20.6230,-4.44,-5.88,-3.82,8.29
2022-11-15 21:15:20.6240,-4.01,-5.68,-3.13,7.62
2022-11-15 21:15:20.6420,-3.1,-4.95,-2.54,6.36
2022-11-15 21:15:20.6430,-1.89,-3.9,-2.09,4.81
2022-11-15 21:15:20.6580,-0.71,-2.68,-1.67,3.23
2022-11-15 21:15:20.6590,0.21,-1.3,-1.26,1.82
2022-11-15 21:15:20.6740,0.78,0.21,-0.79,1.12
2022-11-15 21:15:20.6750,0.92,1.63,-0.52,1.94
2022-11-15 21:15:20.6900,0.54,2.81,-0.29,2.87
2022-11-15 21:15:20.6910,-0.09,3.8,0.67,3.85
2022-11-15 21:15:20.7430,-0.76,4.76,1.55,5.06
2022-11-15 21:15:20.7430,-1.37,5.32,0.97,5.57
2022-11-15 21:15:20.7580,-1.79,5.31,-0.58,5.63
2022-11-15 21:15:20.7590,-2.03,5.01,-2.1,5.79
2022-11-15 21:15:20.7750,-1.84,4.57,-3.11,5.82
2022-11-15 21:15:20.7750,-1.29,4.02,-3.44,5.44
2022-11-15 21:15:20.7900,-0.56,3.39,-3.26,4.73
2022-11-15 21:15:20.7910,0.18,2.72,-2.83,3.92
2022-11-15 21:15:20.8070,0.75,2.08,-2.44,3.29
2022-11-15 21:15:20.8080,1.13,1.45,-2.22,2.88
2022-11-15 21:15:20.8580,1.17,0.81,-2.13,2.56
2022-11-15 21:15:20.8580,0.79,0.18,-2.13,2.27
2022-11-15 21:15:20.8750,0.01,-0.41,-2.21,2.24
2022-11-15 21:15:20.8760,-1.14,-0.98,-2.13,2.6
2022-11-15 21:15:20.8910,-2.72,-1.69,-0.86,3.31
2022-11-15 21:15:20.8920,-4.76,-2.68,2.32,5.93
2022-11-15 21:15:20.9070,-6.41,-3.27,5.19,8.87
2022-11-15 21:15:20.9080,-6.42,-2.47,4.61,8.28
2022-11-15 21:15:20.9230,-5.02,-0.77,2.33,5.58
2022-11-15 21:15:20.9240,-3.74,0.22,0.68,3.8
2022-11-15 21:15:20.9750,-2.59,0.53,0.11,2.64
2022-11-15 21:15:20.9750,-0.98,0.3,0.61,1.19
2022-11-15 21:15:20.9920,0.95,-0.45,1.22,1.61
2022-11-15 21:15:20.9920,2.76,-1.35,1.31,3.34
2022-11-15 21:15:21.0080,4.34,-2.11,1.07,4.94
2022-11-15 21:15:21.0080,5.24,-2.13,0.91,5.72
2022-11-15 21:15:21.0230,4.95,-1.26,1.09,5.22
2022-11-15 21:15:21.0240,4.11,-0.16,1.59,4.4
2022-11-15 21:15:21.0400,3.33,0.54,2.17,4.01
2022-11-15 21:15:21.0410,2.51,0.49,2.92,3.88
2022-11-15 21:15:21.0900,1.78,-0.36,3.3,3.76
2022-11-15 21:15:21.0910,1.34,-1.53,2.87,3.51
2022-11-15 21:15:21.1080,0.87,-2.5,1.78,3.18
2022-11-15 21:15:21.1090,-0.04,-2.96,0.38,2.98
2022-11-15 21:15:21.1240,-1.23,-2.85,-1.11,3.29
2022-11-15 21:15:21.1250,-2.3,-2.46,-2.57,4.23
2022-11-15 21:15:21.1400,-2.99,-1.91,-3.74,5.15
2022-11-15 21:15:21.1410,-3.21,-1.38,-4.81,5.94
2022-11-15 21:15:21.1570,-2.87,-0.86,-5.74,6.47
2022-11-15 21:15:21.1580,-1.99,-0.45,-6.24,6.56
2022-11-15 21:15:21.2080,-0.88,-0.04,-6.31,6.37
2022-11-15 21:15:21.2090,0.15,0.3,-6.12,6.12
2022-11-15 21:15:21.2250,0.99,0.5,-5.72,5.82
2022-11-15 21:15:21.2260,1.47,0.53,-5.3,5.52
2022-11-15 21:15:21.2410,1.9,0.32,-4.64,5.02
2022-11-15 21:15:21.2420,2.33,0.12,-3.88,4.52
2022-11-15 21:15:21.2570,2.66,0.15,-3.04,4.04
2022-11-15 21:15:21.2580,2.66,0.43,-2.09,3.41
2022-11-15 21:15:21.2730,2.24,0.66,-1.11,2.58
2022-11-15 21:15:21.2740,1.55,0.69,0.08,1.69
2022-11-15 21:15:21.3240,0.65,0.5,1.37,1.59
2022-11-15 21:15:21.3250,-0.36,0.15,2.67,2.69
2022-11-15 21:15:21.3420,-1.41,-0.19,3.53,3.8
2022-11-15 21:15:21.3430,-2.4,-0.33,3.49,4.24
2022-11-15 21:15:21.3580,-2.97,-0.21,2.37,3.8
2022-11-15 21:15:21.3590,-2.82,0.13,0.83,2.94
2022-11-15 21:15:21.3740,-2.24,0.56,-0.43,2.34
2022-11-15 21:15:21.3740,-1.56,0.89,-1.45,2.3
2022-11-15 21:15:21.3900,-0.95,1.1,-2.25,2.67
2022-11-15 21:15:21.3910,-0.36,1.3,-2.81,3.11
2022-11-15 21:15:21.4420,0.23,1.48,-2.96,3.31
2022-11-15 21:15:21.4430,0.77,1.57,-2.64,3.16
2022-11-15 21:15:21.4580,1.21,1.59,-1.73,2.64
2022-11-15 21:15:21.4590,1.44,1.6,-0.44,2.19
2022-11-15 21:15:21.4740,1.47,1.57,0.88,2.32
2022-11-15 21:15:21.4750,1.28,1.5,1.75,2.63
2022-11-15 21:15:21.4900,0.9,1.43,1.82,2.48
2022-11-15 21:15:21.4910,0.41,1.27,1.28,1.84
2022-11-15 21:15:21.5070,-0.1,1.07,0.4,1.14
2022-11-15 21:15:21.5080,-0.57,0.77,-0.36,1.02
2022-11-15 21:15:21.5570,-0.95,0.37,-0.77,1.27
2022-11-15 21:15:21.5580,-1.23,-0.07,-0.77,1.45
2022-11-15 21:15:21.5750,-1.35,-0.57,-0.37,1.51
2022-11-15 21:15:21.5750,-1.24,-1.11,0.3,1.69
2022-11-15 21:15:21.5910,-1.02,-1.61,0.98,2.14
2022-11-15 21:15:21.5920,-0.78,-1.9,1.34,2.45
2022-11-15 21:15:21.6070,-0.54,-1.82,1.3,2.3
2022-11-15 21:15:21.6080,-0.24,-1.4,0.98,1.72
2022-11-15 21:15:21.6230,0.13,-0.82,0.63,1.04
2022-11-15 21:15:21.6240,0.53,-0.22,0.37,0.68
2022-11-15 21:15:21.6750,0.94,0.32,0.34,1.04
2022-11-15 21:15:21.6750,1.32,0.77,0.58,1.63
2022-11-15 21:15:21.6920,1.72,1.05,1.04,2.26
2022-11-15 21:15:21.6920,2.11,1.18,1.63,2.91
2022-11-15 21:15:21.7080,2.48,1.11,2.15,3.46
2022-11-15 21:15:21.7080,2.74,0.9,2.35,3.72
2022-11-15 21:15:21.7230,2.82,0.53,2.14,3.57
2022-11-15 21:15:21.7240,2.66,-0.14,1.57,3.09
2022-11-15 21:15:21.7400,2.34,-0.98,0.89,2.68
2022-11-15 21:15:21.7410,2.17,-1.87,0.12,2.86
2022-11-15 21:15:21.7910,2.11,-2.86,-0.62,3.6
2022-11-15 21:15:21.7910,1.93,-3.71,-1.33,4.38
2022-11-15 21:15:21.8090,1.45,-4.2,-1.96,4.85
2022-11-15 21:15:21.8090,0.64,-4.08,-2.34,4.74
2022-11-15 21:15:21.8240,-0.31,-3.51,-2.56,4.35
2022-11-15 21:15:21.8250,-1.14,-2.76,-2.74,4.05
2022-11-15 21:15:21.8400,-1.88,-2.02,-2.93,4.02
2022-11-15 21:15:21.8410,-2.54,-1.48,-3.14,4.3
2022-11-15 21:15:21.8570,-3.09,-1.19,-3.24,4.63
2022-11-15 21:15:21.8580,-3.48,-1.21,-3.17,4.86
2022-11-15 21:15:21.9090,-3.69,-1.5,-2.97,4.96
2022-11-15 21:15:21.9090,-3.8,-2.03,-2.79,5.13
2022-11-15 21:15:21.9250,-3.74,-2.68,-2.65,5.3
2022-11-15 21:15:21.9260,-3.5,-3.36,-2.5,5.45
2022-11-15 21:15:21.9410,-3.08,-4.03,-2.3,5.56
2022-11-15 21:15:21.9410,-2.45,-4.46,-2.06,5.48
2022-11-15 21:15:21.9560,-1.69,-4.45,-1.68,5.04
2022-11-15 21:15:21.9570,-0.86,-4.03,-1.25,4.3
2022-11-15 21:15:21.9730,-0.1,-3.39,-0.72,3.46
2022-11-15 21:15:21.9740,0.51,-2.6,-0.04,2.64
2022-11-15 21:15:22.0240,0.84,-1.69,0.47,1.94
2022-11-15 21:15:22.0240,0.74,-0.73,0.64,1.22
2022-11-15 21:15:22.0420,0.29,0.24,0.39,0.54
2022-11-15 21:15:22.0430,-0.33,1.14,-0.04,1.18
2022-11-15 21:15:22.0580,-0.92,1.93,-0.63,2.22
2022-11-15 21:15:22.0590,-1.44,2.48,-1.37,3.17
2022-11-15 21:15:22.0730,-1.85,2.84,-2.16,4.01
2022-11-15 21:15:22.0740,-2.08,3.04,-2.68,4.55
2022-11-15 21:15:22.0900,-2.2,3.03,-3.05,4.82
2022-11-15 21:15:22.0910,-2.17,2.84,-3.12,4.74
2022-11-15 21:15:22.1410,-1.93,2.46,-2.9,4.26
2022-11-15 21:15:22.1420,-1.53,1.91,-2.57,3.54
2022-11-15 21:15:22.1580,-1.03,1.18,-2.16,2.66
2022-11-15 21:15:22.1590,-0.5,0.3,-1.75,1.84
2022-11-15 21:15:22.1740,-0.03,-0.67,-1.34,1.49
2022-11-15 21:15:22.1750,0.08,-1.57,-1.01,1.86
2022-11-15 21:15:22.1900,-0.31,-2.31,-0.84,2.47
2022-11-15 21:15:22.1910,-1.07,-2.76,-0.77,3.05
2022-11-15 21:15:22.2070,-1.99,-2.89,-0.68,3.57
2022-11-15 21:15:22.2080,-2.79,-2.78,-0.3,3.95
2022-11-15 21:15:22.2570,-3.29,-2.35,0.91,4.14
2022-11-15 21:15:22.2580,-3.48,-1.33,2.82,4.67
2022-11-15 21:15:22.2750,-3.39,0.05,4.23,5.42
2022-11-15 21:15:22.2760,-3.14,1.1,4.35,5.47
2022-11-15 21:15:22.2910,-2.82,1.42,3.67,4.84
2022-11-15 21:15:22.2910,-2.33,1.14,3.12,4.05
2022-11-15 21:15:22.3070,-1.64,0.5,2.96,3.42
2022-11-15 21:15:22.3080,-0.86,-0.39,2.99,3.13
2022-11-15 21:15:22.3230,-0.04,-1.5,2.89,3.25
2022-11-15 21:15:22.3240,0.59,-2.56,2.46,3.59
2022-11-15 21:15:22.3750,0.87,-3.39,1.9,3.98
2022-11-15 21:15:22.3760,0.64,-3.8,1.47,4.12
2022-11-15 21:15:22.3920,0.01,-3.75,1.35,3.98
2022-11-15 21:15:22.3920,-0.59,-3.41,1.34,3.71
2022-11-15 21:15:22.4070,-0.96,-2.96,1.37,3.4
2022-11-15 21:15:22.4080,-1.0,-2.51,1.23,2.96
2022-11-15 21:15:22.4230,-0.77,-2.19,0.83,2.46
2022-11-15 21:15:22.4240,-0.42,-1.92,0.37,1.99
2022-11-15 21:15:22.4400,-0.13,-1.65,-0.03,1.65
2022-11-15 21:15:22.4410,-0.01,-1.39,-0.38,1.44
2022-11-15 21:15:22.4910,-0.18,-1.11,-0.77,1.36
2022-11-15 21:15:22.4920,-0.66,-0.71,-1.34,1.65
2022-11-15 21:15:22.5080,-1.21,-0.14,-1.89,2.24
2022-11-15 21:15:22.5090,-1.58,0.42,-2.38,2.88
2022-11-15 21:15:22.5240,-1.68,0.82,-2.73,3.3
2022-11-15 21:15:22.5250,-1.48,0.97,-2.99,3.47
2022-11-15 21:15:22.5400,-1.02,0.84,-3.31,3.56
2022-11-15 21:15:22.5410,-0.56,0.46,-3.62,3.69
2022-11-15 21:15:22.5560,-0.28,-0.07,-3.87,3.88
2022-11-15 21:15:22.5570,-0.23,-0.67,-4.16,4.21
2022-11-15 21:15:22.6080,-0.24,-1.13,-4.43,4.57
2022-11-15 21:15:22.6080,-0.12,-1.53,-4.46,4.71
2022-11-15 21:15:22.6250,0.23,-1.78,-4.1,4.47
2022-11-15 21:15:22.6250,0.72,-1.66,-3.52,3.95
2022-11-15 21:15:22.6410,1.18,-1.18,-2.76,3.22
2022-11-15 21:15:22.6410,1.29,-0.64,-1.76,2.27
2022-11-15 21:15:22.6570,0.93,-0.08,-0.51,1.06
2022-11-15 21:15:22.6580,0.26,0.51,0.82,1.0
2022-11-15 21:15:22.6740,-0.49,1.07,1.85,2.19
2022-11-15 21:15:22.6750,-1.11,1.47,2.28,2.93
2022-11-15 21:15:22.7250,-1.52,1.46,1.86,2.81
2022-11-15 21:15:22.7250,-1.82,0.99,0.77,2.21
2022-11-15 21:15:22.7420,-1.87,0.46,-0.41,1.96
2022-11-15 21:15:22.7420,-1.67,0.06,-1.44,2.2
2022-11-15 21:15:22.7570,-1.21,-0.14,-2.19,2.5
2022-11-15 21:15:22.7580,-0.56,-0.07,-2.34,2.4
2022-11-15 21:15:22.7730,0.15,0.14,-1.85,1.86
2022-11-15 21:15:22.7740,0.81,0.38,-0.78,1.18
2022-11-15 21:15:22.7900,1.3,0.6,0.53,1.52
2022-11-15 21:15:22.7910,1.63,0.74,1.67,2.44
2022-11-15 21:15:22.8400,1.7,0.82,2.35,3.01
2022-11-15 21:15:22.8410,1.49,0.85,2.44,2.98
2022-11-15 21:15:22.8590,1.03,0.78,2.03,2.4
2022-11-15 21:15:22.8600,0.48,0.71,1.4,1.64
2022-11-15 21:15:22.8740,-0.04,0.59,0.82,1.01
2022-11-15 21:15:22.8750,-0.56,0.42,0.53,0.87
2022-11-15 21:15:22.8900,-1.07,0.21,0.64,1.26
2022-11-15 21:15:22.8910,-1.47,-0.04,1.01,1.78
2022-11-15 21:15:22.9060,-1.75,-0.34,1.42,2.27
2022-11-15 21:15:22.9070,-1.87,-0.64,1.64,2.56
2022-11-15 21:15:22.9590,-1.84,-0.87,1.5,2.52
2022-11-15 21:15:22.9600,-1.68,-0.93,1.12,2.22
2022-11-15 21:15:22.9750,-1.37,-0.83,0.64,1.72
2022-11-15 21:15:22.9760,-0.88,-0.63,0.23,1.1
2022-11-15 21:15:22.9910,-0.24,-0.33,0.02,0.4
2022-11-15 21:15:22.9910,0.53,0.03,0.17,0.55
2022-11-15 21:15:23.0070,1.35,0.36,0.68,1.55
2022-11-15 21:15:23.0080,2.04,0.64,1.33,2.51
2022-11-15 21:15:23.0230,2.47,0.77,1.83,3.16
2022-11-15 21:15:23.0240,2.58,0.83,2.07,3.41
2022-11-15 21:15:23.0740,2.33,0.81,2.16,3.27
2022-11-15 21:15:23.0750,1.76,0.77,2.23,2.94
2022-11-15 21:15:23.0920,1.09,0.63,2.26,2.58
2022-11-15 21:15:23.0920,0.42,0.38,2.19,2.26
2022-11-15 21:15:23.1070,-0.18,-0.01,2.0,2.0
2022-11-15 21:15:23.1080,-0.54,-0.63,1.53,1.74
2022-11-15 21:15:23.1230,-0.6,-1.36,0.85,1.71
2022-11-15 21:15:23.1240,-0.43,-2.14,0.13,2.18
2022-11-15 21:15:23.1400,-0.07,-2.96,-0.49,3.0
2022-11-15 21:15:23.1410,0.4,-3.71,-1.05,3.87
2022-11-15 21:15:23.1900,0.7,-4.14,-1.58,4.48
2022-11-15 21:15:23.1910,0.64,-4.08,-2.09,4.62
2022-11-15 21:15:23.2080,0.08,-3.58,-2.71,4.49
2022-11-15 21:15:23.2090,-0.73,-3.0,-3.29,4.51
2022-11-15 21:15:23.2240,-1.49,-2.67,-3.64,4.75
2022-11-15 21:15:23.2250,-2.0,-2.7,-3.74,5.02
2022-11-15 21:15:23.2400,-2.35,-3.06,-3.66,5.31
2022-11-15 21:15:23.2410,-2.58,-3.83,-3.48,5.78
2022-11-15 21:15:23.2560,-2.73,-4.7,-3.23,6.32
2022-11-15 21:15:23.2570,-2.77,-5.26,-2.89,6.61
2022-11-15 21:15:23.3080,-2.66,-5.39,-2.54,6.52
2022-11-15 21:15:23.3080,-2.43,-5.07,-2.13,6.01
2022-11-15 21:15:23.3250,-2.01,-4.36,-1.74,5.1
2022-11-15 21:15:23.3250,-1.41,-3.58,-1.42,4.1
2022-11-15 21:15:23.3410,-0.71,-2.79,-1.1,3.08
2022-11-15 21:15:23.3410,-0.05,-1.98,-0.81,2.13
2022-11-15 21:15:23.3560,0.48,-1.12,-0.61,1.36
2022-11-15 21:15:23.3570,0.87,-0.3,-0.4,1.0
2022-11-15 21:15:23.3730,0.98,0.5,-0.3,1.14
2022-11-15 21:15:23.3740,0.82,1.5,-0.21,1.72
2022-11-15 21:15:23.4260,0.33,2.54,0.16,2.56
2022-11-15 21:15:23.4270,-0.29,3.32,0.12,3.33
2022-11-15 21:15:23.4420,-0.89,3.81,-0.52,3.94
2022-11-15 21:15:23.4420,-1.3,3.86,-1.57,4.36
2022-11-15 21:15:23.4570,-1.54,3.53,-2.46,4.56
2022-11-15 21:15:23.4580,-1.58,3.08,-2.72,4.4
2022-11-15 21:15:23.4730,-1.44,2.54,-2.48,3.83
2022-11-15 21:15:23.4740,-1.19,1.97,-2.03,3.06
2022-11-15 21:15:23.4900,-0.91,1.35,-1.54,2.24
2022-11-15 21:15:23.4910,-0.85,0.67,-1.2,1.61
2022-11-15 21:15:23.5410,-1.02,-0.03,-0.92,1.37
2022-11-15 21:15:23.5420,-1.35,-0.79,-0.74,1.73
2022-11-15 21:15:23.5580,-1.88,-1.58,-0.5,2.5
2022-11-15 21:15:23.5590,-2.67,-2.24,-0.19,3.49
2022-11-15 21:15:23.5740,-3.5,-2.73,0.09,4.43
2022-11-15 21:15:23.5750,-4.22,-2.97,0.3,5.16
2022-11-15 21:15:23.5900,-4.74,-2.84,0.31,5.53
2022-11-15 21:15:23.5910,-5.01,-2.25,0.08,5.49
2022-11-15 21:15:23.6060,-4.81,-1.24,-0.11,4.96
2022-11-15 21:15:23.6070,-4.32,-0.34,0.01,4.33
2022-11-15 21:15:23.6580,-3.9,0.26,0.37,3.92
2022-11-15 21:15:23.6590,-3.49,0.69,0.94,3.67
2022-11-15 21:15:23.6750,-2.93,0.95,1.7,3.51
2022-11-15 21:15:23.6760,-2.16,1.0,2.49,3.44
2022-11-15 21:15:23.6910,-1.24,0.8,3.08,3.41
2022-11-15 21:15:23.6910,-0.17,0.38,3.46,3.48
2022-11-15 21:15:23.7070,0.85,-0.15,3.69,3.78
2022-11-15 21:15:23.7070,1.7,-0.62,3.83,4.23
2022-11-15 21:15:23.7230,2.25,-0.97,3.84,4.55
2022-11-15 21:15:23.7240,2.27,-1.17,3.56,4.38
2022-11-15 21:15:23.7740,1.71,-1.18,3.0,3.64
2022-11-15 21:15:23.7750,0.75,-0.94,2.35,2.63
2022-11-15 21:15:23.7920,-0.21,-0.48,1.82,1.89
2022-11-15 21:15:23.7920,-1.04,0.0,1.41,1.75
2022-11-15 21:15:23.8070,-1.69,0.3,1.09,2.03
2022-11-15 21:15:23.8080,-2.08,0.3,0.9,2.28
2022-11-15 21:15:23.8230,-2.18,0.01,0.77,2.31
2022-11-15 21:15:23.8240,-2.05,-0.48,0.69,2.21
2022-11-15 21:15:23.8400,-1.72,-1.15,0.67,2.17
2022-11-15 21:15:23.8410,-1.34,-1.97,0.69,2.48
2022-11-15 21:15:23.8910,-1.02,-2.92,0.78,3.18
2022-11-15 21:15:23.8910,-0.63,-3.96,0.89,4.1
2022-11-15 21:15:23.9090,-0.15,-4.97,1.04,5.07
2022-11-15 21:15:23.9090,0.25,-5.76,0.97,5.84
2022-11-15 21:15:23.9240,0.35,-6.1,0.21,6.11
2022-11-15 21:15:23.9250,0.15,-5.72,-0.83,5.78
2022-11-15 21:15:23.9400,-0.37,-4.43,-1.97,4.86
2022-11-15 21:15:23.9410,-1.33,-2.5,-3.08,4.18
2022-11-15 21:15:23.9570,-2.18,-0.71,-4.08,4.68
2022-11-15 21:15:23.9580,-2.65,0.68,-4.98,5.68
2022-11-15 21:15:24.0080,-2.79,1.79,-5.85,6.72
2022-11-15 21:15:24.0090,-2.65,2.65,-6.62,7.6
2022-11-15 21:15:24.0250,-2.2,3.12,-7.1,8.06
2022-11-15 21:15:24.0260,-1.59,2.98,-6.95,7.72
2022-11-15 21:15:24.0410,-0.83,2.25,-6.27,6.71
2022-11-15 21:15:24.0420,-0.09,1.26,-5.34,5.48
2022-11-15 21:15:24.0560,0.45,0.17,-4.3,4.32
2022-11-15 21:15:24.0570,0.98,-1.0,-3.24,3.52
2022-11-15 21:15:24.0730,1.54,-2.09,-2.21,3.4
2022-11-15 21:15:24.0740,1.97,-3.05,-1.23,3.83
2022-11-15 21:15:24.1240,1.9,-3.53,-0.22,4.01
2022-11-15 21:15:24.1250,1.22,-3.05,0.87,3.39
2022-11-15 21:15:24.1420,0.38,-2.03,2.0,2.87
2022-11-15 21:15:24.1420,-0.44,-1.02,2.98,3.18
2022-11-15 21:15:24.1570,-1.18,-0.05,3.27,3.47
2022-11-15 21:15:24.1580,-1.86,0.69,2.52,3.2
2022-11-15 21:15:24.1730,-2.39,0.92,0.99,2.74
2022-11-15 21:15:24.1740,-2.58,0.8,-0.52,2.75
2022-11-15 21:15:24.1900,-2.38,0.74,-1.71,3.02
2022-11-15 21:15:24.1910,-1.98,0.83,-2.57,3.34
2022-11-15 21:15:24.2410,-1.41,0.97,-3.09,3.53
2022-11-15 21:15:24.2420,-0.61,0.99,-3.16,3.36
2022-11-15 21:15:24.2580,0.27,0.78,-2.61,2.73
2022-11-15 21:15:24.2590,0.9,0.45,-1.56,1.85
2022-11-15 21:15:24.2740,1.11,0.17,-0.3,1.16
2022-11-15 21:15:24.2750,1.07,-0.05,0.87,1.37
2022-11-15 21:15:24.2900,0.81,-0.18,1.65,1.84
2022-11-15 21:15:24.2910,0.35,-0.22,1.92,1.96
2022-11-15 21:15:24.3060,-0.2,-0.27,1.89,1.91
2022-11-15 21:15:24.3070,-0.69,-0.41,1.72,1.89
2022-11-15 21:15:24.3570,-1.05,-0.61,1.4,1.85
2022-11-15 21:15:24.3580,-1.31,-0.8,0.99,1.82
2022-11-15 21:15:24.3750,-1.46,-0.91,0.58,1.81
2022-11-15 21:15:24.3760,-1.45,-0.87,0.31,1.71
2022-11-15 21:15:24.3910,-1.28,-0.66,0.37,1.48
2022-11-15 21:15:24.3920,-0.97,-0.36,0.76,1.28
2022-11-15 21:15:24.4060,-0.67,-0.12,1.21,1.38
2022-11-15 21:15:24.4070,-0.42,0.01,1.48,1.53
2022-11-15 21:15:24.4230,-0.23,0.09,1.42,1.44
2022-11-15 21:15:24.4240,-0.06,0.11,1.16,1.16
2022-11-15 21:15:24.4740,0.08,0.12,0.82,0.83
2022-11-15 21:15:24.4750,0.16,0.06,0.6,0.62
2022-11-15 21:15:24.4920,0.14,-0.01,0.56,0.57
2022-11-15 21:15:24.4920,0.04,-0.09,0.76,0.76
2022-11-15 21:15:24.5070,-0.09,-0.14,1.17,1.18
2022-11-15 21:15:24.5080,-0.29,-0.1,1.62,1.64
2022-11-15 21:15:24.5230,-0.51,0.04,1.94,2.0
2022-11-15 21:15:24.5240,-0.71,0.26,2.1,2.23
2022-11-15 21:15:24.5400,-0.87,0.46,2.02,2.24
2022-11-15 21:15:24.5410,-0.91,0.59,1.79,2.09
2022-11-15 21:15:24.5920,-0.82,0.6,1.58,1.87
2022-11-15 21:15:24.5930,-0.68,0.62,1.57,1.81
2022-11-15 21:15:24.6080,-0.52,0.63,1.81,1.98
2022-11-15 21:15:24.6090,-0.41,0.66,2.15,2.28
2022-11-15 21:15:24.6240,-0.21,0.64,2.33,2.42
2022-11-15 21:15:24.6250,0.15,0.39,2.09,2.13
2022-11-15 21:15:24.6400,0.75,-0.16,1.44,1.63
2022-11-15 21:15:24.6410,1.54,-0.95,0.81,1.98
2022-11-15 21:15:24.6560,2.32,-1.88,0.36,3.0
2022-11-15 21:15:24.6570,2.87,-2.68,0.07,3.92
2022-11-15 21:15:24.7080,2.99,-3.18,-0.09,4.36
2022-11-15 21:15:24.7090,2.49,-3.07,-0.3,3.96
2022-11-15 21:15:24.7250,1.91,-2.62,-0.75,3.32
2022-11-15 21:15:24.7260,1.53,-2.47,-1.36,3.2
2022-11-15 21:15:24.7410,1.12,-2.69,-1.87,3.46
2022-11-15 21:15:24.7420,0.63,-3.02,-2.29,3.84
2022-11-15 21:15:24.7560,0.15,-3.28,-2.67,4.23
2022-11-15 21:15:24.7570,-0.37,-3.37,-3.02,4.54
2022-11-15 21:15:24.7730,-1.03,-3.26,-3.29,4.74
2022-11-15 21:15:24.7740,-1.77,-3.13,-3.43,4.96
2022-11-15 21:15:24.8250,-2.53,-3.07,-3.43,5.25
2022-11-15 21:15:24.8250,-3.19,-3.16,-3.3,5.57
2022-11-15 21:15:24.8410,-3.62,-3.26,-3.05,5.74
2022-11-15 21:15:24.8420,-3.81,-3.35,-2.72,5.75
2022-11-15 21:15:24.8570,-3.81,-3.46,-2.36,5.66
2022-11-15 21:15:24.8580,-3.7,-3.44,-1.99,5.42
2022-11-15 21:15:24.8730,-3.46,-3.25,-1.68,5.03
2022-11-15 21:15:24.8740,-3.07,-2.97,-1.38,4.48
2022-11-15 21:15:24.8900,-2.56,-2.64,-1.15,3.85
2022-11-15 21:15:24.8910,-1.93,-2.23,-1.08,3.14
2022-11-15 21:15:24.9420,-1.27,-1.77,-1.05,2.41
2022-11-15 21:15:24.9430,-0.72,-1.16,-1.0,1.69
2022-11-15 21:15:24.9580,-0.22,-0.33,-0.82,0.91
2022-11-15 21:15:24.9590,0.16,0.62,-0.54,0.83
2022-11-15 21:15:24.9740,0.26,1.4,-0.35,1.46
2022-11-15 21:15:24.9750,0.21,2.12,-0.34,2.15
2022-11-15 21:15:24.9900,0.05,2.57,-0.51,2.62
2022-11-15 21:15:24.9910,-0.12,2.64,-0.87,2.78
2022-11-15 21:15:25.0060,-0.27,2.49,-1.09,2.73
2022-11-15 21:15:25.0070,-0.41,2.09,-1.27,2.47
2022-11-15 21:15:25.0580,-0.42,1.59,-1.31,2.1
2022-11-15 21:15:25.0590,-0.24,1.09,-1.31,1.72
2022-11-15 21:15:25.0750,0.0,0.71,-1.15,1.35
2022-11-15 21:15:25.0760,0.23,0.46,-0.97,1.09
2022-11-15 21:15:25.0900,0.37,0.24,-0.88,0.98
2022-11-15 21:15:25.0910,0.32,0.0,-0.89,0.94
2022-11-15 21:15:25.1060,-0.05,-0.2,-1.0,1.02
2022-11-15 21:15:25.1070,-0.76,-0.4,-1.1,1.39
2022-11-15 21:15:25.1230,-1.6,-0.61,-1.14,2.05
2022-11-15 21:15:25.1240,-2.36,-0.84,-0.99,2.69
2022-11-15 21:15:25.1740,-2.92,-1.06,-0.48,3.14
2022-11-15 21:15:25.1750,-3.21,-1.16,0.34,3.43
2022-11-15 21:15:25.1910,-3.23,-0.95,1.34,3.62
2022-11-15 21:15:25.1920,-3.07,-0.37,2.29,3.84
2022-11-15 21:15:25.2070,-2.82,0.49,3.17,4.27
2022-11-15 21:15:25.2080,-2.58,1.32,3.64,4.65
2022-11-15 21:15:25.2230,-2.4,1.86,3.52,4.64
2022-11-15 21:15:25.2240,-2.28,1.96,2.93,4.19
2022-11-15 21:15:25.2400,-2.12,1.68,2.25,3.51
2022-11-15 21:15:25.2410,-1.78,1.27,1.84,2.85
2022-11-15 21:15:25.2920,-1.23,0.85,1.67,2.24
2022-11-15 21:15:25.2930,-0.55,0.39,1.61,1.74
2022-11-15 21:15:25.3080,0.12,-0.12,1.63,1.63
2022-11-15 21:15:25.3090,0.56,-0.63,1.75,1.94
2022-11-15 21:15:25.3240,0.55,-0.93,2.08,2.34
2022-11-15 21:15:25.3250,0.29,-0.96,2.58,2.76
2022-11-15 21:15:25.3400,-0.08,-0.86,3.01,3.13
2022-11-15 21:15:25.3410,-0.57,-0.76,3.2,3.33
2022-11-15 21:15:25.3570,-1.08,-0.67,3.11,3.35
2022-11-15 21:15:25.3570,-1.51,-0.58,2.81,3.24
2022-11-15 21:15:25.4080,-1.62,-0.61,2.54,3.07
2022-11-15 21:15:25.4090,-1.27,-0.96,2.46,2.93
2022-11-15 21:15:25.4250,-0.68,-1.74,2.45,3.08
2022-11-15 21:15:25.4260,-0.05,-2.74,2.17,3.49
2022-11-15 21:15:25.4410,0.36,-3.6,1.5,3.91
2022-11-15 21:15:25.4420,0.3,-4.2,0.6,4.25
2022-11-15 21:15:25.4560,-0.24,-4.34,-0.42,4.36
2022-11-15 21:15:25.4570,-1.15,-3.91,-1.45,4.32
2022-11-15 21:15:25.4730,-2.05,-2.97,-2.19,4.22
2022-11-15 21:15:25.4740,-2.48,-1.91,-2.68,4.12
2022-11-15 21:15:25.5250,-2.36,-1.0,-2.98,3.93
2022-11-15 21:15:25.5260,-1.85,-0.33,-3.17,3.68
2022-11-15 21:15:25.5410,-1.14,0.12,-3.29,3.48
2022-11-15 21:15:25.5420,-0.37,0.36,-3.4,3.43
2022-11-15 21:15:25.5570,0.24,0.31,-3.58,3.6
2022-11-15 21:15:25.5580,0.6,0.08,-3.89,3.93
2022-11-15 21:15:25.5730,0.71,-0.08,-4.21,4.27
2022-11-15 21:15:25.5740,0.72,-0.17,-4.33,4.39
2022-11-15 21:15:25.5900,0.77,-0.2,-4.12,4.19
2022-11-15 21:15:25.5900,0.84,-0.19,-3.61,3.71
2022-11-15 21:15:25.6410,0.91,-0.12,-2.8,2.94
2022-11-15 21:15:25.6420,0.78,0.01,-1.86,2.01
2022-11-15 21:15:25.6580,0.57,0.13,-1.17,1.3
2022-11-15 21:15:25.6590,0.39,0.11,-0.63,0.74
2022-11-15 21:15:25.6740,0.12,0.03,-0.24,0.26
2022-11-15 21:15:25.6750,-0.22,-0.05,0.15,0.27
2022-11-15 21:15:25.6900,-0.59,-0.12,0.61,0.85
2022-11-15 21:15:25.6900,-0.92,-0.06,1.13,1.45
2022-11-15 21:15:25.7060,-1.14,0.14,1.63,1.99
2022-11-15 21:15:25.7070,-1.3,0.38,1.99,2.4
2022-11-15 21:15:25.7580,-1.34,0.55,2.03,2.49
2022-11-15 21:15:25.7590,-1.19,0.63,1.6,2.09
2022-11-15 21:15:25.7760,-0.91,0.68,0.87,1.43
2022-11-15 21:15:25.7760,-0.45,0.7,0.14,0.84
2022-11-15 21:15:25.7910,0.09,0.81,-0.42,0.91
2022-11-15 21:15:25.7910,0.65,0.96,-0.75,1.38
2022-11-15 21:15:25.8060,1.22,1.07,-0.9,1.85
2022-11-15 21:15:25.8070,1.71,1.19,-0.81,2.23
2022-11-15 21:15:25.8230,2.04,1.27,-0.36,2.42
2022-11-15 21:15:25.8240,2.1,1.33,0.43,2.52
2022-11-15 21:15:25.8760,1.87,1.3,1.37,2.65
2022-11-15 21:15:25.8760,1.48,1.18,2.22,2.91
2022-11-15 21:15:25.8920,0.99,1.06,2.8,3.15
2022-11-15 21:15:25.8920,0.41,0.92,3.0,3.16
2022-11-15 21:15:25.9070,-0.19,0.73,2.88,2.97
2022-11-15 21:15:25.9080,-0.74,0.53,2.57,2.72
2022-11-15 21:15:25.9230,-1.22,0.37,2.26,2.59
2022-11-15 21:15:25.9240,-1.61,0.22,2.11,2.66
2022-11-15 21:15:25.9400,-1.94,0.12,2.09,2.85
2022-11-15 21:15:25.9410,-2.04,0.05,2.1,2.92
2022-11-15 21:15:25.9920,-1.89,0.05,2.14,2.85
2022-11-15 21:15:25.9930,-1.53,0.17,2.29,2.75
2022-11-15 21:15:26.0080,-1.07,0.37,2.5,2.74
2022-11-15 21:15:26.0090,-0.57,0.6,2.65,2.77
2022-11-15 21:15:26.0240,-0.08,0.81,2.66,2.78
2022-11-15 21:15:26.0250,0.32,1.05,2.45,2.68
2022-11-15 21:15:26.0400,0.66,1.35,2.1,2.58
2022-11-15 21:15:26.0410,0.95,1.63,1.63,2.49
2022-11-15 21:15:26.0560,1.19,1.89,1.06,2.47
2022-11-15 21:15:26.0570,1.4,2.05,0.6,2.55
2022-11-15 21:15:26.1090,1.71,2.04,0.38,2.68
2022-11-15 21:15:26.1100,2.17,1.59,0.35,2.71
2022-11-15 21:15:26.1250,2.61,0.56,0.31,2.68
2022-11-15 21:15:26.1250,2.98,-0.86,0.3,3.11
2022-11-15 21:15:26.1410,3.31,-2.42,0.37,4.11
2022-11-15 21:15:26.1410,3.36,-3.75,0.35,5.04
2022-11-15 21:15:26.1560,2.99,-4.62,0.06,5.5
2022-11-15 21:15:26.1570,2.25,-4.96,-0.27,5.45
2022-11-15 21:15:26.1730,1.2,-4.8,-0.7,4.99
2022-11-15 21:15:26.1740,-0.07,-4.24,-1.2,4.4
2022-11-15 21:15:26.2260,-1.22,-3.53,-1.67,4.09
2022-11-15 21:15:26.2270,-2.11,-2.88,-1.94,4.06
2022-11-15 21:15:26.2410,-2.65,-2.31,-1.89,3.99
2022-11-15 21:15:26.2420,-2.76,-1.88,-1.53,3.67
2022-11-15 21:15:26.2570,-2.59,-1.51,-1.02,3.16
2022-11-15 21:15:26.2580,-2.35,-1.11,-0.44,2.63
2022-11-15 21:15:26.2730,-2.22,-0.68,0.07,2.32
2022-11-15 21:15:26.2740,-2.13,-0.27,0.5,2.2
2022-11-15 21:15:26.2900,-1.96,-0.03,0.92,2.16
2022-11-15 21:15:26.2900,-1.75,0.06,1.35,2.21
2022-11-15 21:15:26.3420,-1.42,0.04,1.89,2.36
2022-11-15 21:15:26.3430,-0.99,0.03,2.34,2.54
2022-11-15 21:15:26.3580,-0.58,0.05,2.24,2.31
2022-11-15 21:15:26.3590,-0.26,0.07,1.64,1.66
2022-11-15 21:15:26.3740,-0.1,0.2,0.86,0.88
2022-11-15 21:15:26.3750,0.03,0.5,0.17,0.52
2022-11-15 21:15:26.3900,0.13,0.85,-0.38,0.94
2022-11-15 21:15:26.3910,0.24,1.28,-0.86,1.56
2022-11-15 21:15:26.4060,0.36,1.76,-1.19,2.15
2022-11-15 21:15:26.4070,0.47,2.06,-1.52,2.6
2022-11-15 21:15:26.4610,0.54,2.16,-1.9,2.92
2022-11-15 21:15:26.4620,0.5,2.04,-2.22,3.05
2022-11-15 21:15:26.4750,0.39,1.74,-2.32,2.92
2022-11-15 21:15:26.4750,0.38,1.42,-2.16,2.61
2022-11-15 21:15:26.4900,0.4,1.12,-1.9,2.24
2022-11-15 21:15:26.4910,0.39,0.79,-1.68,1.89
2022-11-15 21:15:26.5060,0.23,0.49,-1.61,1.69
2022-11-15 21:15:26.5070,-0.04,0.19,-1.59,1.6
2022-11-15 21:15:26.5230,-0.46,-0.2,-1.54,1.61
2022-11-15 21:15:26.5240,-1.0,-0.58,-1.43,1.83
2022-11-15 21:15:26.5780,-1.7,-0.86,-1.25,2.27
2022-11-15 21:15:26.5790,-2.45,-1.06,-0.96,2.83
2022-11-15 21:15:26.5910,-3.07,-1.16,-0.43,3.3
2022-11-15 21:15:26.5920,-3.5,-1.12,0.37,3.69
2022-11-15 21:15:26.6070,-3.62,-0.79,1.53,4.0
2022-11-15 21:15:26.6080,-3.5,-0.13,2.93,4.56
2022-11-15 21:15:26.6230,-3.29,0.73,3.95,5.19
2022-11-15 21:15:26.6240,-3.04,1.49,4.18,5.37
2022-11-15 21:15:26.6400,-2.84,1.87,3.87,5.15
2022-11-15 21:15:26.6410,-2.59,1.82,3.41,4.65
2022-11-15 21:15:26.6940,-2.12,1.56,3.0,3.99
2022-11-15 21:15:26.6950,-1.36,1.21,2.74,3.28
2022-11-15 21:15:26.7080,-0.34,0.85,2.61,2.76
2022-11-15 21:15:26.7090,0.76,0.39,2.49,2.63
2022-11-15 21:15:26.7240,1.64,-0.24,2.06,2.64
2022-11-15 21:15:26.7250,2.01,-0.98,1.43,2.65
2022-11-15 21:15:26.7400,1.83,-1.69,1.01,2.68
2022-11-15 21:15:26.7400,1.16,-2.18,1.0,2.66
2022-11-15 21:15:26.7560,0.35,-2.23,1.1,2.51
2022-11-15 21:15:26.7570,-0.4,-1.84,1.08,2.17
2022-11-15 21:15:26.8110,-1.01,-1.25,0.85,1.81
2022-11-15 21:15:26.8120,-1.31,-0.67,0.74,1.64
2022-11-15 21:15:26.8250,-1.24,-0.32,1.14,1.71
2022-11-15 21:15:26.8250,-0.82,-0.24,2.09,2.25
2022-11-15 21:15:26.8410,-0.12,-0.41,3.31,3.33
2022-11-15 21:15:26.8410,0.75,-0.74,4.14,4.27
2022-11-15 21:15:26.8560,1.61,-0.99,4.08,4.49
2022-11-15 21:15:26.8570,2.26,-1.1,3.31,4.15
2022-11-15 21:15:26.8730,2.66,-1.28,2.09,3.61
2022-11-15 21:15:26.8740,2.56,-1.62,0.71,3.11
2022-11-15 21:15:26.9280,1.81,-1.79,-0.91,2.7
2022-11-15 21:15:26.9280,0.67,-1.66,-2.62,3.17
2022-11-15 21:15:26.9410,-0.28,-1.35,-3.76,4.0
2022-11-15 21:15:26.9420,-0.8,-0.8,-4.22,4.36
2022-11-15 21:15:26.9570,-0.89,0.02,-4.41,4.49
2022-11-15 21:15:26.9580,-0.7,0.99,-4.42,4.58
2022-11-15 21:15:26.9730,-0.33,1.83,-4.29,4.67
2022-11-15 21:15:26.9740,0.14,2.42,-4.18,4.83
2022-11-15 21:15:26.9890,0.64,2.73,-4.07,4.94
2022-11-15 21:15:26.9900,1.18,2.82,-3.95,4.99
2022-11-15 21:15:27.0440,1.73,2.78,-3.83,5.03
2022-11-15 21:15:27.0450,2.27,2.67,-3.6,5.02
2022-11-15 21:15:27.0580,2.74,2.45,-3.2,4.87
2022-11-15 21:15:27.0580,3.09,2.08,-2.68,4.58
2022-11-15 21:15:27.0740,3.14,1.67,-2.13,4.14
2022-11-15 21:15:27.0750,2.85,1.32,-1.5,3.48
2022-11-15 21:15:27.0900,2.31,1.15,-0.92,2.73
2022-11-15 21:15:27.0900,1.62,1.13,-0.55,2.05
2022-11-15 21:15:27.1060,0.96,0.99,-0.32,1.41
2022-11-15 21:15:27.1070,0.48,0.53,0.07,0.71
2022-11-15 21:15:27.1620,0.08,-0.18,0.88,0.9
2022-11-15 21:15:27.1630,-0.56,-0.69,2.09,2.27
2022-11-15 21:15:27.1750,-1.4,-0.91,3.24,3.64
2022-11-15 21:15:27.1750,-2.21,-0.97,3.89,4.57
2022-11-15 21:15:27.1900,-2.65,-0.78,3.72,4.63
2022-11-15 21:15:27.1910,-2.36,-0.14,2.62,3.52
2022-11-15 21:15:27.2060,-1.62,0.61,1.3,2.16
2022-11-15 21:15:27.2070,-0.84,1.11,0.21,1.4
2022-11-15 21:15:27.2230,-0.16,1.36,-0.73,1.55
2022-11-15 21:15:27.2230,0.41,1.4,-1.38,2.0
2022-11-15 21:15:27.2770,0.88,1.37,-1.67,2.33
2022-11-15 21:15:27.2770,1.28,1.36,-1.53,2.41
2022-11-15 21:15:27.2910,1.54,1.34,-1.11,2.32
2022-11-15 21:15:27.2920,1.64,1.35,-0.6,2.2
2022-11-15 21:15:27.3070,1.62,1.39,-0.13,2.13
2022-11-15 21:15:27.3080,1.56,1.46,0.28,2.15
2022-11-15 21:15:27.3230,1.49,1.53,0.69,2.24
2022-11-15 21:15:27.3240,1.34,1.58,1.07,2.33
2022-11-15 21:15:27.3400,1.1,1.65,1.42,2.43
2022-11-15 21:15:27.3400,0.72,1.61,1.76,2.49
2022-11-15 21:15:27.3970,0.34,1.47,1.93,2.44
2022-11-15 21:15:27.3970,0.01,1.39,1.82,2.29
2022-11-15 21:15:27.4080,-0.28,1.47,1.46,2.09
2022-11-15 21:15:27.4080,-0.58,1.64,0.98,1.99
2022-11-15 21:15:27.4240,-0.84,1.8,0.6,2.07
2022-11-15 21:15:27.4250,-1.0,1.97,0.51,2.26
2022-11-15 21:15:27.4400,-0.92,2.14,0.68,2.42
2022-11-15 21:15:27.4410,-0.34,2.22,0.97,2.44
2022-11-15 21:15:27.4560,0.87,1.93,1.36,2.51
2022-11-15 21:15:27.4570,2.36,1.14,1.83,3.19
2022-11-15 21:15:27.5110,3.61,0.36,2.13,4.2
2022-11-15 21:15:27.5110,4.36,-0.05,2.1,4.83
2022-11-15 21:15:27.5250,4.47,-0.08,1.65,4.76
2022-11-15 21:15:27.5250,3.8,0.24,0.96,3.92
2022-11-15 21:15:27.5400,2.82,0.6,0.24,2.89
2022-11-15 21:15:27.5410,2.24,0.62,-0.16,2.32
2022-11-15 21:15:27.5560,2.03,0.42,-0.19,2.08
2022-11-15 21:15:27.5570,1.75,0.29,0.09,1.77
2022-11-15 21:15:27.5730,1.63,0.13,0.85,1.84
2022-11-15 21:15:27.5740,1.94,-0.07,1.99,2.78
2022-11-15 21:15:27.6270,2.67,-0.31,3.39,4.32
2022-11-15 21:15:27.6280,3.32,-0.43,4.63,5.71
2022-11-15 21:15:27.6410,3.76,-0.41,5.25,6.47
2022-11-15 21:15:27.6420,4.09,-0.19,4.96,6.43
2022-11-15 21:15:27.6570,4.22,0.15,3.86,5.72
2022-11-15 21:15:27.6580,4.08,0.37,2.48,4.78
2022-11-15 21:15:27.6730,3.76,0.47,1.24,3.98
2022-11-15 21:15:27.6740,3.26,0.5,0.24,3.3
2022-11-15 21:15:27.6900,2.71,0.53,-0.37,2.78
2022-11-15 21:15:27.6910,2.09,0.75,-0.74,2.34
2022-11-15 21:15:27.7450,1.33,1.24,-1.13,2.14
2022-11-15 21:15:27.7460,0.48,1.8,-1.5,2.39
2022-11-15 21:15:27.7580,-0.38,2.28,-1.89,2.98
2022-11-15 21:15:27.7580,-0.98,2.39,-2.3,3.45
2022-11-15 21:15:27.7740,-1.19,2.06,-2.5,3.45
2022-11-15 21:15:27.7740,-1.1,1.55,-2.34,3.01
2022-11-15 21:15:27.7900,-0.86,1.03,-2.01,2.41
2022-11-15 21:15:27.7900,-0.49,0.49,-1.66,1.79
2022-11-15 21:15:27.8060,0.08,-0.04,-1.44,1.44
2022-11-15 21:15:27.8070,0.95,-0.74,-1.61,2.01
2022-11-15 21:15:27.8590,2.03,-1.56,-1.9,3.18
2022-11-15 21:15:27.8600,3.11,-2.16,-1.84,4.2
2022-11-15 21:15:27.8750,4.12,-2.38,-1.5,4.98
2022-11-15 21:15:27.8760,4.85,-2.22,-1.18,5.46
2022-11-15 21:15:27.8900,5.06,-1.76,-0.92,5.43
2022-11-15 21:15:27.8910,4.59,-0.99,-0.92,4.78
2022-11-15 21:15:27.9060,3.53,-0.07,-1.1,3.69
2022-11-15 21:15:27.9070,2.11,0.82,-1.39,2.65
2022-11-15 21:15:27.9230,0.76,1.64,-1.7,2.48
2022-11-15 21:15:27.9240,-0.39,2.28,-1.96,3.03
2022-11-15 21:15:27.9770,-1.3,2.62,-2.17,3.64
2022-11-15 21:15:27.9780,-1.92,2.78,-2.32,4.09
2022-11-15 21:15:27.9910,-2.27,2.74,-2.52,4.36
2022-11-15 21:15:27.9920,-2.34,2.54,-2.66,4.35
2022-11-15 21:15:28.0070,-2.19,2.24,-2.77,4.18
2022-11-15 21:15:28.0080,-1.87,1.77,-2.79,3.79
2022-11-15 21:15:28.0230,-1.49,1.06,-2.69,3.25
2022-11-15 21:15:28.0240,-1.03,0.27,-2.39,2.61
2022-11-15 21:15:28.0390,-0.57,-0.53,-1.76,1.92
2022-11-15 21:15:28.0400,-0.29,-1.23,-1.05,1.64
2022-11-15 21:15:28.0950,-0.21,-1.71,-0.38,1.76
2022-11-15 21:15:28.0960,-0.5,-1.85,0.0,1.91
2022-11-15 21:15:28.1080,-1.1,-1.52,-0.08,1.87
2022-11-15 21:15:28.1080,-1.76,-0.84,-0.5,2.01
2022-11-15 21:15:28.1240,-2.26,-0.07,-0.93,2.44
2022-11-15 21:15:28.1250,-2.69,0.54,-1.15,2.97
2022-11-15 21:15:28.1400,-3.18,0.95,-0.97,3.45
2022-11-15 21:15:28.1400,-3.66,1.21,-0.27,3.86
2022-11-15 21:15:28.1560,-4.01,1.36,0.89,4.32
2022-11-15 21:15:28.1570,-4.11,1.42,2.25,4.89
2022-11-15 21:15:28.2110,-4.02,1.42,3.44,5.47
2022-11-15 21:15:28.2110,-3.73,1.4,4.38,5.92
2022-11-15 21:15:28.2240,-3.08,1.43,4.95,6.0
2022-11-15 21:15:28.2250,-2.01,1.46,5.27,5.82
2022-11-15 21:15:28.2400,-0.28,1.33,5.75,5.9
2022-11-15 21:15:28.2410,1.98,0.73,6.09,6.44
2022-11-15 21:15:28.2560,4.23,-0.3,5.91,7.27
2022-11-15 21:15:28.2570,6.02,-1.12,5.15,8.0
2022-11-15 21:15:28.2730,6.59,-1.15,4.06,7.82
2022-11-15 21:15:28.2740,5.35,-0.29,3.02,6.15
2022-11-15 21:15:28.3280,3.66,0.85,2.96,4.78
2022-11-15 21:15:28.3290,2.16,1.67,4.89,5.6
2022-11-15 21:15:28.3410,1.26,1.89,7.24,7.58
2022-11-15 21:15:28.3420,1.99,1.67,5.79,6.34
2022-11-15 21:15:28.3570,3.26,1.32,2.93,4.57
2022-11-15 21:15:28.3580,3.82,0.57,1.24,4.05
2022-11-15 21:15:28.3730,3.46,-0.51,-0.71,3.56
2022-11-15 21:15:28.3740,1.89,-1.12,-3.31,3.97
2022-11-15 21:15:28.3890,0.11,-1.09,-5.77,5.87
2022-11-15 21:15:28.3900,-1.21,-0.88,-7.8,7.94
2022-11-15 21:15:28.4440,-2.07,-0.37,-8.98,9.22
2022-11-15 21:15:28.4450,-2.61,0.73,-9.51,9.88
2022-11-15 21:15:28.4580,-3.01,2.01,-9.2,9.88
2022-11-15 21:15:28.4580,-3.09,2.87,-8.24,9.25
2022-11-15 21:15:28.4740,-2.51,2.89,-7.12,8.08
2022-11-15 21:15:28.4740,-1.29,2.09,-6.03,6.51
2022-11-15 21:15:28.4890,0.07,1.0,-5.05,5.14
2022-11-15 21:15:28.4900,1.07,-0.09,-4.04,4.18
2022-11-15 21:15:28.5060,1.54,-1.09,-3.14,3.66
2022-11-15 21:15:28.5070,1.37,-2.08,-2.35,3.42
2022-11-15 21:15:28.5620,0.32,-3.22,-1.36,3.51
2022-11-15 21:15:28.5630,-1.44,-3.93,0.0,4.18
2022-11-15 21:15:28.5750,-3.08,-3.83,2.08,5.33
2022-11-15 21:15:28.5750,-3.9,-2.7,5.04,6.92
2022-11-15 21:15:28.5900,-3.91,-0.97,7.59,8.59
2022-11-15 21:15:28.5910,-3.71,0.94,8.16,9.01
2022-11-15 21:15:28.6060,-3.5,2.48,6.04,7.4
2022-11-15 21:15:28.6070,-2.96,3.28,3.17,5.43
2022-11-15 21:15:28.6230,-1.97,3.62,1.06,4.25
2022-11-15 21:15:28.6240,-0.95,3.71,-0.67,3.88
2022-11-15 21:15:28.6770,0.07,3.53,-2.32,4.22
2022-11-15 21:15:28.6780,1.19,3.18,-3.86,5.14
2022-11-15 21:15:28.6910,2.3,2.83,-4.8,6.02
2022-11-15 21:15:28.6920,3.21,2.46,-4.42,5.99
2022-11-15 21:15:28.7070,3.66,2.08,-2.33,4.81
2022-11-15 21:15:28.7080,3.52,1.73,0.89,4.02
2022-11-15 21:15:28.7230,3.02,1.52,3.97,5.21
2022-11-15 21:15:28.7240,2.36,1.6,5.48,6.17
2022-11-15 21:15:28.7400,1.66,1.85,4.47,5.11
2022-11-15 21:15:28.7410,0.98,1.87,1.99,2.9
2022-11-15 21:15:28.7950,0.38,1.51,0.0,1.55
2022-11-15 21:15:28.7960,-0.38,1.0,-0.64,1.24
2022-11-15 21:15:28.8080,-1.28,0.45,-0.25,1.37
2022-11-15 21:15:28.8080,-2.07,-0.43,0.62,2.2
2022-11-15 21:15:28.8240,-2.26,-1.86,1.95,3.51
2022-11-15 21:15:28.8240,-1.68,-3.36,3.59,5.19
2022-11-15 21:15:28.8390,-0.93,-4.16,4.65,6.3
2022-11-15 21:15:28.8400,-0.24,-4.14,4.5,6.11
2022-11-15 21:15:28.8560,0.44,-3.54,3.43,4.94
2022-11-15 21:15:28.8570,1.03,-2.64,2.18,3.57
2022-11-15 21:15:28.9110,1.47,-1.67,1.41,2.63
2022-11-15 21:15:28.9120,1.77,-0.73,1.27,2.29
2022-11-15 21:15:28.9240,1.99,-0.01,1.47,2.47
2022-11-15 21:15:28.9250,2.34,0.35,1.5,2.8
2022-11-15 21:15:28.9400,2.95,0.31,1.08,3.15
2022-11-15 21:15:28.9410,3.87,-0.1,0.5,3.9
2022-11-15 21:15:28.9560,4.93,-0.45,0.14,4.95
2022-11-15 21:15:28.9570,5.79,-0.43,-0.07,5.8
2022-11-15 21:15:28.9730,5.78,-0.02,-0.29,5.78
2022-11-15 21:15:28.9740,4.64,0.39,-0.71,4.71
2022-11-15 21:15:29.0280,2.88,0.39,-1.22,3.15
2022-11-15 21:15:29.0290,1.21,0.0,-1.63,2.03
2022-11-15 21:15:29.0410,-0.01,-0.51,-1.96,2.02
2022-11-15 21:15:29.0420,-0.65,-0.97,-2.28,2.56
2022-11-15 21:15:29.0570,-0.99,-1.65,-2.67,3.29
2022-11-15 21:15:29.0580,-1.34,-2.47,-3.14,4.21
2022-11-15 21:15:29.0730,-1.76,-3.27,-3.54,5.13
2022-11-15 21:15:29.0740,-2.16,-4.12,-3.61,5.88
2022-11-15 21:15:29.0900,-2.42,-4.98,-3.3,6.44
2022-11-15 21:15:29.0910,-2.41,-5.57,-3.0,6.77
2022-11-15 21:15:29.1460,-2.08,-5.95,-2.84,6.91
2022-11-15 21:15:29.1470,-1.28,-6.03,-2.78,6.76
2022-11-15 21:15:29.1580,-0.39,-5.52,-2.65,6.13
2022-11-15 21:15:29.1580,0.11,-4.4,-2.48,5.05
2022-11-15 21:15:29.1740,-0.06,-2.89,-2.2,3.63
2022-11-15 21:15:29.1740,-0.69,-1.21,-2.05,2.47
2022-11-15 21:15:29.1890,-1.38,0.32,-1.99,2.44
2022-11-15 21:15:29.1900,-1.93,1.63,-1.99,3.21
2022-11-15 21:15:29.2060,-2.33,2.66,-2.21,4.16
2022-11-15 21:15:29.2070,-2.61,3.51,-2.36,4.97
2022-11-15 21:15:29.2620,-2.79,4.29,-2.01,5.49
2022-11-15 21:15:29.2630,-2.89,4.91,-0.49,5.71
2022-11-15 21:15:29.2740,-2.78,5.19,0.94,5.96
2022-11-15 21:15:29.2750,-2.32,5.19,0.85,5.74
2022-11-15 21:15:29.2900,-1.64,4.74,-0.39,5.03
2022-11-15 21:15:29.2910,-0.97,3.92,-1.38,4.26
2022-11-15 21:15:29.3060,-0.49,3.16,-1.67,3.6
2022-11-15 21:15:29.3070,-0.34,2.4,-1.46,2.82
2022-11-15 21:15:29.3230,-0.45,1.66,-1.1,2.04
2022-11-15 21:15:29.3240,-0.74,1.06,-0.77,1.5
2022-11-15 21:15:29.3790,-1.16,0.57,-0.48,1.37
2022-11-15 21:15:29.3800,-1.78,0.13,-0.19,1.79
2022-11-15 21:15:29.3910,-2.55,-0.26,0.37,2.58
2022-11-15 21:15:29.3920,-3.25,-0.61,1.45,3.61
2022-11-15 21:15:29.4070,-3.64,-0.97,3.04,4.84
2022-11-15 21:15:29.4080,-3.52,-1.18,4.32,5.69
2022-11-15 21:15:29.4230,-2.92,-1.04,4.3,5.3
2022-11-15 21:15:29.4240,-2.2,-0.67,3.39,4.09
2022-11-15 21:15:29.4390,-1.55,-0.25,2.52,2.96
2022-11-15 21:15:29.4400,-0.74,-0.28,2.21,2.34
2022-11-15 21:15:29.4960,0.49,-1.06,2.48,2.74
2022-11-15 21:15:29.4970,1.7,-2.1,2.48,3.66
2022-11-15 21:15:29.5080,2.54,-2.87,1.98,4.31
2022-11-15 21:15:29.5080,2.75,-3.03,1.69,4.42
2022-11-15 21:15:29.5230,1.88,-2.27,2.02,3.57
2022-11-15 21:15:29.5240,0.32,-1.18,3.22,3.44
2022-11-15 21:15:29.5400,-1.3,-0.45,4.95,5.13
2022-11-15 21:15:29.5400,-1.93,-0.18,5.12,5.47
2022-11-15 21:15:29.5560,-1.02,-0.39,3.31,3.48
2022-11-15 21:15:29.5570,0.8,-0.97,2.07,2.42
2022-11-15 21:15:29.6130,2.65,-1.81,1.96,3.76
2022-11-15 21:15:29.6140,4.14,-2.72,1.71,5.24
2022-11-15 21:15:29.6240,4.57,-3.35,0.36,5.67
2022-11-15 21:15:29.6250,3.15,-3.38,-1.93,5.0
2022-11-15 21:15:29.6400,0.43,-2.62,-4.46,5.19
2022-11-15 21:15:29.6410,-1.57,-1.73,-6.66,7.05
2022-11-15 21:15:29.6560,-2.65,-0.63,-7.96,8.41
2022-11-15 21:15:29.6570,-3.22,0.84,-8.57,9.19
2022-11-15 21:15:29.6730,-3.52,2.3,-8.54,9.51
2022-11-15 21:15:29.6740,-3.45,3.41,-8.05,9.39
2022-11-15 21:15:29.7310,-2.81,3.77,-7.29,8.67
2022-11-15 21:15:29.7310,-1.68,3.34,-6.37,7.38
2022-11-15 21:15:29.7410,-0.47,2.56,-5.36,5.95
2022-11-15 21:15:29.7420,0.57,1.61,-4.26,4.58
2022-11-15 21:15:29.7570,1.32,0.64,-3.37,3.67
2022-11-15 21:15:29.7580,1.8,-0.06,-2.62,3.17
2022-11-15 21:15:29.7730,2.0,-0.57,-1.75,2.71
2022-11-15 21:15:29.7740,1.94,-1.2,-0.53,2.34
2022-11-15 21:15:29.7890,1.62,-1.51,1.2,2.51
2022-11-15 21:15:29.7900,1.13,-1.19,3.27,3.65
2022-11-15 21:15:29.8480,0.56,-0.28,4.92,4.95
2022-11-15 21:15:29.8490,-0.07,1.1,5.53,5.63
2022-11-15 21:15:29.8580,-0.62,2.3,4.77,5.33
2022-11-15 21:15:29.8580,-1.0,2.78,2.93,4.16
2022-11-15 21:15:29.8730,-1.12,2.6,0.96,2.98
2022-11-15 21:15:29.8740,-0.87,2.19,-0.67,2.44
2022-11-15 21:15:29.8890,-0.43,1.83,-1.96,2.71
2022-11-15 21:15:29.8900,0.07,1.54,-2.87,3.25
2022-11-15 21:15:29.9060,0.53,1.42,-3.1,3.45
2022-11-15 21:15:29.9070,0.9,1.38,-2.53,3.01
2022-11-15 21:15:29.9660,1.19,1.38,-1.14,2.14
2022-11-15 21:15:29.9660,1.33,1.35,0.85,2.07
2022-11-15 21:15:29.9740,1.35,1.18,2.89,3.4
2022-11-15 21:15:29.9750,1.25,0.96,4.33,4.6
2022-11-15 21:15:29.9900,0.96,0.75,4.76,4.91
2022-11-15 21:15:29.9910,0.54,0.56,4.44,4.5
2022-11-15 21:15:30.0070,0.12,0.36,3.66,3.67
2022-11-15 21:15:30.0070,-0.23,0.1,2.61,2.62
2022-11-15 21:15:30.0230,-0.5,-0.23,1.47,1.56
2022-11-15 21:15:30.0240,-0.63,-0.48,0.35,0.86
2022-11-15 21:15:30.0820,-0.63,-0.58,-0.42,0.95
2022-11-15 21:15:30.0830,-0.71,-0.33,-0.56,0.96
2022-11-15 21:15:30.0910,-0.92,0.16,0.09,0.93
2022-11-15 21:15:30.0910,-1.15,0.5,1.3,1.8
2022-11-15 21:15:30.1070,-1.04,0.46,2.63,2.86
2022-11-15 21:15:30.1080,-0.42,0.21,3.53,3.56
2022-11-15 21:15:30.1230,0.41,0.15,3.66,3.68
2022-11-15 21:15:30.1240,1.16,0.26,3.15,3.36
2022-11-15 21:15:30.1390,1.65,0.36,2.56,3.06
2022-11-15 21:15:30.1400,1.92,0.38,2.16,2.91
2022-11-15 21:15:30.1970,2.31,0.2,1.59,2.81
2022-11-15 21:15:30.1980,3.08,-0.34,0.85,3.21
2022-11-15 21:15:30.2080,4.15,-1.13,0.33,4.31
2022-11-15 21:15:30.2080,5.3,-1.59,-0.15,5.53
2022-11-15 21:15:30.2240,6.18,-1.64,-0.64,6.42
2022-11-15 21:15:30.2240,6.3,-1.04,-1.13,6.48
2022-11-15 21:15:30.2390,5.21,-0.11,-1.49,5.41
2022-11-15 21:15:30.2400,3.43,0.32,-1.67,3.82
2022-11-15 21:15:30.2560,1.87,0.17,-1.98,2.72
2022-11-15 21:15:30.2570,0.85,-0.34,-2.32,2.49
2022-11-15 21:15:30.3150,0.27,-0.96,-2.64,2.82
2022-11-15 21:15:30.3160,-0.05,-1.72,-2.94,3.4
2022-11-15 21:15:30.3240,-0.39,-2.58,-3.27,4.18
2022-11-15 21:15:30.3250,-0.89,-3.41,-3.75,5.14
2022-11-15 21:15:30.3410,-1.57,-4.17,-4.1,6.05
2022-11-15 21:15:30.3410,-2.3,-4.81,-4.18,6.77
2022-11-15 21:15:30.3570,-2.93,-5.25,-4.12,7.28
2022-11-15 21:15:30.3570,-3.25,-5.68,-3.97,7.65
2022-11-15 21:15:30.3730,-2.98,-5.93,-3.63,7.56
2022-11-15 21:15:30.3740,-2.37,-5.62,-2.95,6.77
2022-11-15 21:15:30.4330,-1.7,-4.53,-2.3,5.35
2022-11-15 21:15:30.4330,-1.2,-3.07,-1.75,3.73
2022-11-15 21:15:30.4410,-1.02,-1.5,-1.22,2.18
2022-11-15 21:15:30.4420,-0.91,0.08,-0.59,1.08
2022-11-15 21:15:30.4570,-0.84,1.5,0.34,1.75
2022-11-15 21:15:30.4580,-1.07,2.88,2.26,3.81
2022-11-15 21:15:30.4730,-1.36,4.22,3.53,5.66
2022-11-15 21:15:30.4740,-1.7,5.13,2.36,5.89
2022-11-15 21:15:30.4890,-2.1,5.39,0.12,5.78
2022-11-15 21:15:30.4900,-2.39,5.18,-1.83,5.99
2022-11-15 21:15:30.5480,-2.39,4.92,-3.13,6.3
2022-11-15 21:15:30.5490,-2.1,4.68,-3.78,6.37
2022-11-15 21:15:30.5580,-1.68,4.27,-3.8,5.95
2022-11-15 21:15:30.5580,-1.24,3.48,-3.38,5.0
2022-11-15 21:15:30.5740,-0.78,2.6,-2.84,3.92
2022-11-15 21:15:30.5740,-0.28,1.72,-2.29,2.87
2022-11-15 21:15:30.5890,0.19,0.86,-1.83,2.03
2022-11-15 21:15:30.5900,0.54,0.01,-1.44,1.53
2022-11-15 21:15:30.6060,0.52,-0.72,-1.16,1.46
2022-11-15 21:15:30.6070,0.02,-1.27,-0.92,1.56
2022-11-15 21:15:30.6660,-0.71,-1.68,-0.54,1.9
2022-11-15 21:15:30.6670,-1.48,-2.0,0.07,2.48
2022-11-15 21:15:30.6740,-2.17,-2.24,1.11,3.31
2022-11-15 21:15:30.6750,-2.58,-2.25,2.28,4.11
2022-11-15 21:15:30.6900,-2.64,-1.83,2.88,4.31
2022-11-15 21:15:30.6910,-2.28,-1.05,2.67,3.66
2022-11-15 21:15:30.7060,-1.79,-0.57,2.17,2.87
2022-11-15 21:15:30.7070,-0.96,-0.67,1.94,2.26
2022-11-15 21:15:30.7230,0.26,-1.31,2.09,2.48
2022-11-15 21:15:30.7240,1.3,-2.17,2.23,3.37
2022-11-15 21:15:30.7830,1.79,-2.94,1.96,3.96
2022-11-15 21:15:30.7840,1.74,-3.3,1.63,4.07
2022-11-15 21:15:30.7910,1.11,-2.96,1.53,3.51
2022-11-15 21:15:30.7920,-0.08,-2.09,1.47,2.55
2022-11-15 21:15:30.8070,-1.54,-0.99,1.61,2.43
2022-11-15 21:15:30.8080,-2.85,0.13,1.93,3.44
2022-11-15 21:15:30.8230,-3.76,1.26,2.02,4.45
2022-11-15 21:15:30.8240,-4.11,2.36,1.76,5.05
2022-11-15 21:15:30.8390,-3.83,3.17,1.51,5.19
2022-11-15 21:15:30.8400,-3.0,3.33,1.4,4.69
2022-11-15 21:15:30.9010,-1.77,2.64,1.6,3.55
2022-11-15 21:15:30.9020,-0.47,0.97,1.93,2.21
2022-11-15 21:15:30.9060,1.0,-1.02,2.31,2.71
2022-11-15 21:15:30.9240,2.57,-2.82,2.75,4.7
2022-11-15 21:15:30.9240,3.97,-4.34,2.69,6.46
2022-11-15 21:15:30.9390,4.88,-5.36,1.6,7.42
2022-11-15 21:15:30.9400,4.79,-5.7,-0.22,7.44
2022-11-15 21:15:30.9560,3.1,-5.26,-2.53,6.6
2022-11-15 21:15:30.9570,0.66,-4.03,-5.22,6.62
2022-11-15 21:15:30.9730,-0.62,-2.8,-7.34,7.88
2022-11-15 21:15:31.0370,-0.99,-1.56,-8.93,9.11
2022-11-15 21:15:31.0380,-1.07,-0.12,-9.8,9.85
2022-11-15 21:15:31.0580,-1.24,1.27,-9.44,9.6
2022-11-15 21:15:31.0590,-1.48,2.11,-7.89,8.3
2022-11-15 21:15:31.0740,-1.37,2.19,-6.07,6.59
2022-11-15 21:15:31.0740,-0.94,1.82,-4.32,4.78
2022-11-15 21:15:31.0890,-0.4,1.4,-2.98,3.31
2022-11-15 21:15:31.0900,0.18,1.14,-2.12,2.41
2022-11-15 21:15:31.1050,0.64,0.84,-1.38,1.73
2022-11-15 21:15:31.1060,0.93,-0.02,-0.54,1.07
2022-11-15 21:15:31.1690,0.93,-1.05,0.49,1.48
2022-11-15 21:15:31.1700,0.5,-1.51,2.24,2.74
2022-11-15 21:15:31.1920,-0.18,-1.1,4.05,4.2
2022-11-15 21:15:31.1920,-0.72,-0.09,5.09,5.14
2022-11-15 21:15:31.2070,-0.95,1.23,5.21,5.43
2022-11-15 21:15:31.2080,-0.92,2.31,3.99,4.7
2022-11-15 21:15:31.2230,-0.83,2.77,1.93,3.47
2022-11-15 21:15:31.2230,-0.67,2.75,0.2,2.83
2022-11-15 21:15:31.2390,-0.37,2.37,-1.18,2.67
2022-11-15 21:15:31.2400,-0.04,1.81,-2.47,3.06
2022-11-15 21:15:31.3050,0.17,1.29,-3.52,3.75
2022-11-15 21:15:31.3060,0.19,0.85,-4.03,4.12
2022-11-15 21:15:31.3250,0.15,0.45,-3.66,3.69
2022-11-15 21:15:31.3250,0.18,0.11,-2.26,2.26
2022-11-15 21:15:31.3400,0.17,-0.2,-0.3,0.39
2022-11-15 21:15:31.3410,0.08,-0.44,1.58,1.64
2022-11-15 21:15:31.3560,-0.16,-0.61,3.06,3.12
2022-11-15 21:15:31.3570,-0.57,-0.72,3.79,3.89
2022-11-15 21:15:31.3730,-0.96,-0.84,3.68,3.89
2022-11-15 21:15:31.3740,-1.21,-0.8,3.01,3.34
2022-11-15 21:15:31.4380,-1.34,-0.58,2.17,2.61
2022-11-15 21:15:31.4390,-1.36,-0.32,1.35,1.94
2022-11-15 21:15:31.4580,-1.26,-0.08,0.74,1.46
2022-11-15 21:15:31.4590,-1.1,0.21,0.39,1.18
2022-11-15 21:15:31.4740,-0.91,0.53,0.23,1.07
2022-11-15 21:15:31.4740,-0.61,0.88,0.15,1.08
2022-11-15 21:15:31.4890,-0.19,1.18,0.12,1.2
2022-11-15 21:15:31.4900,0.32,1.38,0.19,1.42
2022-11-15 21:15:31.5060,0.87,1.44,0.44,1.73
2022-11-15 21:15:31.5070,1.38,1.37,0.86,2.12
2022-11-15 21:15:31.5720,1.75,1.23,1.24,2.47
2022-11-15 21:15:31.5720,1.94,1.09,1.44,2.65
2022-11-15 21:15:31.5910,1.87,0.9,1.48,2.54
2022-11-15 21:15:31.5920,1.65,0.62,1.48,2.3
2022-11-15 21:15:31.6070,1.43,0.39,1.41,2.04
2022-11-15 21:15:31.6080,1.36,0.21,1.35,1.92
2022-11-15 21:15:31.6230,1.28,-0.04,1.49,1.96
2022-11-15 21:15:31.6240,1.05,-0.29,1.89,2.18
2022-11-15 21:15:31.6390,0.8,-0.52,2.32,2.5
2022-11-15 21:15:31.6400,0.56,-0.62,2.61,2.74
2022-11-15 21:15:31.7070,0.36,-0.51,2.42,2.49
2022-11-15 21:15:31.7070,0.41,-0.32,1.67,1.74
2022-11-15 21:15:31.7240,1.08,-0.21,0.69,1.29
2022-11-15 21:15:31.7250,1.94,0.06,-0.5,2.0
2022-11-15 21:15:31.7400,2.71,0.24,-1.6,3.15
2022-11-15 21:15:31.7410,3.23,0.12,-2.53,4.1
2022-11-15 21:15:31.7560,3.29,-0.37,-3.3,4.67
2022-11-15 21:15:31.7570,3.02,-1.1,-3.64,4.85
2022-11-15 21:15:31.7730,2.63,-1.74,-3.4,4.63
2022-11-15 21:15:31.7740,2.21,-2.04,-2.89,4.17
2022-11-15 21:15:31.8390,1.69,-1.81,-2.42,3.46
2022-11-15 21:15:31.8400,1.17,-1.26,-2.19,2.78
2022-11-15 21:15:31.8580,0.83,-0.83,-2.24,2.52
2022-11-15 21:15:31.8590,0.79,-0.67,-2.33,2.54
2022-11-15 21:15:31.8740,0.95,-0.69,-2.29,2.57
2022-11-15 21:15:31.8740,1.19,-0.66,-2.09,2.49
2022-11-15 21:15:31.8890,1.4,-0.57,-1.8,2.35
2022-11-15 21:15:31.8900,1.57,-0.33,-1.53,2.21
2022-11-15 21:15:31.9060,1.63,0.11,-1.37,2.13
2022-11-15 21:15:31.9070,1.59,0.68,-1.31,2.16
2022-11-15 21:15:31.9730,1.41,1.19,-1.3,2.25
2022-11-15 21:15:31.9740,0.92,1.58,-1.41,2.3
2022-11-15 21:15:31.9910,0.17,1.91,-1.64,2.52
2022-11-15 21:15:31.9920,-0.59,2.04,-1.83,2.8
2022-11-15 21:15:32.0070,-1.24,1.89,-1.86,2.92
2022-11-15 21:15:32.0080,-1.76,1.57,-1.58,2.83
2022-11-15 21:15:32.0230,-1.91,1.3,-1.15,2.58
2022-11-15 21:15:32.0230,-1.42,1.46,-0.97,2.25
2022-11-15 21:15:32.0390,-0.3,1.88,-1.0,2.15
2022-11-15 21:15:32.0400,0.87,2.07,-1.02,2.46
2022-11-15 21:15:32.1070,1.89,2.08,-0.81,2.92
2022-11-15 21:15:32.1080,2.82,2.01,-0.26,3.47
2022-11-15 21:15:32.1250,3.64,1.9,0.24,4.11
2022-11-15 21:15:32.1250,4.21,1.68,0.39,4.54
2022-11-15 21:15:32.1400,4.44,1.33,0.19,4.63
2022-11-15 21:15:32.1410,4.33,0.95,-0.25,4.44
2022-11-15 21:15:32.1560,3.87,0.58,-0.79,3.99
2022-11-15 21:15:32.1570,3.07,0.28,-1.54,3.44
2022-11-15 21:15:32.1730,1.98,0.06,-2.46,3.15
2022-11-15 21:15:32.1740,0.78,-0.15,-3.32,3.41
2022-11-15 21:15:32.2400,-0.17,-0.39,-3.87,3.89
2022-11-15 21:15:32.2410,-0.86,-0.66,-4.21,4.34
2022-11-15 21:15:32.2580,-1.33,-0.95,-4.37,4.66
2022-11-15 21:15:32.2590,-1.61,-1.24,-4.29,4.74
2022-11-15 21:15:32.3070,-1.72,-1.45,-3.89,4.49
2022-11-15 21:15:32.3080,-1.49,-1.42,-3.23,3.83
2022-11-15 21:15:32.3230,-1.02,-1.13,-2.42,2.85
2022-11-15 21:15:32.3230,-0.47,-0.63,-1.53,1.72
2022-11-15 21:15:32.3400,0.2,0.06,-0.41,0.46
2022-11-15 21:15:32.3410,0.89,0.83,0.87,1.49
2022-11-15 21:15:32.4130,1.44,1.58,2.08,2.98
2022-11-15 21:15:32.4140,1.95,2.19,2.95,4.15
2022-11-15 21:15:32.4240,2.37,2.55,3.12,4.67
2022-11-15 21:15:32.4250,2.6,2.48,2.54,4.4
2022-11-15 21:15:32.4400,2.71,2.02,1.58,3.73
2022-11-15 21:15:32.4410,2.78,1.4,0.61,3.17
2022-11-15 21:15:32.4560,2.7,0.85,-0.32,2.84
2022-11-15 21:15:32.4570,2.38,0.46,-1.12,2.67
2022-11-15 21:15:32.4730,1.78,0.23,-1.64,2.43
2022-11-15 21:15:32.4740,1.04,0.01,-1.74,2.02
2022-11-15 21:15:32.5400,0.39,-0.23,-1.47,1.53
2022-11-15 21:15:32.5400,-0.09,-0.38,-0.9,0.98
2022-11-15 21:15:32.5580,-0.39,-0.33,-0.2,0.54
2022-11-15 21:15:32.5590,-0.46,-0.09,0.36,0.59
2022-11-15 21:15:32.5740,-0.36,0.22,0.72,0.83
2022-11-15 21:15:32.5740,-0.22,0.53,0.69,0.89
2022-11-15 21:15:32.5900,-0.12,0.8,0.21,0.83
2022-11-15 21:15:32.5900,-0.05,0.98,-0.38,1.05
2022-11-15 21:15:32.6060,0.09,0.97,-0.82,1.27
2022-11-15 21:15:32.6070,0.33,0.83,-1.21,1.5
2022-11-15 21:15:32.6740,0.61,0.57,-1.73,1.92
2022-11-15 21:15:32.6750,1.09,0.11,-2.46,2.69
2022-11-15 21:15:32.6910,1.84,-0.5,-3.41,3.9
2022-11-15 21:15:32.6920,2.46,-1.11,-3.89,4.73
2022-11-15 21:15:32.7070,2.58,-1.27,-3.45,4.49
2022-11-15 21:15:32.7070,2.32,-1.02,-2.52,3.57
2022-11-15 21:15:32.7230,2.06,-0.73,-1.7,2.76
2022-11-15 21:15:32.7240,2.0,-0.41,-1.14,2.33
2022-11-15 21:15:32.7400,2.09,-0.01,-0.9,2.27
2022-11-15 21:15:32.7410,2.24,0.54,-0.91,2.47
2022-11-15 21:15:32.8070,2.47,1.29,-1.03,2.97
2022-11-15 21:15:32.8080,2.66,2.15,-1.22,3.63
2022-11-15 21:15:32.8250,2.76,2.99,-1.4,4.3
2022-11-15 21:15:32.8260,2.77,3.64,-1.54,4.82
2022-11-15 21:15:32.8400,2.6,4.03,-1.48,5.01
2022-11-15 21:15:32.8410,2.27,4.14,-1.14,4.85
2022-11-15 21:15:32.8560,1.8,3.81,-0.6,4.25
2022-11-15 21:15:32.8570,1.41,3.21,0.05,3.5
2022-11-15 21:15:32.8730,1.31,2.57,0.69,2.96
2022-11-15 21:15:32.8740,1.42,1.93,1.08,2.62
2022-11-15 21:15:32.9410,1.53,1.36,0.98,2.26
2022-11-15 21:15:32.9420,1.57,0.96,0.4,1.88
2022-11-15 21:15:32.9580,1.57,0.69,-0.3,1.74
2022-11-15 21:15:32.9580,1.44,0.49,-0.88,1.75
2022-11-15 21:15:32.9730,1.21,0.28,-1.44,1.9
2022-11-15 21:15:32.9740,0.98,0.11,-1.93,2.16
2022-11-15 21:15:32.9890,0.67,-0.06,-2.36,2.45
2022-11-15 21:15:32.9900,0.29,-0.22,-2.77,2.79
2022-11-15 21:15:33.0060,-0.11,-0.34,-3.06,3.08
2022-11-15 21:15:33.0070,-0.55,-0.42,-3.21,3.28
2022-11-15 21:15:33.0780,-0.97,-0.46,-3.17,3.34
2022-11-15 21:15:33.0790,-1.25,-0.42,-2.92,3.2
2022-11-15 21:15:33.0880,-1.17,-0.25,-2.26,2.55
2022-11-15 21:15:33.0890,-0.65,-0.03,-1.28,1.43
2022-11-15 21:15:33.1050,0.05,0.13,-0.24,0.27
2022-11-15 21:15:33.1060,0.67,0.32,0.78,1.07
2022-11-15 21:15:33.1210,1.06,0.54,1.75,2.11
2022-11-15 21:15:33.1220,1.25,0.82,2.66,3.05
2022-11-15 21:15:33.1380,1.38,1.12,3.47,3.89
2022-11-15 21:15:33.1390,1.57,1.4,4.12,4.62
2022-11-15 21:15:33.2070,1.82,1.68,4.41,5.05
2022-11-15 21:15:33.2080,2.0,1.98,4.08,4.95
2022-11-15 21:15:33.2250,2.03,2.25,3.1,4.33
2022-11-15 21:15:33.2250,2.12,2.38,2.02,3.77
2022-11-15 21:15:33.2400,2.34,2.4,1.25,3.57
2022-11-15 21:15:33.2410,2.63,2.35,0.84,3.62
2022-11-15 21:15:33.2560,2.94,2.27,0.69,3.77
2022-11-15 21:15:33.2570,3.22,2.12,0.66,3.91
2022-11-15 21:15:33.2730,3.5,1.87,0.64,4.01
2022-11-15 21:15:33.2740,3.7,1.39,0.58,3.99
2022-11-15 21:15:33.3430,3.66,0.75,0.39,3.75
2022-11-15 21:15:33.3440,3.54,0.14,0.07,3.54
2022-11-15 21:15:33.3580,3.41,-0.36,-0.32,3.44
2022-11-15 21:15:33.3580,3.18,-0.75,-0.73,3.34
2022-11-15 21:15:33.3740,2.75,-0.96,-1.04,3.09
2022-11-15 21:15:33.3750,2.11,-0.99,-1.28,2.65
2022-11-15 21:15:33.3890,1.36,-0.85,-1.44,2.15
2022-11-15 21:15:33.3900,0.69,-0.68,-1.53,1.81
2022-11-15 21:15:33.4060,0.2,-0.47,-1.55,1.63
2022-11-15 21:15:33.4070,-0.1,-0.23,-1.49,1.51
2022-11-15 21:15:33.4780,-0.2,-0.03,-1.37,1.38
2022-11-15 21:15:33.4790,-0.11,0.02,-1.29,1.29
2022-11-15 21:15:33.4910,0.17,-0.06,-1.28,1.29
2022-11-15 21:15:33.4920,0.61,-0.29,-1.33,1.49
2022-11-15 21:15:33.5070,1.11,-0.6,-1.35,1.84
2022-11-15 21:15:33.5070,1.46,-0.87,-1.23,2.09
2022-11-15 21:15:33.5220,1.5,-1.0,-1.04,2.08
2022-11-15 21:15:33.5230,1.38,-1.0,-0.9,1.92
2022-11-15 21:15:33.5390,1.2,-0.8,-0.82,1.65
2022-11-15 21:15:33.5400,0.98,-0.43,-0.86,1.37
2022-11-15 21:15:33.6090,0.8,-0.02,-0.99,1.27
2022-11-15 21:15:33.6100,0.68,0.33,-1.05,1.29
2022-11-15 21:15:33.6240,0.61,0.68,-0.98,1.33
2022-11-15 21:15:33.6250,0.56,1.08,-0.89,1.5
2022-11-15 21:15:33.6400,0.48,1.52,-0.85,1.8
2022-11-15 21:15:33.6410,0.41,1.95,-0.94,2.2
2022-11-15 21:15:33.6560,0.42,2.2,-1.04,2.46
2022-11-15 21:15:33.6570,0.64,2.21,-1.15,2.57
2022-11-15 21:15:33.6720,1.01,2.05,-1.32,2.63
2022-11-15 21:15:33.6730,1.4,1.7,-1.45,2.63
2022-11-15 21:15:33.7450,1.76,1.19,-1.58,2.64
2022-11-15 21:15:33.7460,1.88,0.6,-1.82,2.68
2022-11-15 21:15:33.7580,1.76,0.05,-2.02,2.67
2022-11-15 21:15:33.7580,1.31,-0.43,-2.34,2.71
2022-11-15 21:15:33.7740,0.57,-0.84,-2.7,2.88
2022-11-15 21:15:33.7740,-0.31,-1.04,-2.91,3.1
2022-11-15 21:15:33.7900,-1.28,-1.16,-3.11,3.55
2022-11-15 21:15:33.7900,-2.13,-1.27,-3.14,4.0
2022-11-15 21:15:33.8060,-2.89,-1.33,-2.87,4.28
2022-11-15 21:15:33.8070,-3.67,-1.36,-2.38,4.58
2022-11-15 21:15:33.8780,-4.5,-1.33,-1.37,4.88
2022-11-15 21:15:33.8790,-5.55,-1.07,0.84,5.71
2022-11-15 21:15:33.8910,-6.26,-0.14,3.13,7.0
2022-11-15 21:15:33.8920,-5.62,1.43,3.18,6.61
2022-11-15 21:15:33.9070,-4.44,2.37,1.78,5.33
2022-11-15 21:15:33.9080,-3.65,2.28,0.68,4.35
2022-11-15 21:15:33.9230,-3.14,1.79,0.21,3.62
2022-11-15 21:15:33.9230,-2.76,1.28,0.19,3.04
2022-11-15 21:15:33.9390,-2.5,0.82,0.48,2.67
2022-11-15 21:15:33.9400,-2.21,0.43,0.91,2.42
2022-11-15 21:15:34.0110,-1.66,0.08,1.61,2.31
2022-11-15 21:15:34.0120,-0.62,-0.21,2.57,2.65
2022-11-15 21:15:34.0240,0.71,-0.4,3.6,3.69
2022-11-15 21:15:34.0250,2.12,-0.51,4.56,5.05
2022-11-15 21:15:34.0400,3.4,-0.55,5.06,6.12
2022-11-15 21:15:34.0410,4.3,-0.62,4.84,6.5
2022-11-15 21:15:34.0560,4.59,-0.77,3.84,6.03
2022-11-15 21:15:34.0570,4.18,-0.94,2.58,5.0
2022-11-15 21:15:34.0720,3.24,-1.0,1.56,3.73
2022-11-15 21:15:34.0730,2.15,-0.96,0.96,2.54
2022-11-15 21:15:34.1450,1.22,-1.13,0.98,1.93
2022-11-15 21:15:34.1460,0.47,-1.47,1.37,2.06
2022-11-15 21:15:34.1570,-0.15,-1.83,1.8,2.57
2022-11-15 21:15:34.1580,-0.69,-2.08,2.01,2.97
2022-11-15 21:15:34.1740,-1.2,-1.91,1.64,2.78
2022-11-15 21:15:34.1740,-1.74,-1.25,0.59,2.22
2022-11-15 21:15:34.1890,-2.38,-0.26,-0.61,2.47
2022-11-15 21:15:34.1900,-2.98,0.64,-1.61,3.44
2022-11-15 21:15:34.2060,-3.25,1.13,-2.46,4.22
2022-11-15 21:15:34.2070,-3.09,1.51,-3.19,4.69
2022-11-15 21:15:34.2810,-2.47,1.72,-3.82,4.86
2022-11-15 21:15:34.2810,-1.35,1.6,-4.32,4.8
2022-11-15 21:15:34.2900,-0.09,1.19,-4.55,4.7
2022-11-15 21:15:34.2910,0.77,0.74,-4.55,4.67
2022-11-15 21:15:34.3070,1.09,0.45,-4.58,4.72
2022-11-15 21:15:34.3070,0.97,0.26,-4.64,4.74
2022-11-15 21:15:34.3220,0.74,-0.03,-4.51,4.57
2022-11-15 21:15:34.3230,0.56,-0.38,-4.04,4.09
2022-11-15 21:15:34.3390,0.18,-0.74,-3.24,3.32
2022-11-15 21:15:34.3400,-0.27,-1.08,-2.14,2.41
2022-11-15 21:15:34.4140,-0.72,-1.16,-0.93,1.65
2022-11-15 21:15:34.4150,-1.01,-0.82,0.22,1.31
2022-11-15 21:15:34.4240,-1.0,-0.09,1.26,1.61
2022-11-15 21:15:34.4250,-0.62,0.88,2.24,2.48
2022-11-15 21:15:34.4400,0.0,1.84,2.98,3.5
2022-11-15 21:15:34.4410,0.69,2.55,3.2,4.14
2022-11-15 21:15:34.4560,1.21,2.97,2.81,4.26
2022-11-15 21:15:34.4570,1.54,3.15,1.88,3.97
2022-11-15 21:15:34.4720,1.85,3.03,0.66,3.61
2022-11-15 21:15:34.4730,2.16,2.75,-0.49,3.53
2022-11-15 21:15:34.5470,2.41,2.49,-1.33,3.71
2022-11-15 21:15:34.5480,2.53,2.34,-1.7,3.84
2022-11-15 21:15:34.5570,2.48,2.17,-1.5,3.62
2022-11-15 21:15:34.5580,2.17,1.87,-0.79,2.97
2022-11-15 21:15:34.5730,1.53,1.3,0.34,2.03
2022-11-15 21:15:34.5740,0.77,0.61,1.55,1.83
2022-11-15 21:15:34.5890,-0.02,-0.01,2.3,2.3
2022-11-15 21:15:34.5900,-0.72,-0.37,2.44,2.57
2022-11-15 21:15:34.6060,-1.28,-0.5,2.16,2.56
2022-11-15 21:15:34.6070,-1.73,-0.46,1.69,2.46
2022-11-15 21:15:34.6820,-2.0,-0.32,1.19,2.34
2022-11-15 21:15:34.6830,-2.07,-0.14,0.7,2.18
2022-11-15 21:15:34.6890,-2.02,0.11,0.32,2.04
2022-11-15 21:15:34.6900,-1.91,0.39,0.22,1.96
2022-11-15 21:15:34.7070,-1.82,0.61,0.39,1.95
2022-11-15 21:15:34.7070,-1.68,0.8,0.88,2.05
2022-11-15 21:15:34.7220,-1.2,0.91,1.6,2.19
2022-11-15 21:15:34.7230,-0.36,0.75,2.56,2.69
2022-11-15 21:15:34.7390,0.7,0.43,3.4,3.49
2022-11-15 21:15:34.7400,1.76,0.14,3.8,4.19
2022-11-15 21:15:34.8160,2.66,0.0,3.6,4.47
2022-11-15 21:15:34.8160,3.24,0.09,3.12,4.49
2022-11-15 21:15:34.8240,3.51,0.39,2.8,4.5
2022-11-15 21:15:34.8240,3.46,0.8,2.81,4.52
2022-11-15 21:15:34.8400,3.28,1.09,2.96,4.55
2022-11-15 21:15:34.8410,3.09,1.09,2.95,4.4
2022-11-15 21:15:34.8560,3.25,0.6,2.32,4.03
2022-11-15 21:15:34.8570,3.7,-0.22,1.39,3.95
2022-11-15 21:15:34.8720,4.26,-0.88,0.53,4.38
2022-11-15 21:15:34.8730,4.75,-1.25,-0.18,4.91
2022-11-15 21:15:34.9500,4.61,-1.29,-0.6,4.82
2022-11-15 21:15:34.9500,3.53,-1.14,-0.76,3.78
2022-11-15 21:15:34.9540,2.06,-1.1,-0.88,2.49
2022-11-15 21:15:34.9550,0.7,-1.03,-1.1,1.66
2022-11-15 21:15:34.9730,-0.32,-1.03,-1.55,1.88
2022-11-15 21:15:34.9740,-1.04,-1.21,-2.17,2.69
2022-11-15 21:15:34.9890,-1.61,-1.69,-2.85,3.68
2022-11-15 21:15:34.9900,-2.02,-2.5,-3.36,4.64
2022-11-15 21:15:35.0060,-2.38,-3.58,-3.48,5.53
2022-11-15 21:15:35.0070,-2.71,-4.76,-3.28,6.38
2022-11-15 21:15:35.0830,-2.99,-5.7,-2.94,7.07
2022-11-15 21:15:35.0840,-3.02,-6.37,-2.67,7.53
2022-11-15 21:15:35.0880,-2.81,-6.71,-2.19,7.59
2022-11-15 21:15:35.0890,-2.3,-6.73,-1.61,7.29
2022-11-15 21:15:35.1070,-1.46,-6.35,-1.18,6.62
2022-11-15 21:15:35.1070,-0.61,-5.46,-0.76,5.54
2022-11-15 21:15:35.1230,-0.09,-4.23,-0.4,4.24
2022-11-15 21:15:35.1240,0.1,-2.85,-0.27,2.86
2022-11-15 21:15:35.1390,0.1,-1.49,-0.22,1.5
2022-11-15 21:15:35.1400,-0.12,-0.17,-0.47,0.51
2022-11-15 21:15:35.2170,-0.45,1.06,-0.8,1.4
2022-11-15 21:15:35.2180,-0.84,2.2,-1.21,2.64
2022-11-15 21:15:35.2210,-1.25,3.16,-1.67,3.78
2022-11-15 21:15:35.2400,-1.47,3.84,-2.1,4.61
2022-11-15 21:15:35.2410,-1.32,4.27,-2.45,5.09
2022-11-15 21:15:35.2560,-0.81,4.42,-2.74,5.26
2022-11-15 21:15:35.2570,-0.17,4.39,-3.04,5.34
2022-11-15 21:15:35.2720,0.36,4.24,-3.15,5.29
2022-11-15 21:15:35.2730,0.71,4.0,-2.96,5.02
2022-11-15 21:15:35.2890,0.91,3.63,-2.53,4.51
2022-11-15 21:15:35.3690,1.06,3.24,-2.07,3.98
2022-11-15 21:15:35.3700,1.11,2.79,-1.85,3.52
2022-11-15 21:15:35.3920,0.94,2.31,-1.71,3.02
2022-11-15 21:15:35.3920,0.49,1.85,-1.67,2.53
2022-11-15 21:15:35.4070,-0.52,1.29,-1.71,2.2
2022-11-15 21:15:35.4080,-2.5,0.2,-0.48,2.55
2022-11-15 21:15:35.4230,-5.37,-1.53,2.34,6.05
2022-11-15 21:15:35.4230,-7.72,-2.73,4.02,9.12
2022-11-15 21:15:35.4390,-8.18,-2.46,2.44,8.88
2022-11-15 21:15:35.4400,-7.29,-1.51,0.04,7.44
2022-11-15 21:15:35.5210,-6.02,-0.58,-0.98,6.12
2022-11-15 21:15:35.5220,-4.79,-0.04,-0.48,4.81
2022-11-15 21:15:35.5410,-3.5,0.16,0.53,3.54
2022-11-15 21:15:35.5420,-2.31,0.2,1.37,2.69
2022-11-15 21:15:35.5570,-1.35,0.16,1.95,2.37
2022-11-15 21:15:35.5570,-0.45,0.11,2.49,2.53
2022-11-15 21:15:35.5730,0.66,-0.18,3.12,3.19
2022-11-15 21:15:35.5730,2.24,-1.0,3.88,4.59
2022-11-15 21:15:35.5890,3.94,-2.25,4.44,6.34
2022-11-15 21:15:35.5900,5.1,-3.22,4.39,7.45
2022-11-15 21:15:35.6710,4.97,-3.51,4.08,7.32
2022-11-15 21:15:35.6720,3.27,-3.0,3.87,5.88
2022-11-15 21:15:35.6910,0.97,-2.06,4.04,4.63
2022-11-15 21:15:35.6920,-0.81,-1.42,4.57,4.85
2022-11-15 21:15:35.7070,-1.43,-1.11,4.43,4.78
2022-11-15 21:15:35.7080,-0.86,-0.68,3.23,3.41
2022-11-15 21:15:35.7220,0.45,-0.08,1.98,2.03
2022-11-15 21:15:35.7230,1.62,0.29,1.34,2.12
2022-11-15 21:15:35.7390,2.22,0.17,1.08,2.47
2022-11-15 21:15:35.7400,2.29,-0.21,0.33,2.32
2022-11-15 21:15:35.8210,1.4,-0.83,-1.15,1.99
2022-11-15 21:15:35.8210,-0.3,-1.25,-2.85,3.12
2022-11-15 21:15:35.8420,-1.82,-1.5,-4.99,5.51
2022-11-15 21:15:35.8420,-2.54,-1.87,-7.21,7.86
2022-11-15 21:15:35.8570,-3.14,-1.83,-9.23,9.91
2022-11-15 21:15:35.8570,-3.69,-1.0,-10.32,11.0
2022-11-15 21:15:35.8720,-3.89,0.47,-9.48,10.25
2022-11-15 21:15:35.8730,-3.7,1.76,-7.28,8.35
2022-11-15 21:15:35.8890,-2.96,2.29,-5.65,6.77
2022-11-15 21:15:35.8900,-1.81,2.19,-4.63,5.43
2022-11-15 21:15:35.9710,-0.62,1.64,-3.73,4.12
2022-11-15 21:15:35.9720,0.55,0.95,-2.67,2.88
2022-11-15 21:15:35.9910,1.66,0.16,-1.52,2.25
2022-11-15 21:15:35.9920,2.42,-0.5,-0.23,2.48
2022-11-15 21:15:36.0070,2.64,-0.89,0.98,2.95
2022-11-15 21:15:36.0080,2.32,-0.79,2.0,3.16
2022-11-15 21:15:36.0220,1.59,0.0,2.8,3.21
2022-11-15 21:15:36.0230,0.8,1.18,3.18,3.48
2022-11-15 21:15:36.0390,0.19,2.44,2.94,3.82
2022-11-15 21:15:36.0400,-0.21,3.36,2.11,3.97
2022-11-15 21:15:36.1230,-0.4,3.63,0.84,3.74
2022-11-15 21:15:36.1230,-0.39,3.28,-0.45,3.33
2022-11-15 21:15:36.1410,-0.19,2.61,-1.37,2.95
2022-11-15 21:15:36.1420,0.13,1.91,-1.73,2.58
2022-11-15 21:15:36.1570,0.55,1.4,-1.56,2.16
2022-11-15 21:15:36.1580,0.95,1.0,-0.87,1.63
2022-11-15 21:15:36.1720,1.14,0.67,0.66,1.47
2022-11-15 21:15:36.1730,1.01,0.54,2.94,3.15
2022-11-15 21:15:36.1890,0.71,0.48,4.73,4.8
2022-11-15 21:15:36.1900,0.36,0.58,5.08,5.12
2022-11-15 21:15:36.2720,-0.01,0.71,4.03,4.09
