time,ax,ay,az,atotal
2022-11-15 21:15:04.6150,-0.68,0.12,-0.33,0.76
2022-11-15 21:15:04.6170,-0.72,0.22,-0.29,0.8
2022-11-15 21:15:04.6210,-0.65,0.37,-0.13,0.75
2022-11-15 21:15:04.6220,-0.74,0.4,-0.07,0.84
2022-11-15 21:15:04.6380,-0.79,0.34,-0.02,0.86
2022-11-15 21:15:04.6970,-0.76,0.27,-0.1,0.81
2022-11-15 21:15:04.6980,-0.65,0.28,-0.22,0.74
2022-11-15 21:15:04.7050,-0.65,0.33,-0.24,0.76
2022-11-15 21:15:04.7050,-0.58,0.31,-0.23,0.69
2022-11-15 21:15:04.7210,-0.52,0.17,-0.38,0.66
2022-11-15 21:15:04.7220,-0.48,-0.07,-0.41,0.63
2022-11-15 21:15:04.7370,-0.33,-0.25,-0.21,0.46
2022-11-15 21:15:04.7380,-0.34,-0.42,-0.07,0.54
2022-11-15 21:15:04.7540,-0.49,-0.59,-0.15,0.78
2022-11-15 21:15:04.7540,-0.66,-0.67,-0.22,0.96
2022-11-15 21:15:04.8150,-0.76,-0.66,-0.25,1.03
2022-11-15 21:15:04.8160,-0.9,-0.55,-0.32,1.1
2022-11-15 21:15:04.8200,-0.92,-0.08,-0.16,0.93
2022-11-15 21:15:04.8200,-0.53,0.99,0.26,1.15
2022-11-15 21:15:04.8380,-0.38,1.51,0.01,1.55
2022-11-15 21:15:04.8390,-0.07,2.16,0.77,2.29
2022-11-15 21:15:04.8540,0.5,2.27,0.95,2.51
2022-11-15 21:15:04.8550,0.98,1.75,-0.7,2.12
2022-11-15 21:15:04.8700,1.35,1.25,-1.62,2.45
2022-11-15 21:15:04.8710,1.74,0.64,-2.21,2.88
2022-11-15 21:15:04.9320,1.97,-0.01,-2.91,3.51
2022-11-15 21:15:04.9320,1.96,-0.68,-3.08,3.71
2022-11-15 21:15:04.9380,1.5,-1.44,-2.4,3.17
2022-11-15 21:15:04.9380,0.85,-1.99,-1.42,2.58
2022-11-15 21:15:04.9550,0.52,-2.18,-0.26,2.25
2022-11-15 21:15:04.9550,0.49,-2.02,1.18,2.39
2022-11-15 21:15:04.9700,0.56,-1.66,2.1,2.73
2022-11-15 21:15:04.9710,0.54,-1.18,2.52,2.83
2022-11-15 21:15:04.9870,0.15,-0.69,3.58,3.64
2022-11-15 21:15:04.9880,-0.64,-0.16,4.94,4.98
2022-11-15 21:15:05.0490,-0.66,0.52,4.1,4.18
2022-11-15 21:15:05.0500,-0.53,1.34,3.78,4.04
2022-11-15 21:15:05.0530,-0.12,1.96,2.55,3.21
2022-11-15 21:15:05.0710,0.19,2.09,1.1,2.36
2022-11-15 21:15:05.0720,0.39,1.65,-0.14,1.7
2022-11-15 21:15:05.0870,0.5,0.75,-1.65,1.88
2022-11-15 21:15:05.0880,0.42,-0.17,-2.68,2.71
2022-11-15 21:15:05.1040,0.38,-0.83,-2.88,3.02
2022-11-15 21:15:05.1040,0.5,-1.25,-2.45,2.79
2022-11-15 21:15:05.1200,0.74,-1.18,-2.28,2.67
2022-11-15 21:15:05.1840,1.82,0.64,-3.14,3.68
2022-11-15 21:15:05.1850,1.59,1.69,1.15,2.58
2022-11-15 21:15:05.2070,0.12,1.43,1.72,2.24
2022-11-15 21:15:05.2080,-0.59,0.31,1.33,1.48
2022-11-15 21:15:05.2210,-0.61,-0.41,1.31,1.5
2022-11-15 21:15:05.2220,-0.6,-1.03,0.93,1.51
2022-11-15 21:15:05.2370,-0.29,-1.42,0.26,1.47
2022-11-15 21:15:05.2380,0.25,-1.31,-0.11,1.33
2022-11-15 21:15:05.2540,0.49,-1.26,-0.12,1.35
2022-11-15 21:15:05.2540,0.85,-0.98,0.01,1.29
2022-11-15 21:15:05.3180,1.24,-0.62,-0.06,1.38
2022-11-15 21:15:05.3180,1.48,-0.65,0.32,1.64
2022-11-15 21:15:05.3390,1.5,-0.74,0.57,1.76
2022-11-15 21:15:05.3400,1.7,-0.67,0.67,1.94
2022-11-15 21:15:05.3550,1.59,-0.46,0.25,1.67
2022-11-15 21:15:05.3560,1.1,-0.76,-0.78,1.54
2022-11-15 21:15:05.3700,0.9,-0.82,-1.02,1.58
2022-11-15 21:15:05.3710,0.59,-0.31,-0.65,0.93
2022-11-15 21:15:05.3870,0.25,0.17,-0.81,0.86
2022-11-15 21:15:05.3880,-0.26,-0.01,-1.31,1.33
2022-11-15 21:15:05.4510,-0.47,-0.22,-1.43,1.52
2022-11-15 21:15:05.4520,-0.69,0.03,-0.93,1.15
2022-11-15 21:15:05.4730,-0.97,0.79,-0.51,1.35
2022-11-15 21:15:05.4730,-1.21,1.15,-0.21,1.68
2022-11-15 21:15:05.4880,-1.02,1.09,-0.12,1.49
2022-11-15 21:15:05.4890,-0.69,0.5,-0.24,0.88
2022-11-15 21:15:05.5040,-0.6,0.05,-0.15,0.62
2022-11-15 21:15:05.5050,-0.32,-0.4,0.21,0.55
2022-11-15 21:15:05.5200,-0.2,-0.97,0.46,1.09
2022-11-15 21:15:05.5210,0.05,-1.14,0.54,1.26
2022-11-15 21:15:05.5850,-0.03,-1.15,0.14,1.15
2022-11-15 21:15:05.5850,-0.09,-0.7,-0.16,0.72
2022-11-15 21:15:05.6060,0.03,0.08,0.01,0.08
2022-11-15 21:15:05.6060,-0.17,0.87,-0.23,0.91
2022-11-15 21:15:05.6220,-0.48,1.65,-0.75,1.87
2022-11-15 21:15:05.6220,-0.47,1.91,-1.0,2.2
2022-11-15 21:15:05.6370,-0.73,1.54,-0.6,1.8
2022-11-15 21:15:05.6380,-0.56,1.34,-0.09,1.45
2022-11-15 21:15:05.6540,-0.5,0.93,0.16,1.06
2022-11-15 21:15:05.6540,-1.24,0.4,0.47,1.38
2022-11-15 21:15:05.7180,-2.47,0.68,0.14,2.56
2022-11-15 21:15:05.7180,-3.23,0.76,1.06,3.48
2022-11-15 21:15:05.7390,-1.77,-0.29,3.45,3.88
2022-11-15 21:15:05.7400,-1.26,-0.16,1.45,1.92
2022-11-15 21:15:05.7550,-1.01,0.33,-0.85,1.36
2022-11-15 21:15:05.7560,-0.3,0.54,-1.8,1.9
2022-11-15 21:15:05.7700,0.37,0.82,-2.13,2.31
2022-11-15 21:15:05.7710,0.67,0.98,-2.29,2.57
2022-11-15 21:15:05.7870,0.74,0.97,-2.53,2.8
2022-11-15 21:15:05.7880,1.25,1.1,-1.83,2.47
2022-11-15 21:15:05.8510,0.54,0.74,-2.68,2.83
2022-11-15 21:15:05.8520,0.1,0.5,-3.61,3.64
2022-11-15 21:15:05.8720,0.42,0.33,-3.21,3.25
2022-11-15 21:15:05.8730,0.77,-0.27,-0.22,0.84
2022-11-15 21:15:05.8880,1.44,-1.36,7.65,7.9
2022-11-15 21:15:05.8890,0.98,-2.09,3.87,4.5
2022-11-15 21:15:05.9030,0.51,-2.48,-0.07,2.53
2022-11-15 21:15:05.9040,0.72,-2.61,-1.08,2.91
2022-11-15 21:15:05.9200,1.43,-2.33,-0.47,2.77
2022-11-15 21:15:05.9210,1.66,-1.9,0.22,2.53
2022-11-15 21:15:05.9850,1.25,-1.44,0.37,1.94
2022-11-15 21:15:05.9860,0.52,-0.98,0.36,1.16
2022-11-15 21:15:06.0050,0.31,-0.34,0.37,0.59
2022-11-15 21:15:06.0060,0.64,0.35,0.14,0.74
2022-11-15 21:15:06.0220,0.55,0.73,-0.38,0.98
2022-11-15 21:15:06.0220,-0.45,0.7,-0.81,1.16
2022-11-15 21:15:06.0370,-1.23,0.51,-0.84,1.57
2022-11-15 21:15:06.0380,-1.3,0.38,-0.17,1.36
2022-11-15 21:15:06.0530,-0.97,0.33,0.85,1.33
2022-11-15 21:15:06.0540,-0.79,0.3,1.62,1.82
2022-11-15 21:15:06.1190,-0.95,0.34,1.47,1.78
2022-11-15 21:15:06.1190,-0.98,0.13,0.67,1.19
2022-11-15 21:15:06.1390,-0.69,-0.17,0.17,0.73
2022-11-15 21:15:06.1390,-0.28,-0.27,-0.36,0.53
2022-11-15 21:15:06.1550,0.14,-0.31,-0.82,0.88
2022-11-15 21:15:06.1560,0.5,-0.33,-0.82,1.01
2022-11-15 21:15:06.1700,0.8,-0.31,-0.71,1.11
2022-11-15 21:15:06.1710,1.03,-0.3,-0.59,1.22
2022-11-15 21:15:06.1870,1.06,-0.43,-0.39,1.2
2022-11-15 21:15:06.1880,0.93,-0.57,0.06,1.09
2022-11-15 21:15:06.2520,0.92,-0.64,0.31,1.16
2022-11-15 21:15:06.2530,0.95,-0.57,0.3,1.14
2022-11-15 21:15:06.2730,0.91,-0.4,0.11,1.0
2022-11-15 21:15:06.2730,0.74,-0.25,-0.09,0.78
2022-11-15 21:15:06.3210,0.45,-0.13,-0.28,0.54
2022-11-15 21:15:06.3220,0.17,-0.02,-0.38,0.41
2022-11-15 21:15:06.3370,-0.01,0.11,-0.36,0.37
2022-11-15 21:15:06.3380,-0.12,0.23,-0.36,0.44
2022-11-15 21:15:06.3540,-0.2,0.3,-0.29,0.46
2022-11-15 21:15:06.3550,-0.19,0.4,-0.1,0.45
2022-11-15 21:15:06.4250,-0.14,0.46,0.03,0.48
2022-11-15 21:15:06.4260,-0.03,0.32,-0.29,0.43
2022-11-15 21:15:06.4380,0.1,0.04,-0.51,0.52
2022-11-15 21:15:06.4390,0.19,-0.22,-0.38,0.47
2022-11-15 21:15:06.4550,0.2,-0.38,-0.16,0.45
2022-11-15 21:15:06.4560,0.14,-0.38,0.18,0.44
2022-11-15 21:15:06.4700,0.08,-0.24,0.32,0.4
2022-11-15 21:15:06.4710,0.04,-0.1,0.59,0.59
2022-11-15 21:15:06.4870,-0.11,0.01,0.55,0.56
2022-11-15 21:15:06.4880,-0.2,0.04,0.4,0.44
2022-11-15 21:15:06.5520,-0.17,0.0,0.39,0.42
2022-11-15 21:15:06.5520,-0.13,-0.07,0.31,0.34
2022-11-15 21:15:06.5720,-0.06,0.0,0.15,0.16
2022-11-15 21:15:06.5730,-0.08,0.12,0.05,0.15
2022-11-15 21:15:06.5880,-0.15,0.17,0.05,0.23
2022-11-15 21:15:06.5890,-0.25,0.12,0.0,0.27
2022-11-15 21:15:06.6030,-0.31,0.03,-0.12,0.33
2022-11-15 21:15:06.6040,-0.26,-0.05,-0.17,0.31
2022-11-15 21:15:06.6200,-0.14,-0.04,-0.14,0.2
2022-11-15 21:15:06.6210,-0.01,0.01,-0.03,0.03
2022-11-15 21:15:06.6850,0.04,0.08,0.05,0.1
2022-11-15 21:15:06.6860,0.05,0.12,0.18,0.22
2022-11-15 21:15:06.7060,0.16,0.15,0.26,0.34
2022-11-15 21:15:06.7060,0.32,0.02,0.15,0.35
2022-11-15 21:15:06.7210,0.36,-0.24,0.05,0.43
2022-11-15 21:15:06.7220,0.32,-0.46,-0.01,0.56
2022-11-15 21:15:06.7370,0.23,-0.55,-0.02,0.59
2022-11-15 21:15:06.7380,0.15,-0.53,0.01,0.55
2022-11-15 21:15:06.7540,0.18,-0.34,0.04,0.38
2022-11-15 21:15:06.7550,0.21,-0.15,-0.13,0.28
2022-11-15 21:15:06.8190,0.21,-0.08,-0.33,0.39
2022-11-15 21:15:06.8190,0.19,-0.05,-0.42,0.46
2022-11-15 21:15:06.8390,0.22,-0.07,-0.47,0.52
2022-11-15 21:15:06.8400,0.26,-0.13,-0.46,0.54
2022-11-15 21:15:06.8550,0.21,-0.22,-0.44,0.53
2022-11-15 21:15:06.8560,0.16,-0.26,-0.31,0.43
2022-11-15 21:15:06.8700,0.12,-0.21,-0.04,0.24
2022-11-15 21:15:06.8710,-0.02,-0.17,0.11,0.2
2022-11-15 21:15:06.8870,-0.12,-0.13,0.18,0.25
2022-11-15 21:15:06.8880,-0.08,-0.05,0.16,0.18
2022-11-15 21:15:06.9510,-0.12,-0.01,0.11,0.16
2022-11-15 21:15:06.9520,-0.26,0.06,0.16,0.31
2022-11-15 21:15:06.9730,-0.38,0.1,0.03,0.39
2022-11-15 21:15:06.9740,-0.35,0.02,-0.17,0.38
2022-11-15 21:15:06.9880,-0.16,-0.06,-0.18,0.24
2022-11-15 21:15:06.9890,0.13,0.02,-0.21,0.24
2022-11-15 21:15:07.0030,0.32,0.0,-0.25,0.4
2022-11-15 21:15:07.0040,0.29,-0.06,-0.25,0.38
2022-11-15 21:15:07.0200,0.11,-0.03,-0.09,0.14
2022-11-15 21:15:07.0210,-0.11,0.16,0.29,0.34
2022-11-15 21:15:07.0830,-0.28,0.35,0.48,0.65
2022-11-15 21:15:07.0840,-0.31,0.38,0.39,0.62
2022-11-15 21:15:07.0860,-0.14,0.28,0.05,0.31
2022-11-15 21:15:07.1040,0.0,0.07,-0.18,0.19
2022-11-15 21:15:07.1050,0.05,-0.16,-0.21,0.26
2022-11-15 21:15:07.1200,0.08,-0.25,-0.05,0.26
2022-11-15 21:15:07.1210,0.07,-0.33,0.0,0.33
2022-11-15 21:15:07.1370,0.14,-0.44,-0.04,0.46
2022-11-15 21:15:07.1370,0.2,-0.49,-0.06,0.53
2022-11-15 21:15:07.1530,0.26,-0.48,-0.04,0.54
2022-11-15 21:15:07.2160,0.32,-0.41,-0.14,0.53
2022-11-15 21:15:07.2160,0.42,-0.26,-0.53,0.72
2022-11-15 21:15:07.2210,0.46,-0.16,-0.92,1.04
2022-11-15 21:15:07.2380,0.48,-0.14,-1.21,1.3
2022-11-15 21:15:07.2380,0.5,-0.22,-1.31,1.41
2022-11-15 21:15:07.2540,0.56,-0.38,-1.27,1.43
2022-11-15 21:15:07.2550,0.61,-0.41,-1.1,1.32
2022-11-15 21:15:07.2700,0.59,-0.34,-0.85,1.08
2022-11-15 21:15:07.2710,0.46,-0.25,-0.55,0.75
2022-11-15 21:15:07.2870,0.28,-0.18,-0.27,0.42
2022-11-15 21:15:07.3500,0.19,-0.19,-0.14,0.3
2022-11-15 21:15:07.3510,0.21,-0.28,-0.12,0.37
2022-11-15 21:15:07.3530,0.15,-0.4,-0.21,0.47
2022-11-15 21:15:07.3710,0.09,-0.46,-0.26,0.53
2022-11-15 21:15:07.3720,0.07,-0.41,-0.22,0.47
2022-11-15 21:15:07.3870,0.02,-0.28,-0.17,0.32
2022-11-15 21:15:07.3880,-0.07,-0.15,-0.06,0.17
2022-11-15 21:15:07.4030,-0.16,-0.02,0.07,0.17
2022-11-15 21:15:07.4040,-0.1,0.09,0.2,0.24
2022-11-15 21:15:07.4200,0.03,0.21,0.26,0.33
2022-11-15 21:15:07.4820,0.1,0.23,0.32,0.4
2022-11-15 21:15:07.4830,0.14,0.06,0.32,0.35
2022-11-15 21:15:07.4860,0.18,-0.15,0.09,0.25
2022-11-15 21:15:07.5040,0.19,-0.33,-0.12,0.39
2022-11-15 21:15:07.5050,0.19,-0.43,-0.15,0.49
2022-11-15 21:15:07.5200,0.13,-0.45,-0.09,0.47
2022-11-15 21:15:07.5210,-0.01,-0.41,0.02,0.41
2022-11-15 21:15:07.5370,-0.03,-0.33,0.15,0.36
2022-11-15 21:15:07.5370,0.1,-0.23,0.3,0.39
2022-11-15 21:15:07.5530,0.2,-0.2,0.3,0.41
2022-11-15 21:15:07.6150,0.21,-0.19,0.17,0.33
2022-11-15 21:15:07.6160,0.17,-0.18,0.08,0.26
2022-11-15 21:15:07.6200,0.18,-0.09,0.16,0.25
2022-11-15 21:15:07.6210,0.14,-0.04,0.14,0.2
2022-11-15 21:15:07.6370,0.15,-0.09,-0.08,0.19
2022-11-15 21:15:07.6380,0.19,-0.17,-0.26,0.36
2022-11-15 21:15:07.6530,0.19,-0.18,-0.34,0.42
2022-11-15 21:15:07.6540,0.17,-0.15,-0.37,0.43
2022-11-15 21:15:07.6700,0.11,-0.13,-0.31,0.35
2022-11-15 21:15:07.6710,0.05,-0.11,-0.18,0.21
2022-11-15 21:15:07.7300,0.05,-0.18,0.01,0.18
2022-11-15 21:15:07.7310,0.1,-0.2,0.05,0.22
2022-11-15 21:15:07.7380,0.22,-0.22,0.02,0.31
2022-11-15 21:15:07.7390,0.35,-0.21,0.21,0.45
2022-11-15 21:15:07.7550,0.4,-0.2,0.35,0.56
2022-11-15 21:15:07.7550,0.25,-0.15,0.27,0.39
2022-11-15 21:15:07.7700,-0.06,-0.09,0.16,0.19
2022-11-15 21:15:07.7710,-0.34,-0.06,-0.05,0.34
2022-11-15 21:15:07.7870,-0.44,-0.02,-0.16,0.46
2022-11-15 21:15:07.7870,-0.3,0.07,-0.02,0.3
2022-11-15 21:15:07.8470,-0.22,0.15,0.07,0.27
2022-11-15 21:15:07.8480,-0.31,0.2,-0.23,0.43
2022-11-15 21:15:07.8550,-0.24,0.13,-0.39,0.47
2022-11-15 21:15:07.8550,-0.01,-0.06,-0.11,0.12
2022-11-15 21:15:07.8710,0.08,-0.25,0.28,0.38
2022-11-15 21:15:07.8720,0.08,-0.29,0.42,0.51
2022-11-15 21:15:07.8870,0.07,-0.29,0.42,0.51
2022-11-15 21:15:07.8870,0.06,-0.33,-0.05,0.33
2022-11-15 21:15:07.8880,0.19,-0.34,-0.53,0.65
2022-11-15 21:15:07.9040,0.41,-0.27,-0.45,0.66
2022-11-15 21:15:07.9630,0.39,-0.32,-0.4,0.64
2022-11-15 21:15:07.9640,0.3,-0.33,-0.16,0.47
2022-11-15 21:15:07.9710,0.14,-0.36,-0.01,0.38
2022-11-15 21:15:07.9720,-0.07,-0.27,-0.08,0.29
2022-11-15 21:15:07.9880,-0.28,0.07,-0.04,0.29
2022-11-15 21:15:07.9880,-0.48,0.47,0.05,0.67
2022-11-15 21:15:08.0040,-0.37,0.57,0.08,0.68
2022-11-15 21:15:08.0040,-0.09,0.38,-0.06,0.39
2022-11-15 21:15:08.0200,0.1,0.1,-0.23,0.27
2022-11-15 21:15:08.0210,0.07,-0.14,-0.24,0.28
2022-11-15 21:15:08.0810,0.27,-0.32,-0.44,0.6
2022-11-15 21:15:08.0810,0.47,-0.46,-0.82,1.05
2022-11-15 21:15:08.0890,0.46,-0.55,-0.97,1.2
2022-11-15 21:15:08.0900,0.36,-0.5,-0.86,1.05
2022-11-15 21:15:08.1040,0.2,-0.3,-0.61,0.7
2022-11-15 21:15:08.1050,0.03,-0.04,-0.38,0.38
2022-11-15 21:15:08.1200,-0.15,0.16,-0.2,0.29
2022-11-15 21:15:08.1210,-0.25,0.24,0.03,0.34
2022-11-15 21:15:08.1370,-0.26,0.24,0.12,0.37
2022-11-15 21:15:08.1370,-0.19,0.14,0.01,0.23
2022-11-15 21:15:08.1960,-0.1,-0.01,-0.17,0.19
2022-11-15 21:15:08.1970,0.0,-0.16,-0.29,0.33
2022-11-15 21:15:08.2030,0.1,-0.28,-0.3,0.42
2022-11-15 21:15:08.2030,0.21,-0.37,-0.2,0.47
2022-11-15 21:15:08.2210,0.24,-0.41,-0.16,0.5
2022-11-15 21:15:08.2220,0.17,-0.44,-0.21,0.51
2022-11-15 21:15:08.2370,0.12,-0.38,-0.18,0.43
2022-11-15 21:15:08.2370,0.03,-0.23,-0.1,0.25
2022-11-15 21:15:08.2530,-0.07,-0.03,-0.06,0.09
2022-11-15 21:15:08.2540,-0.17,0.1,-0.1,0.22
2022-11-15 21:15:08.3130,-0.24,0.16,-0.07,0.29
2022-11-15 21:15:08.3130,-0.22,0.2,0.04,0.3
2022-11-15 21:15:08.3220,-0.17,0.17,0.07,0.25
2022-11-15 21:15:08.3220,-0.12,0.03,0.03,0.12
2022-11-15 21:15:08.3380,-0.03,-0.1,0.02,0.1
2022-11-15 21:15:08.3380,0.12,-0.16,0.0,0.2
2022-11-15 21:15:08.3530,0.27,-0.21,-0.08,0.35
2022-11-15 21:15:08.3540,0.46,-0.26,-0.13,0.54
2022-11-15 21:15:08.3700,0.6,-0.31,-0.09,0.68
2022-11-15 21:15:08.3710,0.55,-0.36,-0.05,0.65
2022-11-15 21:15:08.4300,0.43,-0.34,-0.06,0.55
2022-11-15 21:15:08.4300,0.35,-0.28,-0.06,0.45
2022-11-15 21:15:08.4380,0.27,-0.27,-0.06,0.38
2022-11-15 21:15:08.4390,0.18,-0.28,-0.03,0.33
2022-11-15 21:15:08.4540,0.18,-0.21,0.02,0.27
2022-11-15 21:15:08.4550,0.11,-0.17,0.04,0.2
2022-11-15 21:15:08.4700,0.0,-0.13,-0.01,0.13
2022-11-15 21:15:08.4710,-0.02,-0.08,-0.1,0.12
2022-11-15 21:15:08.4870,0.02,0.02,-0.19,0.19
2022-11-15 21:15:08.4870,0.03,0.11,-0.15,0.18
2022-11-15 21:15:08.5460,0.04,0.15,-0.19,0.24
2022-11-15 21:15:08.5460,0.04,0.16,-0.34,0.37
2022-11-15 21:15:08.5550,0.03,0.1,-0.29,0.3
2022-11-15 21:15:08.5560,-0.04,0.0,-0.13,0.13
2022-11-15 21:15:08.5710,-0.1,-0.03,-0.03,0.1
2022-11-15 21:15:08.5720,-0.07,-0.04,-0.06,0.1
2022-11-15 21:15:08.5870,0.11,-0.04,-0.17,0.2
2022-11-15 21:15:08.5870,0.2,-0.1,-0.28,0.35
2022-11-15 21:15:08.6030,0.09,-0.12,-0.33,0.36
2022-11-15 21:15:08.6040,-0.03,-0.01,-0.29,0.29
2022-11-15 21:15:08.6610,-0.18,0.09,-0.08,0.21
2022-11-15 21:15:08.6620,-0.27,0.12,0.01,0.29
2022-11-15 21:15:08.6710,-0.29,0.11,0.08,0.32
2022-11-15 21:15:08.6720,-0.28,0.11,0.12,0.32
2022-11-15 21:15:08.6880,-0.16,0.12,0.11,0.22
2022-11-15 21:15:08.6880,-0.08,0.06,0.15,0.18
2022-11-15 21:15:08.7030,-0.09,-0.03,0.18,0.2
2022-11-15 21:15:08.7040,-0.02,-0.11,0.17,0.2
2022-11-15 21:15:08.7200,0.14,-0.13,0.1,0.21
2022-11-15 21:15:08.7210,0.16,-0.11,-0.04,0.19
2022-11-15 21:15:08.7780,0.16,-0.01,-0.12,0.2
2022-11-15 21:15:08.7780,0.1,0.09,-0.21,0.24
2022-11-15 21:15:08.7880,0.03,0.15,-0.23,0.27
2022-11-15 21:15:08.7890,0.02,0.17,-0.24,0.29
2022-11-15 21:15:08.8040,0.04,0.12,-0.15,0.19
2022-11-15 21:15:08.8050,0.05,0.04,-0.06,0.08
2022-11-15 21:15:08.8200,0.06,-0.04,-0.04,0.08
2022-11-15 21:15:08.8210,0.07,-0.09,-0.01,0.11
2022-11-15 21:15:08.8370,0.05,-0.17,0.01,0.17
2022-11-15 21:15:08.8370,-0.03,-0.24,0.03,0.24
2022-11-15 21:15:08.8940,-0.03,-0.23,0.02,0.23
2022-11-15 21:15:08.8950,0.08,-0.2,-0.06,0.22
2022-11-15 21:15:08.9050,0.18,-0.21,-0.1,0.29
2022-11-15 21:15:08.9050,0.24,-0.24,-0.14,0.36
2022-11-15 21:15:08.9210,0.29,-0.2,-0.12,0.37
2022-11-15 21:15:08.9220,0.33,-0.15,-0.06,0.36
2022-11-15 21:15:08.9370,0.34,-0.16,-0.03,0.37
2022-11-15 21:15:08.9380,0.26,-0.19,0.0,0.32
2022-11-15 21:15:08.9530,0.17,-0.19,-0.02,0.25
2022-11-15 21:15:08.9540,0.12,-0.16,-0.09,0.21
2022-11-15 21:15:09.0100,0.06,-0.12,-0.13,0.18
2022-11-15 21:15:09.0110,-0.04,-0.07,-0.17,0.18
2022-11-15 21:15:09.0220,-0.02,0.07,-0.2,0.21
2022-11-15 21:15:09.0230,0.04,0.17,-0.09,0.19
2022-11-15 21:15:09.0370,0.04,0.2,0.16,0.25
2022-11-15 21:15:09.0380,0.01,0.17,0.3,0.34
2022-11-15 21:15:09.0530,-0.07,0.08,0.35,0.36
2022-11-15 21:15:09.0540,-0.17,-0.01,0.26,0.31
2022-11-15 21:15:09.0700,-0.28,-0.07,0.06,0.29
2022-11-15 21:15:09.0710,-0.47,-0.14,-0.09,0.49
2022-11-15 21:15:09.1260,-0.55,-0.2,-0.13,0.59
2022-11-15 21:15:09.1270,-0.45,-0.19,-0.21,0.53
2022-11-15 21:15:09.1380,-0.28,-0.15,-0.27,0.41
2022-11-15 21:15:09.1390,-0.13,-0.12,-0.27,0.32
2022-11-15 21:15:09.1540,-0.07,-0.17,-0.26,0.31
2022-11-15 21:15:09.1550,0.02,-0.21,-0.29,0.35
2022-11-15 21:15:09.1700,0.11,-0.2,-0.25,0.33
2022-11-15 21:15:09.1710,0.17,-0.17,-0.19,0.3
2022-11-15 21:15:09.1870,0.15,-0.21,-0.13,0.28
2022-11-15 21:15:09.1880,0.19,-0.22,-0.12,0.31
2022-11-15 21:15:09.2430,0.24,-0.27,-0.19,0.4
2022-11-15 21:15:09.2440,0.22,-0.33,-0.27,0.47
2022-11-15 21:15:09.2550,0.25,-0.31,-0.19,0.44
2022-11-15 21:15:09.2560,0.27,-0.21,-0.09,0.35
2022-11-15 21:15:09.2710,0.36,-0.14,-0.08,0.39
2022-11-15 21:15:09.2720,0.35,-0.1,-0.01,0.36
2022-11-15 21:15:09.2870,0.23,-0.13,-0.05,0.26
2022-11-15 21:15:09.2880,0.07,-0.12,-0.04,0.14
2022-11-15 21:15:09.3030,-0.05,-0.06,0.01,0.07
2022-11-15 21:15:09.3040,-0.06,0.07,0.04,0.1
2022-11-15 21:15:09.3590,0.07,0.21,0.0,0.22
2022-11-15 21:15:09.3600,0.13,0.27,-0.11,0.31
2022-11-15 21:15:09.3720,0.1,0.21,-0.13,0.26
2022-11-15 21:15:09.3720,0.01,0.13,-0.01,0.13
2022-11-15 21:15:09.3880,-0.1,0.09,0.1,0.16
2022-11-15 21:15:09.3880,-0.13,0.12,0.28,0.33
2022-11-15 21:15:09.4030,-0.07,0.12,0.32,0.34
2022-11-15 21:15:09.4040,-0.03,0.08,0.18,0.19
2022-11-15 21:15:09.4200,-0.01,0.04,0.07,0.08
2022-11-15 21:15:09.4210,-0.03,0.01,0.04,0.05
2022-11-15 21:15:09.4750,-0.15,-0.04,-0.01,0.15
2022-11-15 21:15:09.4760,-0.17,-0.04,-0.06,0.18
2022-11-15 21:15:09.4880,0.01,0.03,-0.11,0.11
2022-11-15 21:15:09.4890,0.15,0.07,-0.04,0.17
2022-11-15 21:15:09.5040,0.2,0.04,0.01,0.2
2022-11-15 21:15:09.5050,0.25,-0.07,-0.03,0.26
2022-11-15 21:15:09.5210,0.31,-0.16,-0.06,0.35
2022-11-15 21:15:09.5210,0.4,-0.2,-0.06,0.45
2022-11-15 21:15:09.5360,0.51,-0.21,-0.12,0.56
2022-11-15 21:15:09.5370,0.66,-0.25,-0.26,0.75
2022-11-15 21:15:09.5920,0.71,-0.3,-0.39,0.86
2022-11-15 21:15:09.5920,0.74,-0.32,-0.43,0.91
2022-11-15 21:15:09.6050,0.65,-0.3,-0.31,0.78
2022-11-15 21:15:09.6060,0.5,-0.21,-0.08,0.54
2022-11-15 21:15:09.6210,0.38,-0.15,0.01,0.4
2022-11-15 21:15:09.6220,0.3,-0.14,-0.1,0.34
2022-11-15 21:15:09.6360,0.25,-0.15,-0.3,0.41
2022-11-15 21:15:09.6370,0.15,-0.21,-0.34,0.42
2022-11-15 21:15:09.6530,0.07,-0.21,-0.29,0.36
2022-11-15 21:15:09.6540,0.04,-0.17,-0.32,0.36
2022-11-15 21:15:09.7080,-0.01,-0.18,-0.37,0.41
2022-11-15 21:15:09.7090,-0.07,-0.23,-0.34,0.41
2022-11-15 21:15:09.7220,-0.05,-0.21,-0.18,0.28
2022-11-15 21:15:09.7220,0.02,-0.14,0.01,0.14
2022-11-15 21:15:09.7370,0.03,-0.12,0.09,0.15
2022-11-15 21:15:09.7380,0.03,-0.12,0.12,0.17
2022-11-15 21:15:09.7530,0.04,-0.11,0.12,0.16
2022-11-15 21:15:09.7540,0.05,-0.06,0.05,0.09
2022-11-15 21:15:09.7700,0.05,-0.02,0.01,0.05
2022-11-15 21:15:09.7700,0.06,0.01,0.04,0.07
2022-11-15 21:15:09.8250,0.02,-0.03,-0.03,0.04
2022-11-15 21:15:09.8250,0.01,-0.12,-0.11,0.16
2022-11-15 21:15:09.8380,0.04,-0.16,-0.03,0.16
2022-11-15 21:15:09.8390,0.07,-0.15,0.14,0.21
2022-11-15 21:15:09.8540,0.13,-0.11,0.12,0.2
2022-11-15 21:15:09.8550,0.13,-0.13,-0.06,0.19
2022-11-15 21:15:09.8700,0.14,-0.19,-0.15,0.27
2022-11-15 21:15:09.8710,0.21,-0.19,-0.08,0.29
2022-11-15 21:15:09.8860,0.24,-0.19,0.04,0.3
2022-11-15 21:15:09.8870,0.16,-0.19,0.1,0.26
2022-11-15 21:15:09.9410,0.02,-0.18,0.06,0.19
2022-11-15 21:15:09.9420,-0.03,-0.12,0.0,0.12
2022-11-15 21:15:09.9550,-0.05,-0.07,-0.07,0.11
2022-11-15 21:15:09.9560,-0.05,-0.03,-0.16,0.17
2022-11-15 21:15:09.9710,-0.06,0.0,-0.16,0.17
2022-11-15 21:15:09.9710,-0.1,0.02,-0.12,0.15
2022-11-15 21:15:09.9860,-0.09,0.02,-0.15,0.17
2022-11-15 21:15:09.9870,-0.03,0.03,-0.25,0.25
2022-11-15 21:15:10.0030,0.04,0.05,-0.28,0.28
2022-11-15 21:15:10.0040,0.06,0.06,-0.18,0.19
2022-11-15 21:15:10.0570,-0.03,0.03,-0.06,0.07
2022-11-15 21:15:10.0580,-0.13,-0.01,0.0,0.13
2022-11-15 21:15:10.0720,-0.09,0.01,0.02,0.09
2022-11-15 21:15:10.0720,-0.05,0.02,0.06,0.08
2022-11-15 21:15:10.0870,-0.02,0.03,0.06,0.06
2022-11-15 21:15:10.0880,0.07,0.04,0.01,0.08
2022-11-15 21:15:10.1030,0.15,0.04,-0.04,0.16
2022-11-15 21:15:10.1040,0.19,0.03,-0.05,0.19
2022-11-15 21:15:10.1200,0.21,0.05,-0.02,0.21
2022-11-15 21:15:10.1210,0.27,0.07,0.0,0.27
2022-11-15 21:15:10.1740,0.31,0.07,0.01,0.31
2022-11-15 21:15:10.1740,0.28,0.03,0.05,0.28
2022-11-15 21:15:10.1880,0.22,0.0,0.07,0.23
2022-11-15 21:15:10.1890,0.17,0.0,0.07,0.18
2022-11-15 21:15:10.2040,0.14,0.0,0.09,0.16
2022-11-15 21:15:10.2040,0.11,-0.01,0.06,0.12
2022-11-15 21:15:10.2200,0.08,-0.02,0.0,0.08
2022-11-15 21:15:10.2210,0.08,-0.02,0.0,0.08
2022-11-15 21:15:10.2210,0.04,-0.04,-0.02,0.06
2022-11-15 21:15:10.2360,-0.02,-0.08,-0.03,0.08
2022-11-15 21:15:10.2910,-0.04,-0.06,-0.03,0.07
2022-11-15 21:15:10.2910,-0.02,-0.04,-0.08,0.09
2022-11-15 21:15:10.3050,-0.01,-0.05,-0.13,0.13
2022-11-15 21:15:10.3050,-0.03,-0.09,-0.13,0.16
2022-11-15 21:15:10.3210,-0.08,-0.11,-0.13,0.18
2022-11-15 21:15:10.3220,-0.07,-0.1,-0.12,0.17
2022-11-15 21:15:10.3360,-0.07,-0.07,-0.07,0.12
2022-11-15 21:15:10.3370,-0.1,-0.03,-0.01,0.1
2022-11-15 21:15:10.3530,-0.13,0.02,0.01,0.13
2022-11-15 21:15:10.3540,-0.13,0.06,0.0,0.14
2022-11-15 21:15:10.4060,-0.14,0.1,-0.04,0.17
2022-11-15 21:15:10.4070,-0.14,0.14,-0.06,0.2
2022-11-15 21:15:10.4210,-0.16,0.14,-0.05,0.21
2022-11-15 21:15:10.4220,-0.17,0.12,-0.06,0.21
2022-11-15 21:15:10.4370,-0.09,0.12,0.01,0.15
2022-11-15 21:15:10.4380,-0.03,0.09,0.1,0.13
2022-11-15 21:15:10.4530,-0.05,0.07,0.12,0.14
2022-11-15 21:15:10.4540,-0.09,0.1,0.16,0.2
2022-11-15 21:15:10.4700,-0.08,0.12,0.21,0.25
2022-11-15 21:15:10.4710,-0.06,0.11,0.19,0.22
2022-11-15 21:15:10.5230,-0.02,0.06,0.12,0.13
2022-11-15 21:15:10.5240,0.02,-0.01,0.09,0.09
2022-11-15 21:15:10.5380,0.08,-0.06,0.11,0.14
2022-11-15 21:15:10.5390,0.14,-0.08,0.1,0.18
2022-11-15 21:15:10.5540,0.15,-0.1,0.05,0.18
2022-11-15 21:15:10.5550,0.12,-0.14,0.0,0.18
2022-11-15 21:15:10.5700,0.11,-0.15,-0.04,0.19
2022-11-15 21:15:10.5710,0.07,-0.14,-0.05,0.16
2022-11-15 21:15:10.5870,-0.01,-0.15,-0.09,0.17
2022-11-15 21:15:10.5870,-0.1,-0.17,-0.15,0.24
2022-11-15 21:15:10.6400,-0.11,-0.13,-0.19,0.25
2022-11-15 21:15:10.6410,-0.1,-0.09,-0.23,0.26
2022-11-15 21:15:10.6550,-0.05,-0.03,-0.26,0.26
2022-11-15 21:15:10.6560,0.04,0.0,-0.31,0.31
2022-11-15 21:15:10.6710,0.1,-0.02,-0.31,0.32
2022-11-15 21:15:10.6710,0.14,-0.05,-0.26,0.29
2022-11-15 21:15:10.6870,0.17,-0.08,-0.2,0.27
2022-11-15 21:15:10.6870,0.18,-0.09,-0.14,0.24
2022-11-15 21:15:10.7030,0.12,-0.1,-0.07,0.17
2022-11-15 21:15:10.7040,0.02,-0.1,-0.06,0.11
2022-11-15 21:15:10.7560,0.02,-0.07,-0.02,0.07
2022-11-15 21:15:10.7570,0.05,-0.01,0.03,0.05
2022-11-15 21:15:10.7710,-0.03,0.01,0.1,0.1
2022-11-15 21:15:10.7720,-0.08,0.01,0.1,0.12
2022-11-15 21:15:10.7870,-0.05,0.05,0.06,0.09
2022-11-15 21:15:10.7880,-0.01,0.11,0.08,0.13
2022-11-15 21:15:10.8030,-0.02,0.08,0.09,0.12
2022-11-15 21:15:10.8040,0.03,0.01,0.07,0.07
2022-11-15 21:15:10.8200,0.13,-0.07,0.0,0.14
2022-11-15 21:15:10.8210,0.19,-0.12,-0.03,0.22
2022-11-15 21:15:10.8720,0.15,-0.13,-0.02,0.19
2022-11-15 21:15:10.8730,0.09,-0.11,0.05,0.15
2022-11-15 21:15:10.8890,0.06,-0.06,0.11,0.13
2022-11-15 21:15:10.8890,0.05,0.02,0.04,0.06
2022-11-15 21:15:10.9040,0.06,0.07,-0.04,0.1
2022-11-15 21:15:10.9050,0.06,0.07,-0.08,0.12
2022-11-15 21:15:10.9200,0.03,0.02,-0.23,0.23
2022-11-15 21:15:10.9210,0.03,0.0,-0.3,0.3
2022-11-15 21:15:10.9360,0.07,-0.02,-0.25,0.26
2022-11-15 21:15:10.9370,0.1,-0.04,-0.24,0.26
2022-11-15 21:15:10.9880,0.11,-0.07,-0.35,0.37
2022-11-15 21:15:10.9890,0.07,-0.07,-0.4,0.41
2022-11-15 21:15:11.0050,0.1,-0.03,-0.34,0.35
2022-11-15 21:15:11.0060,0.14,-0.07,-0.18,0.23
2022-11-15 21:15:11.0210,0.22,-0.17,0.11,0.29
2022-11-15 21:15:11.0210,0.39,-0.25,0.32,0.56
2022-11-15 21:15:11.0370,0.49,-0.22,0.32,0.62
2022-11-15 21:15:11.0370,0.37,-0.14,0.01,0.39
2022-11-15 21:15:11.0530,0.12,-0.06,-0.24,0.27
2022-11-15 21:15:11.0540,-0.11,0.02,-0.2,0.22
2022-11-15 21:15:11.1060,-0.22,0.03,-0.01,0.22
2022-11-15 21:15:11.1060,-0.15,0.01,0.17,0.22
2022-11-15 21:15:11.1210,0.0,0.02,0.18,0.18
2022-11-15 21:15:11.1220,0.08,-0.01,0.17,0.18
2022-11-15 21:15:11.1370,0.14,-0.03,0.09,0.16
2022-11-15 21:15:11.1380,0.12,-0.08,-0.03,0.14
2022-11-15 21:15:11.1530,0.09,-0.13,-0.04,0.16
2022-11-15 21:15:11.1540,0.07,-0.11,0.02,0.13
2022-11-15 21:15:11.1700,0.02,-0.06,0.06,0.08
2022-11-15 21:15:11.1710,-0.05,0.01,0.13,0.13
2022-11-15 21:15:11.2210,-0.07,0.06,0.16,0.18
2022-11-15 21:15:11.2220,-0.03,0.09,0.22,0.23
2022-11-15 21:15:11.2390,0.05,0.11,0.27,0.29
2022-11-15 21:15:11.2390,0.08,0.12,0.17,0.22
2022-11-15 21:15:11.2540,0.04,0.05,0.05,0.08
2022-11-15 21:15:11.2550,0.0,-0.05,-0.02,0.05
2022-11-15 21:15:11.2700,0.03,-0.13,-0.02,0.13
2022-11-15 21:15:11.2710,0.09,-0.17,-0.04,0.19
2022-11-15 21:15:11.2870,0.15,-0.12,-0.01,0.19
2022-11-15 21:15:11.2870,0.17,-0.02,0.04,0.17
2022-11-15 21:15:11.3390,0.15,0.02,0.01,0.15
2022-11-15 21:15:11.3400,0.06,0.03,0.19,0.2
2022-11-15 21:15:11.3550,0.02,0.03,0.44,0.44
2022-11-15 21:15:11.3560,-0.04,0.02,0.54,0.54
2022-11-15 21:15:11.3710,-0.08,-0.01,0.52,0.52
2022-11-15 21:15:11.3710,-0.06,0.0,0.35,0.35
2022-11-15 21:15:11.3870,-0.06,0.0,0.19,0.19
2022-11-15 21:15:11.3870,-0.04,0.06,0.04,0.08
2022-11-15 21:15:11.4030,-0.13,0.1,-0.09,0.18
2022-11-15 21:15:11.4040,-0.2,0.13,-0.11,0.26
2022-11-15 21:15:11.4540,-0.02,0.29,-0.13,0.31
2022-11-15 21:15:11.4550,0.12,0.35,-0.26,0.45
2022-11-15 21:15:11.4720,0.1,0.27,-0.29,0.4
2022-11-15 21:15:11.4720,0.02,0.16,-0.19,0.24
2022-11-15 21:15:11.4880,0.02,0.11,-0.03,0.11
2022-11-15 21:15:11.4880,0.02,0.04,0.08,0.09
2022-11-15 21:15:11.5030,0.0,-0.09,0.07,0.11
2022-11-15 21:15:11.5040,0.0,-0.22,0.02,0.22
2022-11-15 21:15:11.5200,0.04,-0.33,-0.09,0.34
2022-11-15 21:15:11.5210,0.12,-0.39,-0.3,0.5
2022-11-15 21:15:11.5720,0.19,-0.41,-0.49,0.66
2022-11-15 21:15:11.5720,0.19,-0.41,-0.53,0.69
2022-11-15 21:15:11.5890,0.09,-0.33,-0.38,0.51
2022-11-15 21:15:11.5890,0.01,-0.22,-0.17,0.27
2022-11-15 21:15:11.6040,-0.08,-0.16,-0.18,0.25
2022-11-15 21:15:11.6050,-0.14,-0.1,-0.29,0.33
2022-11-15 21:15:11.6200,-0.1,-0.08,-0.41,0.42
2022-11-15 21:15:11.6210,0.0,-0.09,-0.44,0.44
2022-11-15 21:15:11.6360,0.07,-0.1,-0.39,0.4
2022-11-15 21:15:11.6370,0.17,-0.13,-0.33,0.39
2022-11-15 21:15:11.6880,0.15,-0.2,-0.3,0.39
2022-11-15 21:15:11.6880,0.08,-0.23,-0.17,0.29
2022-11-15 21:15:11.7050,0.08,-0.18,-0.07,0.2
2022-11-15 21:15:11.7050,0.05,-0.03,-0.08,0.09
2022-11-15 21:15:11.7210,0.03,0.08,-0.07,0.11
2022-11-15 21:15:11.7210,0.05,0.06,-0.1,0.12
2022-11-15 21:15:11.7370,0.0,-0.02,-0.2,0.2
2022-11-15 21:15:11.7370,0.02,-0.07,-0.03,0.07
2022-11-15 21:15:11.7530,0.13,-0.14,0.12,0.22
2022-11-15 21:15:11.7540,0.14,-0.19,-0.08,0.24
2022-11-15 21:15:11.8040,0.08,-0.19,-0.12,0.23
2022-11-15 21:15:11.8050,0.0,-0.13,-0.09,0.15
2022-11-15 21:15:11.8220,0.04,-0.01,-0.08,0.09
2022-11-15 21:15:11.8220,0.08,0.08,-0.15,0.18
2022-11-15 21:15:11.8380,0.05,0.12,-0.2,0.23
2022-11-15 21:15:11.8380,-0.03,0.1,-0.1,0.14
2022-11-15 21:15:11.8530,-0.1,0.04,-0.12,0.16
2022-11-15 21:15:11.8540,-0.01,0.01,-0.13,0.13
2022-11-15 21:15:11.8700,0.09,-0.01,-0.11,0.14
2022-11-15 21:15:11.8710,0.1,-0.04,-0.03,0.11
2022-11-15 21:15:11.9200,0.16,-0.06,0.14,0.22
2022-11-15 21:15:11.9210,0.22,-0.05,0.34,0.4
2022-11-15 21:15:11.9380,0.28,-0.05,0.27,0.39
2022-11-15 21:15:11.9390,0.27,-0.06,0.04,0.27
2022-11-15 21:15:11.9540,0.2,-0.12,-0.13,0.26
2022-11-15 21:15:11.9550,0.15,-0.14,-0.11,0.23
2022-11-15 21:15:11.9700,0.15,-0.13,-0.01,0.19
2022-11-15 21:15:11.9700,0.11,-0.16,0.03,0.19
2022-11-15 21:15:11.9860,0.05,-0.18,0.03,0.18
2022-11-15 21:15:11.9870,0.07,-0.11,0.01,0.13
2022-11-15 21:15:12.0360,0.17,-0.03,0.02,0.17
2022-11-15 21:15:12.0370,0.2,0.0,-0.02,0.2
2022-11-15 21:15:12.0550,0.15,0.0,-0.08,0.17
2022-11-15 21:15:12.0560,0.12,-0.06,-0.09,0.16
2022-11-15 21:15:12.0700,0.06,-0.17,-0.13,0.22
2022-11-15 21:15:12.0710,0.08,-0.19,-0.01,0.2
2022-11-15 21:15:12.0860,0.16,-0.19,0.23,0.33
2022-11-15 21:15:12.0870,0.13,-0.2,0.26,0.35
2022-11-15 21:15:12.1030,0.15,-0.16,0.33,0.39
2022-11-15 21:15:12.1040,0.19,-0.1,-0.05,0.22
2022-11-15 21:15:12.1540,0.15,0.0,-0.69,0.7
2022-11-15 21:15:12.1550,0.16,0.14,-0.97,0.99
2022-11-15 21:15:12.1720,0.11,0.13,-0.5,0.52
2022-11-15 21:15:12.1730,0.02,0.04,-0.09,0.1
2022-11-15 21:15:12.1880,-0.04,0.02,-0.09,0.1
2022-11-15 21:15:12.1880,-0.04,0.02,0.09,0.1
2022-11-15 21:15:12.1880,0.0,0.02,0.31,0.31
2022-11-15 21:15:12.2030,0.23,0.1,0.67,0.71
2022-11-15 21:15:12.2040,0.48,0.2,0.78,0.93
2022-11-15 21:15:12.2200,0.5,0.24,0.32,0.64
2022-11-15 21:15:12.2700,0.08,0.17,-0.54,0.57
2022-11-15 21:15:12.2710,-0.28,0.21,-1.1,1.15
2022-11-15 21:15:12.2890,-0.34,0.35,-1.04,1.14
2022-11-15 21:15:12.2890,-0.41,0.47,-0.57,0.84
2022-11-15 21:15:12.3040,-0.52,0.57,0.12,0.78
2022-11-15 21:15:12.3050,-0.6,0.65,0.7,1.12
2022-11-15 21:15:12.3200,-0.7,0.55,1.0,1.33
2022-11-15 21:15:12.3210,-0.77,0.4,1.07,1.37
2022-11-15 21:15:12.3360,-0.68,0.28,0.94,1.19
2022-11-15 21:15:12.3370,-0.5,0.16,0.51,0.73
2022-11-15 21:15:12.3860,-0.39,0.05,0.16,0.42
2022-11-15 21:15:12.3870,-0.31,0.04,-0.06,0.31
2022-11-15 21:15:12.4050,-0.19,0.11,-0.1,0.24
2022-11-15 21:15:12.4060,-0.06,0.21,-0.03,0.22
2022-11-15 21:15:12.4210,-0.02,0.26,0.03,0.26
2022-11-15 21:15:12.4220,0.0,0.24,0.01,0.24
2022-11-15 21:15:12.4360,0.06,0.14,-0.06,0.16
2022-11-15 21:15:12.4370,0.13,0.0,-0.1,0.16
2022-11-15 21:15:12.4530,0.14,-0.12,-0.1,0.2
2022-11-15 21:15:12.4540,0.13,-0.22,-0.11,0.27
2022-11-15 21:15:12.5030,0.09,-0.31,-0.09,0.33
2022-11-15 21:15:12.5040,0.07,-0.37,0.08,0.38
2022-11-15 21:15:12.5220,0.09,-0.33,0.07,0.34
2022-11-15 21:15:12.5220,0.12,-0.26,-0.14,0.31
2022-11-15 21:15:12.5370,0.09,-0.17,-0.22,0.29
2022-11-15 21:15:12.5380,0.1,-0.04,-0.21,0.23
2022-11-15 21:15:12.5530,0.07,0.07,-0.22,0.24
2022-11-15 21:15:12.5540,0.16,0.16,-0.3,0.37
2022-11-15 21:15:12.5700,0.05,0.15,-0.4,0.43
2022-11-15 21:15:12.5710,-0.21,0.06,-0.45,0.5
2022-11-15 21:15:12.6200,-0.4,-0.05,-0.46,0.61
2022-11-15 21:15:12.6200,-0.4,-0.17,-0.42,0.6
2022-11-15 21:15:12.6380,-0.39,-0.25,-0.33,0.56
2022-11-15 21:15:12.6390,-0.38,-0.25,-0.15,0.47
2022-11-15 21:15:12.6540,-0.26,-0.23,-0.01,0.34
2022-11-15 21:15:12.6550,-0.07,-0.21,0.01,0.22
2022-11-15 21:15:12.6700,0.07,-0.22,0.07,0.24
2022-11-15 21:15:12.6700,0.12,-0.27,0.17,0.34
2022-11-15 21:15:12.6870,0.17,-0.27,0.16,0.35
2022-11-15 21:15:12.6870,0.24,-0.27,0.08,0.37
2022-11-15 21:15:12.7350,0.24,-0.31,-0.02,0.39
2022-11-15 21:15:12.7360,0.25,-0.36,-0.14,0.46
2022-11-15 21:15:12.7540,0.25,-0.41,-0.23,0.53
2022-11-15 21:15:12.7540,0.19,-0.42,-0.29,0.54
2022-11-15 21:15:12.7710,0.15,-0.41,-0.37,0.57
2022-11-15 21:15:12.7710,0.37,-0.31,-0.37,0.6
2022-11-15 21:15:12.7870,0.36,-0.23,-0.28,0.51
2022-11-15 21:15:12.7870,0.24,-0.15,-0.2,0.34
2022-11-15 21:15:12.8030,0.26,-0.04,-0.18,0.31
2022-11-15 21:15:12.8040,0.31,0.06,-0.18,0.36
2022-11-15 21:15:12.8530,0.25,0.03,-0.14,0.28
2022-11-15 21:15:12.8530,0.14,-0.07,-0.08,0.17
2022-11-15 21:15:12.8720,0.1,-0.1,-0.01,0.14
2022-11-15 21:15:12.8730,0.12,-0.04,0.04,0.13
2022-11-15 21:15:12.8870,0.13,0.02,0.03,0.13
2022-11-15 21:15:12.8880,0.04,0.02,-0.04,0.06
2022-11-15 21:15:12.9030,-0.01,0.06,-0.12,0.13
2022-11-15 21:15:12.9040,-0.01,0.17,-0.12,0.2
2022-11-15 21:15:12.9040,0.0,0.27,-0.09,0.28
2022-11-15 21:15:12.9200,-0.07,0.27,-0.18,0.33
2022-11-15 21:15:12.9690,-0.29,0.18,-0.18,0.38
2022-11-15 21:15:12.9700,-0.46,0.15,-0.09,0.49
2022-11-15 21:15:12.9880,-0.43,0.25,-0.03,0.49
2022-11-15 21:15:12.9890,-0.41,0.31,0.07,0.51
2022-11-15 21:15:13.0040,-0.43,0.26,0.21,0.54
2022-11-15 21:15:13.0050,-0.51,0.07,0.3,0.59
2022-11-15 21:15:13.0200,-0.6,-0.18,0.48,0.78
2022-11-15 21:15:13.0210,-0.68,-0.37,0.78,1.09
2022-11-15 21:15:13.0360,-0.68,-0.45,1.11,1.37
2022-11-15 21:15:13.0370,-0.24,-0.33,1.5,1.55
2022-11-15 21:15:13.0860,0.13,-0.19,1.7,1.71
2022-11-15 21:15:13.0870,0.04,-0.04,1.24,1.24
2022-11-15 21:15:13.1050,0.09,-0.02,0.97,0.97
2022-11-15 21:15:13.1060,0.53,0.06,0.91,1.05
2022-11-15 21:15:13.1210,0.88,0.34,0.57,1.1
2022-11-15 21:15:13.1210,1.2,0.53,0.45,1.38
2022-11-15 21:15:13.1370,1.31,0.58,0.4,1.48
2022-11-15 21:15:13.1370,1.29,0.43,0.38,1.41
2022-11-15 21:15:13.1530,1.34,0.21,0.42,1.41
2022-11-15 21:15:13.1540,1.43,0.02,0.45,1.49
2022-11-15 21:15:13.2030,1.44,-0.03,0.29,1.46
2022-11-15 21:15:13.2040,1.4,0.11,-0.03,1.4
2022-11-15 21:15:13.2220,1.29,0.29,-0.26,1.34
2022-11-15 21:15:13.2220,1.05,0.31,-0.14,1.1
2022-11-15 21:15:13.2370,0.32,0.05,0.35,0.47
2022-11-15 21:15:13.2380,-0.26,-0.16,0.8,0.85
2022-11-15 21:15:13.2530,0.15,0.12,0.78,0.8
2022-11-15 21:15:13.2540,0.62,0.38,0.59,0.93
2022-11-15 21:15:13.2700,0.77,0.51,0.39,1.0
2022-11-15 21:15:13.2700,0.72,0.6,0.28,0.97
2022-11-15 21:15:13.3190,0.68,0.69,0.36,1.03
2022-11-15 21:15:13.3190,0.75,0.79,0.41,1.16
2022-11-15 21:15:13.3380,0.86,0.84,0.4,1.26
2022-11-15 21:15:13.3390,0.92,0.75,0.38,1.24
2022-11-15 21:15:13.3540,0.95,0.56,0.38,1.16
2022-11-15 21:15:13.3550,0.95,0.36,0.47,1.11
2022-11-15 21:15:13.3700,0.9,0.09,0.7,1.14
2022-11-15 21:15:13.3700,0.85,-0.17,1.0,1.32
2022-11-15 21:15:13.3860,0.56,-0.47,1.31,1.5
2022-11-15 21:15:13.3870,0.13,-0.55,1.41,1.51
2022-11-15 21:15:13.4360,0.14,-0.15,1.74,1.75
2022-11-15 21:15:13.4370,0.46,0.33,1.87,1.95
2022-11-15 21:15:13.4550,0.66,0.63,1.83,2.04
2022-11-15 21:15:13.4560,0.6,0.77,1.78,2.03
2022-11-15 21:15:13.4700,0.33,0.89,1.81,2.04
2022-11-15 21:15:13.4710,-0.31,0.82,2.16,2.33
2022-11-15 21:15:13.4860,-1.16,0.71,2.58,2.91
2022-11-15 21:15:13.4870,-2.05,0.62,2.82,3.54
2022-11-15 21:15:13.5030,-2.45,0.62,2.7,3.69
2022-11-15 21:15:13.5040,-1.9,1.13,2.42,3.27
2022-11-15 21:15:13.5530,-0.91,1.45,2.3,2.86
2022-11-15 21:15:13.5540,-0.6,1.09,1.88,2.25
2022-11-15 21:15:13.5720,-0.75,0.55,1.25,1.55
2022-11-15 21:15:13.5730,-0.79,0.47,1.19,1.5
2022-11-15 21:15:13.5870,-1.41,0.45,1.22,1.91
2022-11-15 21:15:13.5880,-1.76,0.76,0.53,1.98
2022-11-15 21:15:13.6030,-1.52,1.34,-0.31,2.04
2022-11-15 21:15:13.6040,-1.75,1.45,-0.75,2.39
2022-11-15 21:15:13.6200,-1.03,1.35,-0.67,1.82
2022-11-15 21:15:13.6210,1.62,1.42,0.12,2.15
2022-11-15 21:15:13.6700,2.26,1.02,0.73,2.58
2022-11-15 21:15:13.6710,0.16,0.02,1.08,1.09
2022-11-15 21:15:13.6880,-2.49,-0.98,0.13,2.67
2022-11-15 21:15:13.6890,-2.1,-0.72,-0.83,2.37
2022-11-15 21:15:13.7040,-0.94,0.3,-2.06,2.28
2022-11-15 21:15:13.7050,-0.26,1.19,-2.84,3.09
2022-11-15 21:15:13.7200,0.34,1.83,-2.94,3.47
2022-11-15 21:15:13.7210,0.99,2.61,-3.59,4.54
2022-11-15 21:15:13.7360,1.22,2.81,-3.62,4.74
2022-11-15 21:15:13.7370,1.58,2.56,-3.54,4.64
2022-11-15 21:15:13.7860,2.28,2.21,-3.66,4.84
2022-11-15 21:15:13.7860,3.24,1.86,-3.23,4.93
2022-11-15 21:15:13.8050,3.96,1.15,-1.12,4.27
2022-11-15 21:15:13.8060,3.29,-0.24,3.49,4.8
2022-11-15 21:15:13.8210,1.05,-1.62,6.85,7.11
2022-11-15 21:15:13.8220,-0.33,-2.06,3.96,4.47
2022-11-15 21:15:13.8360,-0.59,-1.9,-0.06,1.99
2022-11-15 21:15:13.8370,-0.79,-1.51,-0.87,1.91
2022-11-15 21:15:13.8530,-1.04,-1.34,0.37,1.73
2022-11-15 21:15:13.8540,-0.96,-1.23,1.39,2.08
2022-11-15 21:15:13.9030,-0.66,-0.63,0.99,1.34
2022-11-15 21:15:13.9040,-0.34,0.16,0.18,0.41
2022-11-15 21:15:13.9210,0.1,0.92,-0.45,1.02
2022-11-15 21:15:13.9220,0.29,1.51,-0.88,1.77
2022-11-15 21:15:13.9370,0.29,1.98,-1.03,2.25
2022-11-15 21:15:13.9380,0.27,2.27,-1.04,2.51
2022-11-15 21:15:13.9530,0.06,2.24,-1.08,2.48
2022-11-15 21:15:13.9540,-0.37,2.21,-0.61,2.32
2022-11-15 21:15:13.9690,-0.75,2.08,-0.16,2.21
2022-11-15 21:15:13.9700,-1.11,1.8,0.41,2.15
2022-11-15 21:15:14.0190,-1.43,1.47,0.95,2.26
2022-11-15 21:15:14.0200,-1.78,1.1,1.27,2.44
2022-11-15 21:15:14.0380,-2.18,0.87,1.32,2.69
2022-11-15 21:15:14.0390,-2.26,0.71,1.38,2.74
2022-11-15 21:15:14.0540,-2.26,0.6,1.29,2.67
2022-11-15 21:15:14.0550,-2.2,0.56,1.0,2.48
2022-11-15 21:15:14.0690,-2.38,0.45,0.58,2.49
2022-11-15 21:15:14.0700,-2.64,0.39,0.3,2.68
2022-11-15 21:15:14.0860,-2.89,0.29,0.24,2.91
2022-11-15 21:15:14.0870,-3.15,0.23,0.35,3.17
2022-11-15 21:15:14.1360,-3.4,0.21,0.54,3.44
2022-11-15 21:15:14.1370,-3.63,0.13,0.87,3.73
2022-11-15 21:15:14.1550,-3.78,-0.01,1.27,3.98
2022-11-15 21:15:14.1560,-3.68,-0.14,1.65,4.03
2022-11-15 21:15:14.1710,-2.88,0.08,1.84,3.41
2022-11-15 21:15:14.1710,-1.79,0.58,1.74,2.56
2022-11-15 21:15:14.1860,-1.27,0.99,1.39,2.12
2022-11-15 21:15:14.1870,-1.21,1.31,0.86,1.97
2022-11-15 21:15:14.2030,-1.53,1.49,0.43,2.17
2022-11-15 21:15:14.2040,-2.04,1.49,0.14,2.53
2022-11-15 21:15:14.2530,-2.48,1.29,0.16,2.8
2022-11-15 21:15:14.2530,-2.98,0.84,0.39,3.12
2022-11-15 21:15:14.2720,-3.26,0.29,0.59,3.32
2022-11-15 21:15:14.2720,-3.44,-0.51,0.66,3.53
2022-11-15 21:15:14.2870,-3.69,-1.54,0.4,4.01
2022-11-15 21:15:14.2880,-3.95,-2.49,0.02,4.66
2022-11-15 21:15:14.3030,-4.0,-3.1,-0.37,5.07
2022-11-15 21:15:14.3040,-3.76,-3.24,-0.65,5.0
2022-11-15 21:15:14.3200,-3.08,-2.87,-0.84,4.29
2022-11-15 21:15:14.3200,-1.81,-2.1,-0.88,2.9
2022-11-15 21:15:14.3700,-0.47,-1.34,-0.79,1.62
2022-11-15 21:15:14.3700,0.63,-0.9,-0.57,1.23
2022-11-15 21:15:14.3880,1.53,-0.93,-0.05,1.79
2022-11-15 21:15:14.3890,2.37,-1.42,0.78,2.87
2022-11-15 21:15:14.4040,2.98,-2.1,1.35,3.88
2022-11-15 21:15:14.4050,3.34,-2.72,1.59,4.59
2022-11-15 21:15:14.4200,3.66,-3.15,1.69,5.11
2022-11-15 21:15:14.4210,3.91,-3.44,1.66,5.46
2022-11-15 21:15:14.4360,4.06,-3.68,1.43,5.66
2022-11-15 21:15:14.4370,4.09,-3.73,1.12,5.64
2022-11-15 21:15:14.4860,3.98,-3.35,0.59,5.23
2022-11-15 21:15:14.4870,3.69,-2.54,0.14,4.48
2022-11-15 21:15:14.5050,2.57,-1.68,-0.15,3.07
2022-11-15 21:15:14.5050,1.14,-1.03,-0.14,1.54
2022-11-15 21:15:14.5210,0.47,-0.36,-0.19,0.62
2022-11-15 21:15:14.5210,0.41,0.48,-0.52,0.81
2022-11-15 21:15:14.5360,0.65,1.37,-0.8,1.71
2022-11-15 21:15:14.5370,0.9,2.11,-1.06,2.52
2022-11-15 21:15:14.5530,1.06,2.7,-1.23,3.15
2022-11-15 21:15:14.5540,1.18,3.25,-1.22,3.66
2022-11-15 21:15:14.6030,1.23,3.63,-1.12,3.99
2022-11-15 21:15:14.6040,1.1,3.74,-1.11,4.05
2022-11-15 21:15:14.6220,0.79,3.6,-1.12,3.85
2022-11-15 21:15:14.6220,0.36,3.25,-1.03,3.42
2022-11-15 21:15:14.6370,-0.21,2.69,-0.73,2.79
2022-11-15 21:15:14.6380,-0.78,1.87,-0.23,2.03
2022-11-15 21:15:14.6530,-1.15,1.05,0.35,1.59
2022-11-15 21:15:14.6540,-0.82,0.53,0.69,1.19
2022-11-15 21:15:14.6700,0.14,0.36,0.52,0.64
2022-11-15 21:15:14.6700,1.19,0.41,0.04,1.25
2022-11-15 21:15:14.7190,2.02,0.56,-0.4,2.13
2022-11-15 21:15:14.7200,2.52,0.73,-0.64,2.7
2022-11-15 21:15:14.7380,2.71,0.89,-0.57,2.9
2022-11-15 21:15:14.7390,2.64,1.05,-0.39,2.86
2022-11-15 21:15:14.7540,2.35,1.2,-0.27,2.65
2022-11-15 21:15:14.7550,1.96,1.33,-0.23,2.37
2022-11-15 21:15:14.7700,1.5,1.46,-0.22,2.1
2022-11-15 21:15:14.7700,1.0,1.47,-0.14,1.78
2022-11-15 21:15:14.7860,0.47,1.29,0.09,1.37
2022-11-15 21:15:14.7870,-0.09,0.9,0.55,1.05
2022-11-15 21:15:14.8370,-0.73,0.29,1.27,1.49
2022-11-15 21:15:14.8370,-1.51,-0.47,2.23,2.73
2022-11-15 21:15:14.8550,-2.41,-1.08,3.37,4.28
2022-11-15 21:15:14.8560,-3.34,-1.45,4.47,5.76
2022-11-15 21:15:14.8700,-4.22,-1.6,5.29,6.95
2022-11-15 21:15:14.8710,-4.83,-1.53,5.66,7.59
2022-11-15 21:15:14.8870,-5.1,-1.29,5.54,7.63
2022-11-15 21:15:14.8870,-5.1,-0.86,4.95,7.15
2022-11-15 21:15:14.9030,-4.67,-0.06,3.96,6.12
2022-11-15 21:15:14.9040,-3.57,1.11,2.97,4.77
2022-11-15 21:15:14.9530,-2.16,2.24,2.11,3.75
2022-11-15 21:15:14.9530,-1.06,3.0,1.49,3.51
2022-11-15 21:15:14.9720,-0.37,3.26,1.11,3.46
2022-11-15 21:15:14.9720,-0.07,2.88,0.87,3.0
2022-11-15 21:15:14.9870,-0.17,1.61,0.14,1.62
2022-11-15 21:15:14.9880,-0.81,-0.31,-1.5,1.73
2022-11-15 21:15:15.0030,-1.12,-2.08,-3.34,4.09
2022-11-15 21:15:15.0040,-0.95,-3.78,-4.61,6.03
2022-11-15 21:15:15.0200,-0.52,-4.8,-5.42,7.25
2022-11-15 21:15:15.0210,0.39,-4.87,-5.9,7.66
2022-11-15 21:15:15.0700,1.75,-3.86,-5.63,7.04
2022-11-15 21:15:15.0710,3.09,-2.29,-4.58,5.98
2022-11-15 21:15:15.0880,4.07,-0.85,-3.33,5.32
2022-11-15 21:15:15.0890,4.74,0.27,-2.0,5.15
2022-11-15 21:15:15.1040,5.08,0.86,-0.9,5.23
2022-11-15 21:15:15.1050,4.31,0.38,-0.85,4.4
2022-11-15 21:15:15.1200,2.91,-0.77,-1.51,3.36
2022-11-15 21:15:15.1200,2.02,-1.43,-1.63,2.96
2022-11-15 21:15:15.1360,1.54,-1.64,-1.3,2.59
2022-11-15 21:15:15.1370,1.36,-1.37,-0.88,2.12
2022-11-15 21:15:15.1860,1.32,-0.44,-0.39,1.44
2022-11-15 21:15:15.1870,1.09,0.7,-0.13,1.3
2022-11-15 21:15:15.2050,0.73,1.54,-0.17,1.71
2022-11-15 21:15:15.2050,0.37,2.04,-0.17,2.08
2022-11-15 21:15:15.2210,-0.09,2.39,0.03,2.39
2022-11-15 21:15:15.2210,-0.64,2.62,0.38,2.72
2022-11-15 21:15:15.2360,-1.12,2.8,0.62,3.07
2022-11-15 21:15:15.2370,-1.6,2.91,0.66,3.38
2022-11-15 21:15:15.2530,-2.07,2.86,0.43,3.55
2022-11-15 21:15:15.2540,-2.51,2.58,-0.07,3.6
2022-11-15 21:15:15.3030,-2.73,2.16,-0.6,3.53
2022-11-15 21:15:15.3040,-2.44,1.9,-0.9,3.22
2022-11-15 21:15:15.3220,-1.72,1.65,-0.92,2.55
2022-11-15 21:15:15.3220,-0.93,0.99,-0.68,1.51
2022-11-15 21:15:15.3370,-0.3,0.27,-0.31,0.5
2022-11-15 21:15:15.3380,0.06,-0.2,0.02,0.2
2022-11-15 21:15:15.3530,0.28,-0.36,0.36,0.58
2022-11-15 21:15:15.3540,0.47,-0.31,0.7,0.89
2022-11-15 21:15:15.3700,0.58,-0.2,0.99,1.16
2022-11-15 21:15:15.3710,0.62,-0.13,1.22,1.37
2022-11-15 21:15:15.4200,0.6,-0.19,1.57,1.69
2022-11-15 21:15:15.4210,0.5,-0.4,1.98,2.08
2022-11-15 21:15:15.4380,0.34,-0.65,2.12,2.24
2022-11-15 21:15:15.4390,0.19,-0.78,1.74,1.91
2022-11-15 21:15:15.4540,0.0,-0.71,0.89,1.13
2022-11-15 21:15:15.4550,-0.2,-0.52,0.13,0.57
2022-11-15 21:15:15.4700,-0.4,-0.36,-0.11,0.54
2022-11-15 21:15:15.4710,-0.63,-0.21,0.15,0.68
2022-11-15 21:15:15.4870,-0.96,-0.05,0.77,1.23
2022-11-15 21:15:15.4880,-1.45,0.08,1.37,1.99
2022-11-15 21:15:15.5370,-2.01,0.28,1.76,2.68
2022-11-15 21:15:15.5370,-2.67,0.54,1.99,3.37
2022-11-15 21:15:15.5550,-3.34,0.81,2.11,4.03
2022-11-15 21:15:15.5560,-3.83,0.99,2.23,4.54
2022-11-15 21:15:15.5710,-4.11,0.91,2.27,4.78
2022-11-15 21:15:15.5710,-4.25,0.51,2.14,4.78
2022-11-15 21:15:15.5870,-4.58,-0.04,1.79,4.91
2022-11-15 21:15:15.5870,-4.97,-0.86,1.39,5.23
2022-11-15 21:15:15.6030,-5.28,-1.59,0.99,5.6
2022-11-15 21:15:15.6040,-5.14,-1.79,0.74,5.49
2022-11-15 21:15:15.6530,-4.18,-1.34,0.65,4.43
2022-11-15 21:15:15.6540,-2.15,-0.6,0.46,2.27
2022-11-15 21:15:15.6720,-0.22,-0.26,-0.13,0.36
2022-11-15 21:15:15.6730,1.06,-0.48,-1.13,1.62
2022-11-15 21:15:15.6870,1.8,-0.83,-2.27,3.01
2022-11-15 21:15:15.6880,2.4,-1.2,-2.82,3.89
2022-11-15 21:15:15.7030,3.05,-1.8,-2.57,4.37
2022-11-15 21:15:15.7040,3.57,-2.62,-1.98,4.85
2022-11-15 21:15:15.7200,3.91,-3.52,-1.14,5.38
2022-11-15 21:15:15.7200,4.04,-4.43,0.09,5.99
2022-11-15 21:15:15.7700,4.14,-5.24,1.59,6.86
2022-11-15 21:15:15.7710,4.22,-5.57,2.85,7.54
2022-11-15 21:15:15.7880,4.06,-4.86,3.63,7.29
2022-11-15 21:15:15.7890,3.06,-3.53,3.64,5.92
2022-11-15 21:15:15.8040,1.59,-2.54,3.16,4.35
2022-11-15 21:15:15.8040,0.74,-1.74,2.34,3.0
2022-11-15 21:15:15.8200,0.45,-0.89,1.45,1.75
2022-11-15 21:15:15.8200,0.42,-0.04,0.55,0.69
2022-11-15 21:15:15.8360,0.52,0.76,-0.38,0.99
2022-11-15 21:15:15.8370,0.66,1.52,-1.21,2.05
2022-11-15 21:15:15.8870,0.81,2.17,-1.89,2.98
2022-11-15 21:15:15.8870,1.07,2.84,-2.23,3.76
2022-11-15 21:15:15.9050,1.38,3.41,-2.35,4.36
2022-11-15 21:15:15.9050,1.6,3.77,-2.39,4.74
2022-11-15 21:15:15.9210,1.68,3.89,-2.42,4.87
2022-11-15 21:15:15.9210,1.61,3.72,-2.54,4.78
2022-11-15 21:15:15.9360,1.38,3.23,-2.78,4.47
2022-11-15 21:15:15.9370,1.06,2.48,-2.95,3.99
2022-11-15 21:15:15.9530,0.76,1.53,-2.72,3.21
2022-11-15 21:15:15.9540,0.82,0.65,-1.99,2.24
2022-11-15 21:15:16.0040,1.3,0.2,-0.88,1.58
2022-11-15 21:15:16.0050,2.06,0.28,0.33,2.1
2022-11-15 21:15:16.0220,2.79,0.57,1.23,3.1
2022-11-15 21:15:16.0220,3.15,0.74,1.82,3.71
2022-11-15 21:15:16.0370,3.09,0.86,2.22,3.9
2022-11-15 21:15:16.0380,2.76,1.05,2.4,3.8
2022-11-15 21:15:16.0530,2.31,1.29,2.26,3.47
2022-11-15 21:15:16.0540,1.78,1.52,1.89,3.0
2022-11-15 21:15:16.0700,1.22,1.73,1.44,2.56
2022-11-15 21:15:16.0710,0.64,1.77,0.84,2.06
2022-11-15 21:15:16.1210,-0.08,1.3,0.5,1.39
2022-11-15 21:15:16.1220,-1.03,0.26,1.21,1.61
2022-11-15 21:15:16.1360,-2.15,-1.04,2.79,3.67
2022-11-15 21:15:16.1370,-3.46,-2.12,4.58,6.11
2022-11-15 21:15:16.1530,-4.69,-2.44,5.82,7.86
2022-11-15 21:15:16.1540,-5.23,-1.56,5.94,8.06
2022-11-15 21:15:16.1690,-5.11,0.04,5.15,7.25
2022-11-15 21:15:16.1700,-4.88,1.38,4.09,6.51
2022-11-15 21:15:16.1860,-4.69,1.65,3.06,5.83
2022-11-15 21:15:16.1870,-4.34,0.88,1.81,4.78
2022-11-15 21:15:16.2360,-4.22,-0.55,0.29,4.26
2022-11-15 21:15:16.2370,-4.34,-2.28,-1.09,5.02
2022-11-15 21:15:16.2550,-4.5,-4.35,-2.11,6.6
2022-11-15 21:15:16.2560,-4.29,-6.16,-3.28,8.19
2022-11-15 21:15:16.2700,-3.14,-6.58,-4.49,8.56
2022-11-15 21:15:16.2710,-1.01,-5.01,-5.29,7.35
2022-11-15 21:15:16.2860,1.41,-2.75,-5.54,6.34
2022-11-15 21:15:16.2870,3.18,-0.44,-5.38,6.26
2022-11-15 21:15:16.3030,4.05,1.69,-5.11,6.73
2022-11-15 21:15:16.3040,4.42,3.09,-5.12,7.43
2022-11-15 21:15:16.3540,4.53,3.77,-5.17,7.83
2022-11-15 21:15:16.3540,4.5,3.83,-5.11,7.81
2022-11-15 21:15:16.3720,4.22,3.05,-4.78,7.06
2022-11-15 21:15:16.3720,3.64,1.47,-4.14,5.7
2022-11-15 21:15:16.3870,2.9,-0.17,-2.92,4.11
2022-11-15 21:15:16.3880,2.02,-1.54,-1.14,2.78
2022-11-15 21:15:16.4030,1.14,-2.27,0.91,2.69
2022-11-15 21:15:16.4040,0.59,-2.15,2.53,3.37
2022-11-15 21:15:16.4200,0.35,-1.4,2.95,3.28
2022-11-15 21:15:16.4200,0.13,-0.55,2.1,2.17
2022-11-15 21:15:16.4700,-0.13,0.27,0.92,0.96
2022-11-15 21:15:16.4710,-0.38,1.06,-0.01,1.12
2022-11-15 21:15:16.4880,-0.57,1.75,-0.7,1.96
2022-11-15 21:15:16.4890,-0.81,2.38,-1.11,2.74
2022-11-15 21:15:16.5040,-1.08,2.88,-1.47,3.4
2022-11-15 21:15:16.5050,-1.37,3.23,-1.78,3.93
2022-11-15 21:15:16.5200,-1.61,3.27,-2.03,4.17
2022-11-15 21:15:16.5200,-1.53,3.0,-2.22,4.03
2022-11-15 21:15:16.5360,-0.64,2.62,-2.09,3.41
2022-11-15 21:15:16.5370,0.25,1.8,-1.7,2.48
2022-11-15 21:15:16.5860,0.68,0.87,-1.18,1.61
2022-11-15 21:15:16.5870,0.76,0.23,-0.55,0.96
2022-11-15 21:15:16.6050,0.65,-0.14,0.09,0.67
2022-11-15 21:15:16.6060,0.52,-0.34,0.63,0.88
2022-11-15 21:15:16.6210,0.51,-0.43,1.08,1.26
2022-11-15 21:15:16.6220,0.64,-0.43,1.42,1.61
2022-11-15 21:15:16.6360,0.9,-0.37,1.54,1.82
2022-11-15 21:15:16.6370,1.06,-0.33,1.36,1.75
2022-11-15 21:15:16.6530,1.04,-0.32,0.9,1.41
2022-11-15 21:15:16.6540,0.86,-0.3,0.41,0.99
2022-11-15 21:15:16.7030,0.62,-0.24,0.31,0.73
2022-11-15 21:15:16.7040,0.3,-0.31,0.54,0.69
2022-11-15 21:15:16.7220,-0.25,-0.61,0.86,1.08
2022-11-15 21:15:16.7230,-1.02,-0.95,1.24,1.86
2022-11-15 21:15:16.7370,-1.8,-1.06,1.5,2.57
2022-11-15 21:15:16.7380,-2.68,-1.02,1.44,3.2
2022-11-15 21:15:16.7530,-3.54,-1.03,1.38,3.93
2022-11-15 21:15:16.7540,-4.29,-1.0,1.63,4.69
2022-11-15 21:15:16.7690,-4.78,-0.9,2.09,5.29
2022-11-15 21:15:16.7700,-5.0,-0.65,2.53,5.64
2022-11-15 21:15:16.8200,-5.1,-0.27,2.68,5.76
2022-11-15 21:15:16.8210,-5.08,-0.05,2.26,5.56
2022-11-15 21:15:16.8380,-4.98,-0.17,1.81,5.3
2022-11-15 21:15:16.8390,-5.15,-0.76,1.62,5.45
2022-11-15 21:15:16.8540,-5.21,-1.47,1.32,5.57
2022-11-15 21:15:16.8540,-4.55,-1.48,0.76,4.84
2022-11-15 21:15:16.8690,-2.81,-0.77,0.16,2.91
2022-11-15 21:15:16.8700,-0.8,-0.19,-0.54,0.98
2022-11-15 21:15:16.8860,0.53,-0.27,-1.37,1.49
2022-11-15 21:15:16.8870,1.36,-0.55,-2.16,2.61
2022-11-15 21:15:16.9380,2.13,-0.98,-2.58,3.48
2022-11-15 21:15:16.9390,2.76,-1.56,-2.6,4.1
2022-11-15 21:15:16.9550,3.1,-2.15,-2.31,4.42
2022-11-15 21:15:16.9550,3.3,-2.58,-1.85,4.57
2022-11-15 21:15:16.9700,3.46,-2.8,-1.33,4.64
2022-11-15 21:15:16.9710,3.58,-3.13,-0.31,4.76
2022-11-15 21:15:16.9860,3.58,-3.5,0.83,5.07
2022-11-15 21:15:16.9870,3.5,-3.71,1.98,5.47
2022-11-15 21:15:17.0030,3.17,-3.62,2.72,5.52
2022-11-15 21:15:17.0040,2.41,-3.14,2.67,4.77
2022-11-15 21:15:17.0530,1.56,-2.37,2.09,3.52
2022-11-15 21:15:17.0540,0.95,-1.56,1.3,2.24
2022-11-15 21:15:17.0710,0.65,-0.76,0.55,1.14
2022-11-15 21:15:17.0720,0.68,0.11,-0.18,0.71
2022-11-15 21:15:17.0870,0.87,1.07,-0.86,1.62
2022-11-15 21:15:17.0880,1.16,1.99,-1.3,2.64
2022-11-15 21:15:17.1030,1.47,2.76,-1.56,3.49
2022-11-15 21:15:17.1040,1.69,3.38,-1.68,4.13
2022-11-15 21:15:17.1190,1.77,3.86,-1.71,4.57
2022-11-15 21:15:17.1200,1.7,4.18,-1.63,4.79
2022-11-15 21:15:17.1700,1.43,4.17,-1.54,4.66
2022-11-15 21:15:17.1700,0.92,3.75,-1.46,4.12
2022-11-15 21:15:17.1880,0.3,3.1,-1.38,3.4
2022-11-15 21:15:17.1890,-0.3,2.34,-1.3,2.69
2022-11-15 21:15:17.2040,-0.77,1.53,-1.15,2.06
2022-11-15 21:15:17.2050,-1.04,0.8,-0.89,1.58
2022-11-15 21:15:17.2200,-0.91,0.27,-0.65,1.15
2022-11-15 21:15:17.2210,-0.25,0.07,-0.47,0.53
2022-11-15 21:15:17.2360,0.72,0.27,-0.37,0.85
2022-11-15 21:15:17.2370,1.76,0.74,-0.28,1.92
2022-11-15 21:15:17.2870,2.59,1.26,-0.12,2.88
2022-11-15 21:15:17.2880,3.12,1.71,0.17,3.56
2022-11-15 21:15:17.3050,3.26,2.04,0.43,3.86
2022-11-15 21:15:17.3060,3.03,2.18,0.35,3.74
2022-11-15 21:15:17.3200,2.63,2.12,-0.23,3.38
2022-11-15 21:15:17.3210,2.23,1.89,-0.59,2.98
2022-11-15 21:15:17.3360,1.51,1.32,0.26,2.02
2022-11-15 21:15:17.3370,0.33,0.05,2.2,2.22
2022-11-15 21:15:17.3530,-1.05,-2.02,4.47,5.01
2022-11-15 21:15:17.3540,-2.63,-4.01,6.47,8.05
2022-11-15 21:15:17.4040,-4.3,-4.74,7.18,9.61
2022-11-15 21:15:17.4050,-5.34,-3.63,6.33,9.04
2022-11-15 21:15:17.4210,-5.59,-2.09,5.34,8.0
2022-11-15 21:15:17.4220,-5.75,-1.54,4.28,7.33
2022-11-15 21:15:17.4370,-5.41,-2.15,2.31,6.26
2022-11-15 21:15:17.4380,-4.74,-3.45,0.31,5.87
2022-11-15 21:15:17.4530,-4.5,-4.72,-0.95,6.59
2022-11-15 21:15:17.4540,-4.29,-5.55,-1.92,7.27
2022-11-15 21:15:17.4700,-3.41,-5.58,-2.92,7.16
2022-11-15 21:15:17.4710,-1.91,-4.21,-3.91,6.05
2022-11-15 21:15:17.5200,-0.11,-1.91,-4.71,5.08
2022-11-15 21:15:17.5200,1.55,0.19,-4.93,5.17
2022-11-15 21:15:17.5380,2.77,1.64,-4.85,5.82
2022-11-15 21:15:17.5390,3.68,2.48,-5.07,6.73
2022-11-15 21:15:17.5540,4.22,2.89,-5.21,7.3
2022-11-15 21:15:17.5540,4.29,2.86,-5.75,7.72
2022-11-15 21:15:17.5690,3.98,2.09,-6.82,8.16
2022-11-15 21:15:17.5700,3.53,0.93,-7.84,8.64
2022-11-15 21:15:17.5860,3.18,-0.25,-8.13,8.73
2022-11-15 21:15:17.5870,2.91,-1.36,-7.37,8.03
2022-11-15 21:15:17.6360,2.8,-2.31,-5.43,6.53
2022-11-15 21:15:17.6370,3.04,-3.08,-2.13,4.82
2022-11-15 21:15:17.6550,3.62,-3.41,1.87,5.31
2022-11-15 21:15:17.6560,3.89,-2.78,4.58,6.62
2022-11-15 21:15:17.6700,3.28,-1.35,4.85,6.0
2022-11-15 21:15:17.6710,2.22,-0.16,2.87,3.63
2022-11-15 21:15:17.6860,1.28,0.66,1.0,1.75
2022-11-15 21:15:17.6870,0.46,1.34,-0.16,1.42
2022-11-15 21:15:17.7030,-0.13,1.93,-0.95,2.15
2022-11-15 21:15:17.7040,-0.51,2.42,-1.52,2.9
2022-11-15 21:15:17.7520,-0.87,2.8,-2.03,3.56
2022-11-15 21:15:17.7530,-1.2,3.04,-2.34,4.01
2022-11-15 21:15:17.7710,-1.49,3.0,-2.34,4.08
2022-11-15 21:15:17.7720,-1.78,2.72,-1.96,3.79
2022-11-15 21:15:17.7870,-2.14,2.17,-1.21,3.27
2022-11-15 21:15:17.7880,-2.51,1.47,-0.31,2.92
2022-11-15 21:15:17.8030,-2.88,0.7,0.53,3.01
2022-11-15 21:15:17.8040,-3.23,0.07,1.19,3.44
2022-11-15 21:15:17.8200,-3.38,-0.36,1.61,3.76
2022-11-15 21:15:17.8210,-3.16,-0.49,1.78,3.65
2022-11-15 21:15:17.8700,-2.24,-0.18,1.66,2.79
2022-11-15 21:15:17.8710,-0.83,0.34,1.39,1.65
2022-11-15 21:15:17.8880,0.46,0.72,1.01,1.32
2022-11-15 21:15:17.8890,1.44,0.88,0.56,1.77
2022-11-15 21:15:17.9040,2.09,0.85,0.05,2.25
2022-11-15 21:15:17.9040,2.42,0.63,-0.28,2.51
2022-11-15 21:15:17.9200,2.46,0.16,-0.23,2.47
2022-11-15 21:15:17.9200,2.21,-0.59,0.05,2.28
2022-11-15 21:15:17.9360,1.59,-1.37,0.51,2.15
2022-11-15 21:15:17.9370,0.7,-1.9,0.91,2.21
2022-11-15 21:15:17.9860,-0.28,-1.97,0.81,2.14
2022-11-15 21:15:17.9860,-1.19,-1.66,0.48,2.09
2022-11-15 21:15:18.0050,-1.85,-0.98,0.33,2.11
2022-11-15 21:15:18.0050,-2.46,-0.19,0.42,2.5
2022-11-15 21:15:18.0200,-2.94,0.6,0.81,3.1
2022-11-15 21:15:18.0210,-3.19,1.2,1.39,3.68
2022-11-15 21:15:18.0360,-3.34,1.58,1.86,4.13
2022-11-15 21:15:18.0370,-3.58,1.66,1.98,4.41
2022-11-15 21:15:18.0530,-3.92,1.38,1.88,4.56
2022-11-15 21:15:18.0540,-4.46,0.8,1.62,4.81
2022-11-15 21:15:18.1030,-4.91,0.16,1.22,5.06
2022-11-15 21:15:18.1040,-4.98,-0.18,0.9,5.06
2022-11-15 21:15:18.1210,-4.51,-0.22,0.53,4.54
2022-11-15 21:15:18.1220,-3.15,-0.11,0.04,3.15
2022-11-15 21:15:18.1370,-1.42,-0.1,-0.61,1.54
2022-11-15 21:15:18.1370,-0.14,-0.38,-1.39,1.44
2022-11-15 21:15:18.1530,0.64,-0.9,-2.3,2.55
2022-11-15 21:15:18.1540,1.15,-1.69,-2.91,3.55
2022-11-15 21:15:18.1700,1.7,-2.46,-3.07,4.28
2022-11-15 21:15:18.1700,2.27,-3.16,-2.79,4.78
2022-11-15 21:15:18.2200,2.77,-3.73,-2.37,5.21
2022-11-15 21:15:18.2200,3.14,-4.19,-1.81,5.54
2022-11-15 21:15:18.2380,3.35,-4.5,-1.02,5.7
2022-11-15 21:15:18.2390,3.5,-4.46,0.06,5.66
2022-11-15 21:15:18.2540,3.62,-3.92,1.43,5.52
2022-11-15 21:15:18.2550,3.39,-3.12,2.5,5.24
2022-11-15 21:15:18.2690,2.45,-2.34,2.96,4.49
2022-11-15 21:15:18.2700,1.43,-1.68,2.72,3.5
2022-11-15 21:15:18.2860,0.86,-0.98,1.98,2.37
2022-11-15 21:15:18.2870,0.75,-0.2,1.02,1.28
2022-11-15 21:15:18.3370,0.87,0.6,0.15,1.06
2022-11-15 21:15:18.3370,0.95,1.38,-0.52,1.75
2022-11-15 21:15:18.3520,1.01,2.04,-1.07,2.51
2022-11-15 21:15:18.3530,1.09,2.64,-1.51,3.23
2022-11-15 21:15:18.3690,1.1,3.19,-1.76,3.8
2022-11-15 21:15:18.3700,1.04,3.52,-1.82,4.09
2022-11-15 21:15:18.3860,0.82,3.65,-1.86,4.17
2022-11-15 21:15:18.3870,0.46,3.54,-1.84,4.01
2022-11-15 21:15:18.4020,0.01,3.24,-1.75,3.68
2022-11-15 21:15:18.4030,-0.44,2.73,-1.62,3.2
2022-11-15 21:15:18.4520,-0.83,2.03,-1.48,2.64
2022-11-15 21:15:18.4520,-1.04,1.27,-1.28,2.08
2022-11-15 21:15:18.4710,-1.04,0.57,-0.97,1.53
2022-11-15 21:15:18.4720,-0.72,-0.01,-0.56,0.91
2022-11-15 21:15:18.4860,-0.1,-0.32,-0.18,0.38
2022-11-15 21:15:18.4860,0.66,-0.29,0.11,0.72
2022-11-15 21:15:18.5020,1.43,0.05,0.28,1.45
2022-11-15 21:15:18.5030,2.12,0.53,0.27,2.2
2022-11-15 21:15:18.5200,2.75,0.97,0.2,2.92
2022-11-15 21:15:18.5200,3.23,1.23,0.2,3.46
2022-11-15 21:15:18.5700,3.24,1.19,-0.02,3.45
2022-11-15 21:15:18.5710,2.76,0.93,-0.33,2.93
2022-11-15 21:15:18.5880,2.03,0.54,-0.43,2.14
2022-11-15 21:15:18.5890,1.02,-0.07,-0.33,1.07
2022-11-15 21:15:18.6040,-0.22,-0.89,0.22,0.94
2022-11-15 21:15:18.6040,-1.46,-1.73,1.03,2.48
2022-11-15 21:15:18.6200,-2.58,-2.39,2.07,4.08
2022-11-15 21:15:18.6200,-3.64,-2.67,3.11,5.48
2022-11-15 21:15:18.6360,-4.56,-2.45,4.08,6.59
2022-11-15 21:15:18.6370,-5.16,-1.63,4.6,7.1
2022-11-15 21:15:18.6870,-5.29,-0.49,4.47,6.94
2022-11-15 21:15:18.6880,-5.06,0.67,3.69,6.29
2022-11-15 21:15:18.7050,-4.62,1.6,2.53,5.5
2022-11-15 21:15:18.7050,-3.99,2.17,1.42,4.75
2022-11-15 21:15:18.7200,-3.27,2.36,0.72,4.09
2022-11-15 21:15:18.7210,-2.31,2.03,0.41,3.1
2022-11-15 21:15:18.7360,-1.56,1.07,-0.05,1.89
2022-11-15 21:15:18.7370,-1.55,-0.05,-1.31,2.03
2022-11-15 21:15:18.7520,-1.73,-1.3,-2.69,3.45
2022-11-15 21:15:18.7530,-1.59,-2.94,-3.37,4.74
2022-11-15 21:15:18.8020,-0.98,-4.68,-3.56,5.96
2022-11-15 21:15:18.8030,0.25,-5.75,-3.41,6.68
2022-11-15 21:15:18.8200,1.96,-5.31,-2.85,6.33
2022-11-15 21:15:18.8210,3.47,-3.84,-2.25,5.64
2022-11-15 21:15:18.8370,4.32,-2.04,-1.95,5.16
2022-11-15 21:15:18.8380,4.56,-0.2,-2.07,5.01
2022-11-15 21:15:18.8530,4.31,1.4,-2.42,5.13
2022-11-15 21:15:18.8540,3.73,2.6,-2.9,5.39
2022-11-15 21:15:18.8690,2.95,3.39,-3.34,5.59
2022-11-15 21:15:18.8700,1.93,3.77,-3.7,5.62
2022-11-15 21:15:18.9210,0.99,3.63,-3.88,5.4
2022-11-15 21:15:18.9220,0.09,3.06,-4.04,5.06
2022-11-15 21:15:18.9380,-0.8,2.13,-4.06,4.65
2022-11-15 21:15:18.9390,-1.77,1.06,-3.77,4.29
2022-11-15 21:15:18.9540,-2.82,0.05,-3.17,4.24
2022-11-15 21:15:18.9540,-3.95,-0.61,-2.52,4.72
2022-11-15 21:15:18.9690,-4.85,-0.88,-1.4,5.12
2022-11-15 21:15:18.9700,-5.28,-0.81,0.2,5.34
2022-11-15 21:15:18.9860,-5.22,-0.48,1.62,5.48
2022-11-15 21:15:18.9870,-4.68,0.13,2.37,5.24
2022-11-15 21:15:19.0380,-3.76,0.74,2.57,4.61
2022-11-15 21:15:19.0390,-2.67,1.22,2.25,3.69
2022-11-15 21:15:19.0550,-1.62,1.55,1.42,2.65
2022-11-15 21:15:19.0550,-0.85,1.67,0.08,1.87
2022-11-15 21:15:19.0700,-0.36,1.63,-1.23,2.07
2022-11-15 21:15:19.0710,-0.07,1.46,-2.33,2.75
2022-11-15 21:15:19.0860,0.04,1.09,-3.13,3.31
2022-11-15 21:15:19.0870,0.05,0.64,-3.53,3.58
2022-11-15 21:15:19.1030,0.08,0.16,-3.38,3.38
2022-11-15 21:15:19.1040,0.06,-0.26,-2.6,2.61
2022-11-15 21:15:19.1550,-0.16,-0.46,-1.62,1.69
2022-11-15 21:15:19.1550,-0.62,-0.3,-0.93,1.15
2022-11-15 21:15:19.1710,-1.14,0.19,-0.75,1.37
2022-11-15 21:15:19.1720,-1.58,0.79,-0.9,1.98
2022-11-15 21:15:19.1870,-1.96,1.38,-1.13,2.65
2022-11-15 21:15:19.1880,-2.21,1.91,-1.19,3.15
2022-11-15 21:15:19.2030,-2.36,2.25,-1.07,3.43
2022-11-15 21:15:19.2040,-2.45,2.39,-0.85,3.52
2022-11-15 21:15:19.2200,-2.47,2.36,-0.61,3.47
2022-11-15 21:15:19.2200,-2.32,2.1,-0.39,3.15
2022-11-15 21:15:19.2720,-1.91,1.47,-0.18,2.41
2022-11-15 21:15:19.2720,-1.34,0.6,-0.1,1.47
2022-11-15 21:15:19.2880,-0.88,-0.39,-0.18,0.97
2022-11-15 21:15:19.2890,-0.57,-1.39,-0.35,1.54
2022-11-15 21:15:19.3040,-0.4,-2.15,-0.6,2.26
2022-11-15 21:15:19.3040,-0.38,-2.62,-0.8,2.76
2022-11-15 21:15:19.3200,-0.55,-2.76,-0.84,2.93
2022-11-15 21:15:19.3200,-0.89,-2.58,-0.7,2.81
2022-11-15 21:15:19.3360,-1.33,-2.06,-0.52,2.5
2022-11-15 21:15:19.3370,-1.84,-1.3,-0.39,2.28
2022-11-15 21:15:19.3880,-2.27,-0.51,-0.25,2.33
2022-11-15 21:15:19.3890,-2.56,0.24,-0.03,2.57
2022-11-15 21:15:19.4050,-2.95,0.77,0.27,3.06
2022-11-15 21:15:19.4050,-3.4,1.03,0.62,3.6
2022-11-15 21:15:19.4200,-3.89,1.02,0.96,4.13
2022-11-15 21:15:19.4210,-4.41,0.87,1.12,4.63
2022-11-15 21:15:19.4360,-4.96,0.69,1.2,5.14
2022-11-15 21:15:19.4370,-5.36,0.56,1.31,5.54
2022-11-15 21:15:19.4530,-5.32,0.6,1.19,5.48
2022-11-15 21:15:19.4540,-4.39,0.86,0.94,4.57
2022-11-15 21:15:19.5050,-2.83,1.07,0.62,3.08
2022-11-15 21:15:19.5060,-1.55,1.06,0.19,1.88
2022-11-15 21:15:19.5210,-0.64,0.86,-0.44,1.15
2022-11-15 21:15:19.5220,-0.11,0.55,-1.25,1.37
2022-11-15 21:15:19.5370,0.24,0.2,-2.05,2.07
2022-11-15 21:15:19.5380,0.59,-0.17,-2.8,2.86
2022-11-15 21:15:19.5530,0.96,-0.49,-3.48,3.64
2022-11-15 21:15:19.5540,1.28,-0.79,-3.94,4.21
2022-11-15 21:15:19.5690,1.54,-1.19,-4.15,4.58
2022-11-15 21:15:19.5700,1.64,-1.78,-4.26,4.89
2022-11-15 21:15:19.6220,1.57,-2.51,-4.23,5.16
2022-11-15 21:15:19.6230,1.37,-3.31,-4.01,5.37
2022-11-15 21:15:19.6380,1.03,-4.12,-3.42,5.45
2022-11-15 21:15:19.6380,0.62,-4.83,-2.31,5.38
2022-11-15 21:15:19.6540,0.35,-4.87,-0.66,4.92
2022-11-15 21:15:19.6540,0.36,-3.85,1.4,4.11
2022-11-15 21:15:19.6690,0.5,-2.42,3.2,4.04
2022-11-15 21:15:19.6700,0.59,-1.13,4.06,4.25
2022-11-15 21:15:19.6860,0.64,-0.05,3.58,3.63
2022-11-15 21:15:19.6870,0.83,0.79,1.92,2.23
2022-11-15 21:15:19.7390,1.02,1.35,0.2,1.7
2022-11-15 21:15:19.7390,1.11,1.71,-1.11,2.32
2022-11-15 21:15:19.7540,1.09,1.95,-2.08,3.05
2022-11-15 21:15:19.7550,1.08,2.16,-2.77,3.67
2022-11-15 21:15:19.7700,1.02,2.22,-3.19,4.01
2022-11-15 21:15:19.7710,0.82,2.05,-3.45,4.09
2022-11-15 21:15:19.7860,0.49,1.63,-3.58,3.96
2022-11-15 21:15:19.7870,0.09,1.22,-3.35,3.56
2022-11-15 21:15:19.8030,-0.39,0.69,-2.8,2.91
2022-11-15 21:15:19.8030,-0.88,0.1,-2.15,2.32
2022-11-15 21:15:19.8560,-1.2,-0.37,-1.34,1.83
2022-11-15 21:15:19.8570,-1.11,-0.51,-0.56,1.34
2022-11-15 21:15:19.8710,-0.63,-0.29,0.04,0.69
2022-11-15 21:15:19.8720,0.07,0.23,0.45,0.51
2022-11-15 21:15:19.8870,0.7,0.74,0.74,1.25
2022-11-15 21:15:19.8880,1.1,1.13,0.94,1.83
2022-11-15 21:15:19.9030,1.28,1.43,1.05,2.18
2022-11-15 21:15:19.9030,1.32,1.59,0.94,2.27
2022-11-15 21:15:19.9200,1.25,1.49,0.41,1.98
2022-11-15 21:15:19.9200,1.13,1.11,-0.52,1.66
2022-11-15 21:15:19.9730,1.0,0.48,-1.28,1.69
2022-11-15 21:15:19.9730,0.92,-0.21,-1.39,1.68
2022-11-15 21:15:19.9880,0.84,-0.96,-0.71,1.45
2022-11-15 21:15:19.9880,0.68,-1.72,0.71,1.98
2022-11-15 21:15:20.0040,0.25,-2.36,2.32,3.31
2022-11-15 21:15:20.0040,-0.79,-2.59,3.37,4.32
2022-11-15 21:15:20.0200,-2.2,-2.08,3.34,4.5
2022-11-15 21:15:20.0200,-3.06,-1.02,2.66,4.18
2022-11-15 21:15:20.0360,-3.28,0.03,1.95,3.81
2022-11-15 21:15:20.0370,-3.11,0.92,1.32,3.5
2022-11-15 21:15:20.0890,-2.62,1.65,0.69,3.17
2022-11-15 21:15:20.0900,-2.13,2.36,0.21,3.18
2022-11-15 21:15:20.1040,-1.8,3.04,-0.07,3.53
2022-11-15 21:15:20.1050,-1.63,3.34,-0.31,3.72
2022-11-15 21:15:20.1200,-1.64,2.83,-0.36,3.29
2022-11-15 21:15:20.1210,-1.54,1.85,-0.74,2.51
2022-11-15 21:15:20.1360,-1.59,0.61,-1.43,2.22
2022-11-15 21:15:20.1370,-2.15,-1.16,-1.65,2.94
2022-11-15 21:15:20.1520,-3.12,-3.65,-1.08,4.92
2022-11-15 21:15:20.1530,-3.6,-6.68,-0.19,7.59
2022-11-15 21:15:20.2050,-3.1,-8.5,-0.63,9.06
2022-11-15 21:15:20.2060,-1.65,-7.65,-1.95,8.06
2022-11-15 21:15:20.2210,0.17,-4.85,-2.91,5.65
2022-11-15 21:15:20.2220,1.38,-1.95,-3.56,4.28
2022-11-15 21:15:20.2370,1.8,0.29,-3.97,4.36
2022-11-15 21:15:20.2370,1.81,1.96,-4.44,5.17
2022-11-15 21:15:20.2530,1.67,3.12,-5.12,6.22
2022-11-15 21:15:20.2540,1.49,3.78,-5.53,6.86
2022-11-15 21:15:20.2690,1.47,3.87,-5.66,7.01
2022-11-15 21:15:20.2700,1.31,3.63,-5.81,6.97
2022-11-15 21:15:20.3220,0.92,3.15,-5.96,6.8
2022-11-15 21:15:20.3230,0.15,2.3,-5.64,6.09
2022-11-15 21:15:20.3380,-0.83,1.03,-4.63,4.81
2022-11-15 21:15:20.3380,-1.51,-0.37,-3.14,3.5
2022-11-15 21:15:20.3540,-1.62,-1.71,-0.99,2.55
2022-11-15 21:15:20.3550,-1.22,-2.76,1.48,3.36
2022-11-15 21:15:20.3690,-0.76,-2.85,2.95,4.17
2022-11-15 21:15:20.3700,-0.4,-2.0,3.02,3.64
2022-11-15 21:15:20.3860,-0.13,-0.84,2.04,2.21
2022-11-15 21:15:20.3870,0.13,0.2,0.7,0.73
2022-11-15 21:15:20.4400,0.36,1.08,-0.63,1.3
2022-11-15 21:15:20.4410,0.48,1.68,-1.74,2.46
2022-11-15 21:15:20.4540,0.51,1.92,-2.5,3.19
2022-11-15 21:15:20.4550,0.42,1.84,-2.73,3.31
2022-11-15 21:15:20.4700,0.27,1.59,-2.34,2.84
2022-11-15 21:15:20.4710,-0.06,1.29,-1.62,2.07
2022-11-15 21:15:20.4870,-0.52,1.07,-1.0,1.55
2022-11-15 21:15:20.4870,-1.12,0.92,-0.51,1.53
2022-11-15 21:15:20.5030,-1.8,0.91,-0.11,2.01
2022-11-15 21:15:20.5040,-2.58,0.9,0.29,2.74
2022-11-15 21:15:20.5560,-3.33,0.86,0.73,3.51
2022-11-15 21:15:20.5570,-3.94,0.82,1.2,4.19
2022-11-15 21:15:20.5710,-4.37,0.85,1.57,4.72
2022-11-15 21:15:20.5720,-4.75,1.0,1.74,5.15
2022-11-15 21:15:20.5870,-5.08,1.22,1.68,5.48
2022-11-15 21:15:20.5880,-5.22,1.42,1.43,5.59
2022-11-15 21:15:20.6030,-5.11,1.59,1.01,5.44
2022-11-15 21:15:20.6030,-4.5,1.66,0.44,4.81
2022-11-15 21:15:20.6190,-3.58,1.54,-0.22,3.9
2022-11-15 21:15:20.6200,-2.57,1.17,-0.96,2.98
2022-11-15 21:15:20.6720,-1.58,0.67,-1.68,2.4
2022-11-15 21:15:20.6730,-0.61,0.19,-2.29,2.37
2022-11-15 21:15:20.6880,0.27,-0.23,-2.82,2.84
2022-11-15 21:15:20.6880,0.99,-0.63,-3.21,3.41
2022-11-15 21:15:20.7030,1.65,-1.02,-3.25,3.78
2022-11-15 21:15:20.7040,2.2,-1.53,-2.77,3.85
2022-11-15 21:15:20.7190,2.64,-1.99,-1.73,3.73
2022-11-15 21:15:20.7190,2.64,-1.96,-0.43,3.31
2022-11-15 21:15:20.7350,1.64,-1.46,0.7,2.3
2022-11-15 21:15:20.7360,-0.14,-0.82,1.31,1.55
2022-11-15 21:15:20.7880,-1.77,-0.25,1.53,2.35
2022-11-15 21:15:20.7890,-2.98,0.27,1.57,3.37
2022-11-15 21:15:20.8030,-3.77,0.76,1.49,4.12
2022-11-15 21:15:20.8040,-4.22,1.14,1.3,4.56
2022-11-15 21:15:20.8200,-4.66,1.43,1.05,4.98
2022-11-15 21:15:20.8210,-5.23,1.55,0.89,5.52
2022-11-15 21:15:20.8360,-5.89,1.37,0.76,6.09
2022-11-15 21:15:20.8370,-6.41,0.91,0.58,6.5
2022-11-15 21:15:20.8530,-6.66,0.23,0.33,6.67
2022-11-15 21:15:20.8540,-5.99,-0.4,-0.05,6.0
2022-11-15 21:15:20.9070,-4.62,-0.73,-0.48,4.7
2022-11-15 21:15:20.9080,-3.41,-0.96,-0.83,3.63
2022-11-15 21:15:20.9210,-2.36,-1.03,-1.15,2.82
2022-11-15 21:15:20.9220,-1.41,-0.92,-1.52,2.26
2022-11-15 21:15:20.9370,-0.6,-0.72,-1.96,2.17
2022-11-15 21:15:20.9370,0.14,-0.52,-2.46,2.51
2022-11-15 21:15:20.9530,0.87,-0.34,-3.01,3.15
2022-11-15 21:15:20.9540,1.5,-0.23,-3.57,3.87
2022-11-15 21:15:20.9690,2.03,-0.16,-4.05,4.53
2022-11-15 21:15:20.9700,2.5,-0.17,-4.33,5.0
2022-11-15 21:15:21.0230,2.86,-0.32,-4.29,5.16
2022-11-15 21:15:21.0240,3.09,-0.7,-4.17,5.23
2022-11-15 21:15:21.0380,3.11,-1.42,-3.98,5.24
2022-11-15 21:15:21.0380,2.84,-2.54,-3.45,5.14
2022-11-15 21:15:21.0540,2.31,-4.0,-2.24,5.13
2022-11-15 21:15:21.0540,1.72,-5.01,-0.21,5.3
2022-11-15 21:15:21.0690,1.0,-4.68,2.19,5.26
2022-11-15 21:15:21.0700,0.34,-3.5,3.87,5.22
2022-11-15 21:15:21.0860,-0.11,-2.29,4.17,4.75
2022-11-15 21:15:21.0870,-0.05,-1.2,2.8,3.04
2022-11-15 21:15:21.1410,0.44,-0.11,0.95,1.05
2022-11-15 21:15:21.1410,0.83,0.83,-0.29,1.2
2022-11-15 21:15:21.1540,0.93,1.48,-1.05,2.03
2022-11-15 21:15:21.1550,0.82,1.93,-1.61,2.64
2022-11-15 21:15:21.1700,0.5,2.18,-2.1,3.06
2022-11-15 21:15:21.1710,0.02,2.29,-2.43,3.33
2022-11-15 21:15:21.1860,-0.59,2.17,-2.59,3.43
2022-11-15 21:15:21.1870,-1.27,1.96,-2.59,3.48
2022-11-15 21:15:21.2030,-1.92,1.69,-2.32,3.45
2022-11-15 21:15:21.2030,-2.35,1.35,-1.92,3.32
2022-11-15 21:15:21.2570,-2.51,0.85,-1.68,3.13
2022-11-15 21:15:21.2580,-2.32,0.19,-1.69,2.87
2022-11-15 21:15:21.2710,-1.73,-0.33,-1.78,2.5
2022-11-15 21:15:21.2720,-0.88,-0.47,-1.86,2.11
2022-11-15 21:15:21.2870,0.01,-0.23,-1.95,1.96
2022-11-15 21:15:21.2880,0.78,0.13,-2.04,2.18
2022-11-15 21:15:21.3030,1.34,0.47,-2.04,2.48
2022-11-15 21:15:21.3030,1.69,0.74,-1.99,2.71
2022-11-15 21:15:21.3190,1.79,0.86,-1.87,2.72
2022-11-15 21:15:21.3200,1.58,0.84,-1.75,2.5
2022-11-15 21:15:21.3740,1.22,0.75,-1.69,2.21
2022-11-15 21:15:21.3750,0.92,0.67,-1.61,1.97
2022-11-15 21:15:21.3880,0.68,0.54,-1.42,1.66
2022-11-15 21:15:21.3880,0.52,0.42,-1.08,1.27
2022-11-15 21:15:21.4030,0.4,0.37,-0.58,0.79
2022-11-15 21:15:21.4040,0.23,0.41,-0.04,0.47
2022-11-15 21:15:21.4190,-0.03,0.56,0.44,0.71
2022-11-15 21:15:21.4200,-0.38,0.79,0.91,1.26
2022-11-15 21:15:21.4360,-0.76,0.95,1.27,1.75
2022-11-15 21:15:21.4370,-1.22,0.98,1.3,2.03
2022-11-15 21:15:21.4910,-1.71,0.87,1.09,2.2
2022-11-15 21:15:21.4920,-2.23,0.62,0.74,2.43
2022-11-15 21:15:21.5040,-2.7,0.28,0.39,2.74
2022-11-15 21:15:21.5050,-3.12,-0.05,0.25,3.13
2022-11-15 21:15:21.5200,-3.45,-0.33,0.43,3.49
2022-11-15 21:15:21.5210,-3.53,-0.36,0.86,3.65
2022-11-15 21:15:21.5360,-3.16,-0.13,1.46,3.48
2022-11-15 21:15:21.5370,-2.56,0.21,1.98,3.24
2022-11-15 21:15:21.5530,-1.96,0.62,2.3,3.08
2022-11-15 21:15:21.5540,-1.48,1.1,2.43,3.05
2022-11-15 21:15:21.6080,-1.11,1.59,2.58,3.22
2022-11-15 21:15:21.6090,-0.94,1.97,2.73,3.49
2022-11-15 21:15:21.6210,-0.98,2.11,2.75,3.6
2022-11-15 21:15:21.6220,-1.21,1.86,2.55,3.38
2022-11-15 21:15:21.6370,-1.54,1.19,2.15,2.9
2022-11-15 21:15:21.6370,-2.07,-0.08,1.33,2.46
2022-11-15 21:15:21.6530,-3.01,-2.13,-0.2,3.69
2022-11-15 21:15:21.6530,-3.77,-4.19,-2.15,6.03
2022-11-15 21:15:21.6690,-3.92,-5.79,-4.16,8.13
2022-11-15 21:15:21.6700,-3.26,-6.63,-5.9,9.45
2022-11-15 21:15:21.7230,-2.69,-6.9,-7.13,10.28
2022-11-15 21:15:21.7240,-1.87,-5.83,-7.37,9.58
2022-11-15 21:15:21.7380,-0.61,-3.11,-6.16,6.92
2022-11-15 21:15:21.7380,1.09,-0.81,-4.12,4.33
2022-11-15 21:15:21.7540,2.67,0.86,-1.09,3.0
2022-11-15 21:15:21.7540,3.57,2.78,1.36,4.72
2022-11-15 21:15:21.7690,3.67,4.2,1.51,5.77
2022-11-15 21:15:21.7700,3.15,4.3,-0.65,5.36
2022-11-15 21:15:21.7860,2.4,3.4,-2.77,4.99
2022-11-15 21:15:21.7870,1.65,2.26,-4.01,4.88
2022-11-15 21:15:21.8400,1.11,1.56,-4.71,5.08
2022-11-15 21:15:21.8410,0.67,1.05,-5.23,5.37
2022-11-15 21:15:21.8550,0.15,0.67,-5.38,5.42
2022-11-15 21:15:21.8550,-0.41,0.52,-5.28,5.32
2022-11-15 21:15:21.8700,-0.92,0.42,-4.9,5.0
2022-11-15 21:15:21.8710,-1.3,0.18,-4.62,4.8
2022-11-15 21:15:21.8860,-1.61,-0.28,-4.22,4.52
2022-11-15 21:15:21.8870,-1.97,-0.92,-3.63,4.23
2022-11-15 21:15:21.9020,-2.48,-1.65,-2.52,3.9
2022-11-15 21:15:21.9030,-3.08,-2.17,-1.03,3.9
2022-11-15 21:15:21.9570,-3.35,-1.97,0.87,3.98
2022-11-15 21:15:21.9570,-3.15,-1.18,2.73,4.33
2022-11-15 21:15:21.9710,-2.28,-0.32,3.55,4.23
2022-11-15 21:15:21.9710,-1.14,0.21,2.93,3.15
2022-11-15 21:15:21.9870,-0.4,0.49,1.93,2.03
2022-11-15 21:15:21.9880,-0.01,0.77,0.81,1.11
2022-11-15 21:15:22.0020,0.23,0.98,-0.19,1.02
2022-11-15 21:15:22.0030,0.19,1.0,-0.95,1.39
2022-11-15 21:15:22.0190,0.0,0.8,-1.28,1.5
2022-11-15 21:15:22.0200,-0.21,0.5,-1.34,1.44
2022-11-15 21:15:22.0740,-0.37,0.25,-1.31,1.38
2022-11-15 21:15:22.0750,-0.42,0.1,-1.24,1.31
2022-11-15 21:15:22.0880,-0.53,0.02,-1.07,1.19
2022-11-15 21:15:22.0880,-0.73,0.02,-0.7,1.01
2022-11-15 21:15:22.1030,-1.06,0.3,-0.33,1.15
2022-11-15 21:15:22.1040,-1.54,0.79,-0.08,1.73
2022-11-15 21:15:22.1190,-2.03,1.21,0.06,2.36
2022-11-15 21:15:22.1200,-2.5,1.47,0.13,2.9
2022-11-15 21:15:22.1360,-2.91,1.51,0.09,3.27
2022-11-15 21:15:22.1370,-3.13,1.33,-0.06,3.4
2022-11-15 21:15:22.1890,-3.2,1.03,-0.21,3.36
2022-11-15 21:15:22.1900,-3.11,0.69,-0.29,3.19
2022-11-15 21:15:22.2050,-2.81,0.39,-0.3,2.85
2022-11-15 21:15:22.2050,-2.37,0.13,-0.2,2.38
2022-11-15 21:15:22.2200,-1.96,-0.14,-0.03,1.96
2022-11-15 21:15:22.2210,-1.62,-0.33,0.18,1.66
2022-11-15 21:15:22.2360,-1.33,-0.36,0.41,1.43
2022-11-15 21:15:22.2370,-1.06,-0.3,0.67,1.28
2022-11-15 21:15:22.2530,-0.89,-0.15,0.84,1.23
2022-11-15 21:15:22.2540,-0.86,0.09,0.79,1.17
2022-11-15 21:15:22.3080,-1.01,0.4,0.46,1.17
2022-11-15 21:15:22.3080,-1.29,0.82,-0.03,1.52
2022-11-15 21:15:22.3210,-1.6,1.31,-0.49,2.12
2022-11-15 21:15:22.3210,-1.91,1.77,-0.77,2.71
2022-11-15 21:15:22.3370,-2.24,2.07,-0.81,3.15
2022-11-15 21:15:22.3370,-2.61,2.15,-0.65,3.44
2022-11-15 21:15:22.3530,-3.05,1.96,-0.34,3.64
2022-11-15 21:15:22.3540,-3.41,1.46,0.03,3.7
2022-11-15 21:15:22.3700,-3.58,0.77,0.3,3.67
2022-11-15 21:15:22.3700,-3.63,0.0,0.38,3.64
2022-11-15 21:15:22.4230,-3.72,-0.78,0.29,3.81
2022-11-15 21:15:22.4240,-3.86,-1.47,0.13,4.13
2022-11-15 21:15:22.4370,-3.84,-1.9,-0.08,4.28
2022-11-15 21:15:22.4380,-3.56,-2.04,-0.27,4.11
2022-11-15 21:15:22.4530,-3.01,-2.02,-0.42,3.64
2022-11-15 21:15:22.4540,-2.22,-1.87,-0.54,2.95
2022-11-15 21:15:22.4690,-1.36,-1.62,-0.83,2.27
2022-11-15 21:15:22.4700,-0.74,-1.44,-1.35,2.1
2022-11-15 21:15:22.4860,-0.24,-1.2,-1.85,2.21
2022-11-15 21:15:22.4870,0.29,-0.85,-2.2,2.37
2022-11-15 21:15:22.5400,0.74,-0.54,-2.5,2.66
2022-11-15 21:15:22.5410,1.13,-0.25,-2.75,2.98
2022-11-15 21:15:22.5540,1.44,-0.06,-2.84,3.18
2022-11-15 21:15:22.5550,1.6,-0.04,-2.9,3.31
2022-11-15 21:15:22.5700,1.65,-0.25,-2.85,3.3
2022-11-15 21:15:22.5710,1.55,-0.69,-2.72,3.2
2022-11-15 21:15:22.5860,1.22,-1.25,-2.4,2.96
2022-11-15 21:15:22.5870,0.61,-1.73,-1.81,2.57
2022-11-15 21:15:22.6020,-0.15,-2.0,-0.98,2.23
2022-11-15 21:15:22.6030,-0.83,-2.0,0.06,2.16
2022-11-15 21:15:22.6560,-1.33,-1.77,1.15,2.49
2022-11-15 21:15:22.6570,-1.59,-1.47,2.03,2.96
2022-11-15 21:15:22.6710,-1.56,-1.01,2.62,3.21
2022-11-15 21:15:22.6720,-1.23,-0.19,2.56,2.84
2022-11-15 21:15:22.6870,-0.62,0.82,1.71,1.99
2022-11-15 21:15:22.6880,-0.06,1.53,0.64,1.65
2022-11-15 21:15:22.7030,0.23,1.89,-0.19,1.91
2022-11-15 21:15:22.7040,0.2,1.96,-0.97,2.19
2022-11-15 21:15:22.7200,-0.02,1.78,-1.67,2.44
2022-11-15 21:15:22.7200,-0.3,1.53,-2.2,2.69
2022-11-15 21:15:22.7740,-0.58,1.2,-2.64,2.95
2022-11-15 21:15:22.7750,-0.88,0.82,-3.03,3.26
2022-11-15 21:15:22.7880,-1.15,0.42,-3.3,3.51
2022-11-15 21:15:22.7880,-1.34,0.06,-3.41,3.66
2022-11-15 21:15:22.8030,-1.45,-0.23,-3.36,3.66
2022-11-15 21:15:22.8040,-1.41,-0.4,-3.16,3.48
2022-11-15 21:15:22.8190,-1.05,-0.51,-2.84,3.07
2022-11-15 21:15:22.8200,-0.41,-0.51,-2.37,2.45
2022-11-15 21:15:22.8360,0.4,-0.27,-1.82,1.88
2022-11-15 21:15:22.8370,1.31,0.14,-1.15,1.74
2022-11-15 21:15:22.8910,2.14,0.56,-0.36,2.24
2022-11-15 21:15:22.8920,2.82,0.98,0.54,3.03
2022-11-15 21:15:22.9040,3.12,1.29,1.31,3.62
2022-11-15 21:15:22.9050,2.83,1.39,1.69,3.57
2022-11-15 21:15:22.9200,2.26,1.37,1.8,3.19
2022-11-15 21:15:22.9210,1.65,1.41,1.96,2.92
2022-11-15 21:15:22.9360,1.04,1.47,2.2,2.84
2022-11-15 21:15:22.9370,0.41,1.48,2.24,2.71
2022-11-15 21:15:22.9530,-0.23,1.36,1.9,2.34
2022-11-15 21:15:22.9530,-0.9,1.1,1.53,2.08
2022-11-15 21:15:23.0080,-1.76,0.79,1.25,2.29
2022-11-15 21:15:23.0080,-2.57,0.5,1.18,2.87
2022-11-15 21:15:23.0210,-3.27,0.37,1.24,3.51
2022-11-15 21:15:23.0210,-3.91,0.44,1.19,4.11
2022-11-15 21:15:23.0370,-4.3,0.48,0.85,4.4
2022-11-15 21:15:23.0380,-4.22,0.56,0.19,4.26
2022-11-15 21:15:23.0530,-3.67,0.77,-0.35,3.76
2022-11-15 21:15:23.0530,-2.79,1.04,-0.51,3.02
2022-11-15 21:15:23.0690,-1.74,1.01,-0.43,2.05
2022-11-15 21:15:23.0700,-1.21,0.31,-0.58,1.37
2022-11-15 21:15:23.1240,-1.43,-0.8,-1.12,1.98
2022-11-15 21:15:23.1240,-1.83,-2.03,-1.5,3.11
2022-11-15 21:15:23.1370,-2.19,-3.49,-1.63,4.43
2022-11-15 21:15:23.1380,-2.11,-4.9,-1.71,5.6
2022-11-15 21:15:23.1530,-1.05,-5.72,-1.95,6.13
2022-11-15 21:15:23.1540,0.46,-5.23,-2.35,5.75
2022-11-15 21:15:23.1690,1.92,-3.6,-2.4,4.73
2022-11-15 21:15:23.1700,3.0,-2.01,-1.88,4.07
2022-11-15 21:15:23.1860,3.61,-0.8,-1.3,3.91
2022-11-15 21:15:23.1870,3.84,0.51,-1.29,4.08
2022-11-15 21:15:23.2400,3.71,1.64,-1.92,4.48
2022-11-15 21:15:23.2410,3.38,2.32,-2.62,4.86
2022-11-15 21:15:23.2540,3.05,2.51,-3.21,5.08
2022-11-15 21:15:23.2550,2.66,2.0,-3.75,5.01
2022-11-15 21:15:23.2700,2.35,1.48,-4.19,5.02
2022-11-15 21:15:23.2710,2.17,1.26,-4.39,5.05
2022-11-15 21:15:23.2860,1.98,1.04,-4.2,4.75
2022-11-15 21:15:23.2870,1.6,0.4,-3.32,3.7
2022-11-15 21:15:23.3020,0.84,-0.72,-2.03,2.31
2022-11-15 21:15:23.3030,-0.08,-1.47,-0.66,1.61
2022-11-15 21:15:23.3580,-1.06,-1.66,0.52,2.03
2022-11-15 21:15:23.3590,-1.99,-1.34,1.27,2.71
2022-11-15 21:15:23.3730,-2.65,-0.73,1.43,3.09
2022-11-15 21:15:23.3730,-2.89,-0.11,1.15,3.11
2022-11-15 21:15:23.3870,-2.9,0.48,0.78,3.04
2022-11-15 21:15:23.3880,-2.8,0.95,0.31,2.97
2022-11-15 21:15:23.4030,-2.61,1.29,-0.24,2.92
2022-11-15 21:15:23.4030,-2.29,1.43,-0.9,2.84
2022-11-15 21:15:23.4200,-1.56,1.31,-1.58,2.57
2022-11-15 21:15:23.4200,-0.66,0.9,-2.08,2.36
2022-11-15 21:15:23.4740,0.03,0.41,-2.23,2.26
2022-11-15 21:15:23.4750,0.35,-0.05,-1.86,1.89
2022-11-15 21:15:23.4870,0.31,-0.38,-1.09,1.19
2022-11-15 21:15:23.4880,0.12,-0.46,-0.22,0.52
2022-11-15 21:15:23.5030,-0.06,-0.24,0.38,0.45
2022-11-15 21:15:23.5040,-0.27,0.12,0.53,0.6
2022-11-15 21:15:23.5190,-0.5,0.45,0.37,0.76
2022-11-15 21:15:23.5200,-0.68,0.73,0.12,1.0
2022-11-15 21:15:23.5360,-0.77,0.93,-0.16,1.21
2022-11-15 21:15:23.5370,-0.84,1.02,-0.38,1.37
2022-11-15 21:15:23.5920,-0.91,0.97,-0.46,1.4
2022-11-15 21:15:23.5920,-0.93,0.8,-0.42,1.29
2022-11-15 21:15:23.6040,-0.9,0.6,-0.27,1.11
2022-11-15 21:15:23.6050,-0.82,0.52,-0.1,0.97
2022-11-15 21:15:23.6200,-0.67,0.59,0.09,0.89
2022-11-15 21:15:23.6210,-0.49,0.78,0.27,0.95
2022-11-15 21:15:23.6360,-0.35,1.04,0.38,1.16
2022-11-15 21:15:23.6360,-0.27,1.27,0.38,1.35
2022-11-15 21:15:23.6530,-0.3,1.4,0.3,1.46
2022-11-15 21:15:23.6530,-0.47,1.36,0.25,1.46
2022-11-15 21:15:23.7080,-0.78,1.11,0.33,1.39
2022-11-15 21:15:23.7080,-1.2,0.65,0.56,1.47
2022-11-15 21:15:23.7210,-1.7,0.14,0.84,1.9
2022-11-15 21:15:23.7220,-2.17,-0.27,0.98,2.39
2022-11-15 21:15:23.7360,-2.6,-0.45,0.97,2.81
2022-11-15 21:15:23.7370,-2.92,-0.38,0.95,3.09
2022-11-15 21:15:23.7530,-3.14,-0.2,0.99,3.29
2022-11-15 21:15:23.7530,-3.26,0.13,1.11,3.44
2022-11-15 21:15:23.7690,-3.27,0.53,1.34,3.57
2022-11-15 21:15:23.7700,-3.2,0.8,1.46,3.6
2022-11-15 21:15:23.8250,-3.14,0.87,1.43,3.55
2022-11-15 21:15:23.8260,-3.23,0.62,1.17,3.49
2022-11-15 21:15:23.8370,-3.36,0.04,0.77,3.44
2022-11-15 21:15:23.8380,-3.06,-0.58,0.42,3.14
2022-11-15 21:15:23.8530,-2.25,-0.99,0.22,2.46
2022-11-15 21:15:23.8540,-1.49,-1.43,0.17,2.07
2022-11-15 21:15:23.8690,-0.73,-1.75,0.14,1.9
2022-11-15 21:15:23.8700,0.05,-1.96,-0.04,1.96
2022-11-15 21:15:23.8860,0.8,-2.03,-0.35,2.2
2022-11-15 21:15:23.8870,1.29,-1.96,-0.84,2.49
2022-11-15 21:15:23.9430,1.55,-1.99,-1.48,2.92
2022-11-15 21:15:23.9430,1.76,-2.01,-1.93,3.29
2022-11-15 21:15:23.9540,2.14,-1.86,-2.02,3.48
2022-11-15 21:15:23.9550,2.68,-1.56,-1.85,3.61
2022-11-15 21:15:23.9700,3.31,-1.09,-1.37,3.74
2022-11-15 21:15:23.9700,3.97,-0.57,-0.63,4.05
2022-11-15 21:15:23.9860,4.62,-0.23,0.32,4.63
2022-11-15 21:15:23.9870,5.18,-0.1,1.56,5.41
2022-11-15 21:15:24.0020,5.65,0.01,2.47,6.16
2022-11-15 21:15:24.0030,5.79,0.1,2.83,6.44
2022-11-15 21:15:24.0590,5.22,-0.14,2.57,5.82
2022-11-15 21:15:24.0600,3.39,-0.73,1.76,3.88
2022-11-15 21:15:24.0710,1.61,-1.22,0.8,2.17
2022-11-15 21:15:24.0710,0.72,-1.56,0.07,1.71
2022-11-15 21:15:24.0870,0.26,-1.94,-0.38,1.99
2022-11-15 21:15:24.0870,-0.11,-2.19,-0.43,2.23
2022-11-15 21:15:24.1020,-0.31,-2.06,-0.19,2.09
2022-11-15 21:15:24.1030,-0.23,-1.64,-0.06,1.65
2022-11-15 21:15:24.1190,0.02,-0.94,-0.08,0.94
2022-11-15 21:15:24.1200,0.29,-0.16,-0.28,0.43
2022-11-15 21:15:24.1760,0.52,0.53,-0.59,0.94
2022-11-15 21:15:24.1770,0.67,0.99,-0.93,1.51
2022-11-15 21:15:24.1870,0.77,1.15,-1.22,1.84
2022-11-15 21:15:24.1880,0.88,1.1,-1.42,2.0
2022-11-15 21:15:24.2030,1.02,0.94,-1.54,2.07
2022-11-15 21:15:24.2040,1.23,0.8,-1.57,2.14
2022-11-15 21:15:24.2190,1.47,0.69,-1.5,2.21
2022-11-15 21:15:24.2200,1.69,0.55,-1.25,2.17
2022-11-15 21:15:24.2360,1.86,0.49,-0.74,2.06
2022-11-15 21:15:24.2360,1.97,0.54,0.06,2.04
2022-11-15 21:15:24.2930,1.99,0.72,0.82,2.26
2022-11-15 21:15:24.2940,1.8,0.82,1.13,2.27
2022-11-15 21:15:24.3040,1.57,0.75,1.11,2.06
2022-11-15 21:15:24.3050,1.42,0.76,1.0,1.89
2022-11-15 21:15:24.3200,1.21,0.89,0.81,1.7
2022-11-15 21:15:24.3210,0.95,1.13,0.55,1.57
2022-11-15 21:15:24.3360,0.76,1.45,0.37,1.67
2022-11-15 21:15:24.3360,0.62,1.72,0.21,1.84
2022-11-15 21:15:24.3530,0.53,1.9,0.03,1.97
2022-11-15 21:15:24.3540,0.47,2.0,-0.13,2.05
2022-11-15 21:15:24.4100,0.45,2.09,-0.29,2.15
2022-11-15 21:15:24.4100,0.41,2.11,-0.48,2.2
2022-11-15 21:15:24.4220,0.25,2.0,-0.71,2.13
2022-11-15 21:15:24.4220,-0.11,1.69,-0.51,1.76
2022-11-15 21:15:24.4370,-0.66,1.14,0.17,1.32
2022-11-15 21:15:24.4370,-1.11,0.39,1.21,1.68
2022-11-15 21:15:24.4530,-1.18,-0.25,2.45,2.73
2022-11-15 21:15:24.4530,-0.91,-0.82,3.4,3.61
2022-11-15 21:15:24.4690,-0.5,-1.37,3.71,3.98
2022-11-15 21:15:24.4700,-0.09,-1.72,3.39,3.8
2022-11-15 21:15:24.5260,0.24,-1.66,2.97,3.41
2022-11-15 21:15:24.5270,0.49,-1.27,2.78,3.09
2022-11-15 21:15:24.5370,0.64,-0.81,2.83,3.01
2022-11-15 21:15:24.5380,0.74,-0.56,3.07,3.2
2022-11-15 21:15:24.5530,0.86,-0.61,3.38,3.54
2022-11-15 21:15:24.5540,0.91,-0.75,3.5,3.69
2022-11-15 21:15:24.5690,0.77,-0.8,3.25,3.43
2022-11-15 21:15:24.5700,0.47,-0.81,2.85,2.99
2022-11-15 21:15:24.5860,0.1,-0.79,2.49,2.61
2022-11-15 21:15:24.5870,-0.27,-0.7,2.41,2.52
2022-11-15 21:15:24.6440,-0.56,-0.65,2.68,2.81
2022-11-15 21:15:24.6440,-0.78,-0.7,2.91,3.09
2022-11-15 21:15:24.6540,-0.94,-0.87,2.35,2.67
2022-11-15 21:15:24.6550,-1.05,-1.14,0.91,1.79
2022-11-15 21:15:24.6700,-0.95,-1.42,-0.65,1.82
2022-11-15 21:15:24.6700,-0.5,-1.68,-1.66,2.41
2022-11-15 21:15:24.6860,0.18,-1.72,-2.2,2.79
2022-11-15 21:15:24.6870,1.17,-1.38,-2.3,2.92
2022-11-15 21:15:24.7020,2.42,-0.72,-2.04,3.24
2022-11-15 21:15:24.7030,3.51,0.11,-1.67,3.88
2022-11-15 21:15:24.7600,4.22,0.96,-1.35,4.53
2022-11-15 21:15:24.7610,4.66,1.69,-1.07,5.07
2022-11-15 21:15:24.7700,4.74,2.12,-0.86,5.26
2022-11-15 21:15:24.7710,4.06,1.95,-0.79,4.57
2022-11-15 21:15:24.7870,2.8,1.16,-1.02,3.19
2022-11-15 21:15:24.7870,1.62,0.16,-1.48,2.2
2022-11-15 21:15:24.8020,0.83,-0.74,-1.87,2.17
2022-11-15 21:15:24.8030,0.34,-1.46,-2.12,2.59
2022-11-15 21:15:24.8190,-0.02,-2.16,-2.13,3.03
2022-11-15 21:15:24.8200,-0.21,-2.67,-1.71,3.17
2022-11-15 21:15:24.8770,-0.28,-2.68,-1.14,2.92
2022-11-15 21:15:24.8770,-0.21,-1.93,-0.7,2.06
2022-11-15 21:15:24.8880,0.05,-0.48,-0.54,0.72
2022-11-15 21:15:24.8880,0.35,0.74,-0.82,1.15
2022-11-15 21:15:24.9030,0.51,1.51,-1.12,1.94
2022-11-15 21:15:24.9040,0.4,2.0,-1.09,2.31
2022-11-15 21:15:24.9190,-0.07,2.32,-0.71,2.42
2022-11-15 21:15:24.9200,-0.66,2.39,-0.18,2.48
2022-11-15 21:15:24.9360,-1.16,2.31,0.31,2.6
2022-11-15 21:15:24.9360,-1.47,2.11,0.66,2.65
2022-11-15 21:15:24.9920,-1.57,1.94,0.79,2.61
2022-11-15 21:15:24.9930,-1.47,1.76,0.55,2.35
2022-11-15 21:15:25.0010,-1.34,1.5,0.29,2.03
2022-11-15 21:15:25.0020,-1.33,1.21,0.17,1.8
2022-11-15 21:15:25.0180,-1.29,0.93,0.17,1.59
2022-11-15 21:15:25.0190,-1.24,0.5,0.43,1.4
2022-11-15 21:15:25.0350,-1.19,0.05,0.87,1.47
2022-11-15 21:15:25.0350,-1.11,-0.21,1.3,1.72
2022-11-15 21:15:25.0520,-1.02,-0.23,1.61,1.91
2022-11-15 21:15:25.0520,-0.92,-0.04,1.85,2.06
2022-11-15 21:15:25.1080,-0.9,0.21,1.97,2.17
2022-11-15 21:15:25.1090,-0.94,0.36,2.13,2.35
2022-11-15 21:15:25.1210,-1.06,0.35,2.43,2.67
2022-11-15 21:15:25.1210,-1.2,0.14,2.8,3.04
2022-11-15 21:15:25.1370,-1.34,-0.21,3.13,3.41
2022-11-15 21:15:25.1370,-1.47,-0.56,3.15,3.52
2022-11-15 21:15:25.1520,-1.59,-0.95,2.82,3.37
2022-11-15 21:15:25.1530,-1.64,-1.19,2.25,3.02
2022-11-15 21:15:25.1690,-1.62,-1.17,1.69,2.61
2022-11-15 21:15:25.1700,-1.56,-0.99,1.48,2.36
2022-11-15 21:15:25.2250,-1.46,-0.7,1.65,2.31
2022-11-15 21:15:25.2260,-1.34,-0.42,2.11,2.53
2022-11-15 21:15:25.2370,-1.21,-0.28,2.59,2.87
2022-11-15 21:15:25.2380,-1.07,-0.27,2.83,3.03
2022-11-15 21:15:25.2530,-0.99,-0.38,2.74,2.93
2022-11-15 21:15:25.2540,-0.91,-0.48,2.51,2.71
2022-11-15 21:15:25.2690,-0.79,-0.55,2.39,2.57
2022-11-15 21:15:25.2700,-0.65,-0.71,2.24,2.43
2022-11-15 21:15:25.2860,-0.53,-0.94,1.77,2.07
2022-11-15 21:15:25.2870,-0.49,-1.19,0.88,1.55
2022-11-15 21:15:25.3420,-0.53,-1.48,-0.03,1.57
2022-11-15 21:15:25.3430,-0.53,-1.69,-0.54,1.85
2022-11-15 21:15:25.3540,-0.41,-1.47,-0.79,1.71
2022-11-15 21:15:25.3550,-0.04,-0.7,-1.0,1.22
2022-11-15 21:15:25.3700,0.48,0.09,-1.49,1.56
2022-11-15 21:15:25.3700,1.05,0.68,-2.01,2.36
2022-11-15 21:15:25.3860,1.59,0.92,-2.38,3.0
2022-11-15 21:15:25.3870,2.17,0.67,-2.46,3.34
2022-11-15 21:15:25.4020,2.63,-0.22,-2.25,3.46
2022-11-15 21:15:25.4030,2.81,-1.45,-1.59,3.53
2022-11-15 21:15:25.4590,2.63,-2.38,-0.4,3.56
2022-11-15 21:15:25.4600,1.97,-3.41,1.53,4.22
2022-11-15 21:15:25.4710,1.02,-4.55,2.99,5.53
2022-11-15 21:15:25.4710,0.12,-5.22,3.33,6.19
2022-11-15 21:15:25.4870,-0.62,-4.95,3.06,5.85
2022-11-15 21:15:25.4870,-1.06,-3.92,2.73,4.89
2022-11-15 21:15:25.5020,-1.25,-2.79,2.57,3.99
2022-11-15 21:15:25.5030,-1.19,-1.68,2.47,3.21
2022-11-15 21:15:25.5190,-0.96,-0.44,2.16,2.4
2022-11-15 21:15:25.5200,-0.64,0.89,1.54,1.89
2022-11-15 21:15:25.5770,-0.19,2.22,0.94,2.41
2022-11-15 21:15:25.5770,0.22,3.47,0.46,3.5
2022-11-15 21:15:25.5880,0.47,4.53,0.02,4.55
2022-11-15 21:15:25.5880,0.54,5.38,-0.3,5.41
2022-11-15 21:15:25.6030,0.46,6.02,-0.54,6.06
2022-11-15 21:15:25.6040,0.21,6.42,-0.78,6.47
2022-11-15 21:15:25.6190,-0.18,6.42,-0.97,6.49
2022-11-15 21:15:25.6200,-0.6,6.01,-1.12,6.14
2022-11-15 21:15:25.6360,-0.96,5.18,-1.23,5.4
2022-11-15 21:15:25.6360,-1.28,3.97,-1.26,4.35
2022-11-15 21:15:25.6930,-1.49,2.47,-1.27,3.15
2022-11-15 21:15:25.6940,-1.26,0.89,-1.23,1.97
2022-11-15 21:15:25.7040,-0.68,-0.51,-1.09,1.38
2022-11-15 21:15:25.7050,-0.16,-1.72,-1.01,2.0
2022-11-15 21:15:25.7200,0.31,-2.57,-1.09,2.8
2022-11-15 21:15:25.7210,1.02,-2.78,-1.28,3.22
2022-11-15 21:15:25.7360,2.1,-2.04,-1.29,3.19
2022-11-15 21:15:25.7360,3.27,-0.9,-1.13,3.57
2022-11-15 21:15:25.7530,4.18,0.16,-0.85,4.26
2022-11-15 21:15:25.7530,4.84,0.98,-0.35,4.95
2022-11-15 21:15:25.8100,5.19,1.65,0.44,5.46
2022-11-15 21:15:25.8110,4.53,2.0,1.63,5.21
2022-11-15 21:15:25.8210,2.56,1.81,2.84,4.23
2022-11-15 21:15:25.8210,-0.04,1.17,3.52,3.7
2022-11-15 21:15:25.8370,-2.12,0.36,3.86,4.41
2022-11-15 21:15:25.8370,-3.46,-0.5,4.01,5.31
2022-11-15 21:15:25.8520,-4.68,-1.49,4.34,6.55
2022-11-15 21:15:25.8530,-6.0,-2.31,4.94,8.1
2022-11-15 21:15:25.8690,-7.13,-2.37,5.14,9.1
2022-11-15 21:15:25.8700,-7.44,-1.36,4.44,8.77
2022-11-15 21:15:25.9260,-6.86,0.31,2.96,7.47
2022-11-15 21:15:25.9270,-6.25,1.51,1.46,6.59
2022-11-15 21:15:25.9370,-5.68,1.32,0.22,5.83
2022-11-15 21:15:25.9380,-4.7,0.16,-0.54,4.73
2022-11-15 21:15:25.9530,-3.81,-1.13,-1.15,4.13
2022-11-15 21:15:25.9540,-3.61,-2.76,-1.88,4.91
2022-11-15 21:15:25.9690,-3.48,-4.33,-2.73,6.18
2022-11-15 21:15:25.9700,-2.6,-5.13,-3.52,6.74
2022-11-15 21:15:25.9860,-0.58,-4.63,-4.27,6.32
2022-11-15 21:15:25.9870,1.72,-3.14,-4.98,6.13
2022-11-15 21:15:26.0430,3.5,-1.6,-5.6,6.79
2022-11-15 21:15:26.0430,4.75,-0.09,-5.87,7.55
2022-11-15 21:15:26.0540,5.34,1.22,-5.86,8.02
2022-11-15 21:15:26.0540,5.52,1.86,-5.8,8.22
2022-11-15 21:15:26.0700,5.46,2.0,-5.6,8.07
2022-11-15 21:15:26.0710,5.12,1.74,-5.1,7.43
2022-11-15 21:15:26.0860,4.61,1.07,-4.29,6.38
2022-11-15 21:15:26.0870,4.17,0.2,-2.46,4.84
2022-11-15 21:15:26.1020,3.51,-0.77,-0.36,3.61
2022-11-15 21:15:26.1030,2.53,-1.15,1.16,3.01
2022-11-15 21:15:26.1610,1.61,-0.67,2.09,2.72
2022-11-15 21:15:26.1610,0.95,0.29,1.9,2.14
2022-11-15 21:15:26.1700,0.56,1.22,1.12,1.74
2022-11-15 21:15:26.1710,0.26,1.92,0.36,1.97
2022-11-15 21:15:26.1870,0.01,2.25,-0.04,2.25
2022-11-15 21:15:26.1870,-0.35,2.38,-0.32,2.42
2022-11-15 21:15:26.2020,-0.78,2.42,-0.67,2.62
2022-11-15 21:15:26.2030,-1.16,2.27,-1.25,2.83
2022-11-15 21:15:26.2190,-1.38,1.99,-1.88,3.06
2022-11-15 21:15:26.2200,-1.46,1.8,-2.2,3.19
2022-11-15 21:15:26.2770,-1.49,1.63,-2.23,3.13
2022-11-15 21:15:26.2780,-1.46,1.42,-1.97,2.83
2022-11-15 21:15:26.2880,-1.34,1.16,-1.5,2.32
2022-11-15 21:15:26.2880,-1.2,0.97,-0.97,1.82
2022-11-15 21:15:26.3030,-1.08,0.86,-0.4,1.43
2022-11-15 21:15:26.3040,-0.96,0.74,0.18,1.22
2022-11-15 21:15:26.3190,-0.76,0.59,0.81,1.25
2022-11-15 21:15:26.3200,-0.48,0.34,1.35,1.47
2022-11-15 21:15:26.3350,-0.17,0.02,1.53,1.53
2022-11-15 21:15:26.3360,0.18,-0.24,1.37,1.4
2022-11-15 21:15:26.3950,0.51,-0.46,0.98,1.19
2022-11-15 21:15:26.3950,0.67,-0.6,0.55,1.05
2022-11-15 21:15:26.4030,0.59,-0.62,0.28,0.9
2022-11-15 21:15:26.4040,0.23,-0.55,0.35,0.69
2022-11-15 21:15:26.4200,-0.36,-0.52,0.7,0.94
2022-11-15 21:15:26.4210,-0.97,-0.47,1.14,1.56
2022-11-15 21:15:26.4360,-1.7,-0.44,1.59,2.36
2022-11-15 21:15:26.4360,-2.4,-0.38,1.79,3.01
2022-11-15 21:15:26.4520,-3.05,-0.18,1.69,3.49
2022-11-15 21:15:26.4530,-3.53,0.08,1.61,3.88
2022-11-15 21:15:26.5120,-3.78,0.32,1.75,4.17
2022-11-15 21:15:26.5130,-3.96,0.66,1.96,4.46
2022-11-15 21:15:26.5200,-4.13,0.97,2.01,4.69
2022-11-15 21:15:26.5210,-4.19,1.1,1.59,4.61
2022-11-15 21:15:26.5360,-4.18,0.89,0.88,4.36
2022-11-15 21:15:26.5370,-4.24,0.32,0.43,4.27
2022-11-15 21:15:26.5520,-4.33,-0.53,0.14,4.36
2022-11-15 21:15:26.5530,-4.31,-1.28,-0.12,4.49
2022-11-15 21:15:26.5690,-4.21,-1.51,-0.31,4.48
2022-11-15 21:15:26.5700,-3.69,-1.18,-0.45,3.9
2022-11-15 21:15:26.6280,-2.35,-0.74,-0.76,2.57
2022-11-15 21:15:26.6290,-0.6,-0.67,-1.33,1.6
2022-11-15 21:15:26.6360,0.65,-0.86,-1.98,2.25
2022-11-15 21:15:26.6370,1.45,-1.3,-2.38,3.07
2022-11-15 21:15:26.6530,2.11,-2.09,-2.14,3.66
2022-11-15 21:15:26.6540,2.73,-3.12,-1.65,4.46
2022-11-15 21:15:26.6690,3.29,-4.13,-1.45,5.47
2022-11-15 21:15:26.6700,3.76,-4.93,-1.4,6.35
2022-11-15 21:15:26.6860,4.14,-5.55,-0.99,6.99
2022-11-15 21:15:26.6860,4.48,-5.88,0.04,7.39
2022-11-15 21:15:26.7450,4.85,-5.8,1.29,7.66
2022-11-15 21:15:26.7450,4.98,-5.17,1.9,7.42
2022-11-15 21:15:26.7530,4.78,-3.93,1.94,6.48
2022-11-15 21:15:26.7540,3.97,-2.56,1.83,5.06
2022-11-15 21:15:26.7700,2.85,-1.37,1.38,3.45
2022-11-15 21:15:26.7710,2.0,-0.37,0.59,2.11
2022-11-15 21:15:26.7860,1.71,0.64,-0.25,1.84
2022-11-15 21:15:26.7860,1.72,1.64,-0.89,2.53
2022-11-15 21:15:26.8020,1.71,2.5,-1.34,3.31
2022-11-15 21:15:26.8030,1.64,3.15,-1.65,3.91
2022-11-15 21:15:26.8620,1.58,3.7,-1.85,4.42
2022-11-15 21:15:26.8630,1.49,4.07,-1.94,4.74
2022-11-15 21:15:26.8700,1.26,4.25,-1.9,4.82
2022-11-15 21:15:26.8700,0.9,4.07,-1.81,4.54
2022-11-15 21:15:26.8870,0.34,3.57,-1.7,3.96
2022-11-15 21:15:26.8870,-0.39,2.99,-1.55,3.39
2022-11-15 21:15:26.9020,-1.06,2.35,-1.29,2.88
2022-11-15 21:15:26.9030,-1.73,1.5,-0.81,2.42
2022-11-15 21:15:26.9190,-2.29,0.54,-0.1,2.35
2022-11-15 21:15:26.9200,-2.38,-0.31,0.58,2.46
2022-11-15 21:15:26.9800,-1.39,-0.57,0.99,1.79
2022-11-15 21:15:26.9800,0.26,0.0,0.99,1.02
2022-11-15 21:15:26.9860,1.73,0.83,0.65,2.02
2022-11-15 21:15:26.9860,2.65,1.5,0.03,3.04
2022-11-15 21:15:27.0030,3.19,2.06,-0.5,3.83
2022-11-15 21:15:27.0040,3.59,2.47,-0.67,4.4
2022-11-15 21:15:27.0190,3.65,2.56,-0.47,4.48
2022-11-15 21:15:27.0200,3.3,2.36,-0.12,4.05
2022-11-15 21:15:27.0360,2.85,2.0,0.02,3.48
2022-11-15 21:15:27.0360,2.31,1.54,0.23,2.78
2022-11-15 21:15:27.0970,1.67,0.84,0.91,2.07
2022-11-15 21:15:27.0980,0.6,-0.71,2.49,2.65
2022-11-15 21:15:27.1020,-0.9,-2.82,4.43,5.32
2022-11-15 21:15:27.1020,-2.66,-4.56,5.94,7.94
2022-11-15 21:15:27.1200,-4.28,-4.87,6.33,9.06
2022-11-15 21:15:27.1210,-5.21,-3.42,5.86,8.55
2022-11-15 21:15:27.1360,-5.37,-1.21,5.07,7.48
2022-11-15 21:15:27.1360,-5.3,0.75,3.89,6.61
2022-11-15 21:15:27.1520,-5.31,1.47,2.71,6.14
2022-11-15 21:15:27.1530,-4.99,0.73,1.45,5.24
2022-11-15 21:15:27.2130,-5.03,-1.13,0.28,5.16
2022-11-15 21:15:27.2140,-5.41,-3.53,-0.86,6.51
2022-11-15 21:15:27.2200,-5.24,-5.66,-2.16,8.0
2022-11-15 21:15:27.2210,-4.57,-6.89,-3.27,8.89
2022-11-15 21:15:27.2360,-2.93,-6.43,-4.5,8.37
2022-11-15 21:15:27.2370,-0.29,-4.28,-5.76,7.18
2022-11-15 21:15:27.2520,1.87,-2.01,-6.66,7.2
2022-11-15 21:15:27.2530,3.3,-0.09,-6.78,7.54
2022-11-15 21:15:27.2690,4.2,1.55,-6.3,7.72
2022-11-15 21:15:27.2700,4.74,2.83,-5.8,8.0
2022-11-15 21:15:27.3310,4.96,3.65,-5.34,8.15
2022-11-15 21:15:27.3320,5.03,3.97,-4.97,8.1
2022-11-15 21:15:27.3350,5.11,3.61,-4.79,7.87
2022-11-15 21:15:27.3530,4.61,2.09,-4.33,6.66
2022-11-15 21:15:27.3540,3.64,0.11,-3.32,4.92
2022-11-15 21:15:27.3690,2.78,-1.69,-1.7,3.67
2022-11-15 21:15:27.3700,2.08,-3.14,0.15,3.76
2022-11-15 21:15:27.3860,1.81,-3.7,1.53,4.39
2022-11-15 21:15:27.3860,2.11,-2.92,1.84,4.04
2022-11-15 21:15:27.4020,2.39,-1.76,1.11,3.16
2022-11-15 21:15:27.4670,2.33,-0.64,0.29,2.43
2022-11-15 21:15:27.4680,2.0,0.43,-0.41,2.08
2022-11-15 21:15:27.4890,1.35,1.25,-0.91,2.05
2022-11-15 21:15:27.4900,0.58,1.85,-1.18,2.26
2022-11-15 21:15:27.5040,-0.07,2.15,-1.37,2.55
2022-11-15 21:15:27.5040,-0.49,2.38,-1.55,2.88
2022-11-15 21:15:27.5190,-0.78,2.58,-1.72,3.19
2022-11-15 21:15:27.5200,-0.99,2.71,-1.77,3.38
2022-11-15 21:15:27.5360,-1.17,2.67,-1.69,3.36
2022-11-15 21:15:27.5370,-1.43,2.33,-1.42,3.08
2022-11-15 21:15:27.6010,-1.65,1.81,-0.99,2.64
2022-11-15 21:15:27.6020,-1.89,1.19,-0.46,2.28
2022-11-15 21:15:27.6210,-2.06,0.64,0.13,2.16
2022-11-15 21:15:27.6220,-2.27,0.29,0.7,2.39
2022-11-15 21:15:27.6370,-2.41,0.15,1.1,2.65
2022-11-15 21:15:27.6380,-2.25,0.25,1.21,2.56
2022-11-15 21:15:27.6520,-1.66,0.55,1.06,2.04
2022-11-15 21:15:27.6530,-0.97,0.75,0.82,1.47
2022-11-15 21:15:27.6690,-0.36,0.75,0.64,1.04
2022-11-15 21:15:27.6700,0.06,0.59,0.6,0.84
2022-11-15 21:15:27.7340,0.25,0.33,0.64,0.76
2022-11-15 21:15:27.7350,0.24,0.1,0.65,0.7
2022-11-15 21:15:27.7540,0.1,-0.06,0.5,0.51
2022-11-15 21:15:27.7550,-0.12,-0.17,0.27,0.34
2022-11-15 21:15:27.7700,-0.39,-0.2,0.08,0.44
2022-11-15 21:15:27.7700,-0.74,-0.14,0.08,0.75
2022-11-15 21:15:27.7860,-1.15,-0.04,0.25,1.17
2022-11-15 21:15:27.7860,-1.58,0.13,0.59,1.69
2022-11-15 21:15:27.8020,-1.94,0.3,0.98,2.19
2022-11-15 21:15:27.8030,-2.36,0.19,1.28,2.69
2022-11-15 21:15:27.8680,-2.71,0.06,1.41,3.05
2022-11-15 21:15:27.8680,-2.97,0.05,1.46,3.3
2022-11-15 21:15:27.8880,-3.23,0.15,1.51,3.56
2022-11-15 21:15:27.8890,-3.51,0.3,1.64,3.88
2022-11-15 21:15:27.9030,-3.7,0.45,1.85,4.16
2022-11-15 21:15:27.9040,-3.69,0.5,1.98,4.21
2022-11-15 21:15:27.9190,-3.56,0.44,1.98,4.09
2022-11-15 21:15:27.9190,-3.24,0.37,1.77,3.71
2022-11-15 21:15:27.9350,-2.51,0.32,1.36,2.87
2022-11-15 21:15:27.9360,-1.85,0.01,0.92,2.06
2022-11-15 21:15:28.0020,-1.61,-0.63,0.43,1.78
2022-11-15 21:15:28.0020,-1.34,-1.1,-0.07,1.73
2022-11-15 21:15:28.0210,-0.86,-1.31,-0.6,1.67
2022-11-15 21:15:28.0210,-0.26,-1.45,-1.23,1.91
2022-11-15 21:15:28.0370,0.22,-1.72,-2.06,2.69
2022-11-15 21:15:28.0370,0.58,-2.04,-2.89,3.58
2022-11-15 21:15:28.0520,0.99,-2.31,-3.36,4.19
2022-11-15 21:15:28.0530,1.42,-2.61,-3.57,4.64
2022-11-15 21:15:28.0690,1.76,-2.92,-3.53,4.9
2022-11-15 21:15:28.0700,1.99,-3.17,-3.35,5.02
2022-11-15 21:15:28.1360,2.06,-3.45,-3.13,5.09
2022-11-15 21:15:28.1370,2.01,-3.87,-2.66,5.1
2022-11-15 21:15:28.1540,1.86,-4.55,-1.9,5.26
2022-11-15 21:15:28.1550,1.77,-5.23,-0.44,5.53
2022-11-15 21:15:28.1700,1.85,-5.24,1.8,5.84
2022-11-15 21:15:28.1700,1.93,-4.5,4.24,6.47
2022-11-15 21:15:28.1860,1.79,-3.41,5.32,6.56
2022-11-15 21:15:28.1860,1.5,-2.25,4.28,5.06
2022-11-15 21:15:28.2020,1.43,-1.02,2.02,2.67
2022-11-15 21:15:28.2030,1.6,0.22,0.26,1.63
2022-11-15 21:15:28.2690,1.76,1.25,-0.86,2.32
2022-11-15 21:15:28.2700,1.85,2.13,-1.56,3.22
2022-11-15 21:15:28.2870,1.93,2.96,-2.02,4.07
2022-11-15 21:15:28.2880,1.95,3.64,-2.36,4.75
2022-11-15 21:15:28.3030,1.91,4.13,-2.53,5.2
2022-11-15 21:15:28.3040,1.63,4.34,-2.57,5.3
2022-11-15 21:15:28.3190,1.04,4.0,-2.44,4.79
2022-11-15 21:15:28.3200,0.25,3.26,-2.08,3.87
2022-11-15 21:15:28.3350,-0.5,2.52,-1.57,3.01
2022-11-15 21:15:28.3360,-1.01,1.85,-1.11,2.38
2022-11-15 21:15:28.4030,-1.28,1.31,-0.81,2.0
2022-11-15 21:15:28.4040,-1.29,0.96,-0.68,1.74
2022-11-15 21:15:28.4210,-0.93,0.83,-0.62,1.39
2022-11-15 21:15:28.4210,-0.08,0.98,-0.63,1.16
2022-11-15 21:15:28.4360,0.9,1.16,-0.82,1.68
2022-11-15 21:15:28.4370,1.67,1.16,-1.15,2.33
2022-11-15 21:15:28.4520,2.2,0.99,-1.44,2.8
2022-11-15 21:15:28.4530,2.51,0.73,-1.57,3.04
2022-11-15 21:15:28.4690,2.66,0.5,-1.49,3.08
2022-11-15 21:15:28.4700,2.72,0.36,-1.26,3.01
2022-11-15 21:15:28.5370,2.65,0.31,-0.95,2.83
2022-11-15 21:15:28.5380,2.41,0.39,-0.6,2.51
2022-11-15 21:15:28.5540,1.98,0.57,-0.12,2.06
2022-11-15 21:15:28.5550,1.38,0.81,0.35,1.63
2022-11-15 21:15:28.5700,0.64,0.98,0.7,1.36
2022-11-15 21:15:28.5710,-0.17,0.89,0.99,1.34
2022-11-15 21:15:28.5860,-0.93,0.3,1.17,1.52
2022-11-15 21:15:28.5860,-1.69,-0.62,1.18,2.15
2022-11-15 21:15:28.6020,-2.39,-1.47,1.09,3.01
2022-11-15 21:15:28.6030,-3.01,-2.03,1.05,3.77
2022-11-15 21:15:28.6710,-3.36,-2.07,1.05,4.08
2022-11-15 21:15:28.6720,-3.23,-1.61,1.19,3.8
2022-11-15 21:15:28.6870,-2.73,-0.91,1.37,3.18
2022-11-15 21:15:28.6880,-1.98,-0.13,1.53,2.5
2022-11-15 21:15:28.7040,-1.14,0.7,1.66,2.13
2022-11-15 21:15:28.7050,-0.38,1.53,1.76,2.36
2022-11-15 21:15:28.7190,0.2,2.24,1.94,2.97
2022-11-15 21:15:28.7200,0.58,2.71,2.31,3.6
2022-11-15 21:15:28.7350,0.88,2.59,2.83,3.93
2022-11-15 21:15:28.7360,1.03,1.37,3.08,3.52
2022-11-15 21:15:28.8040,1.02,-0.66,2.66,2.92
2022-11-15 21:15:28.8050,0.73,-3.08,1.85,3.66
2022-11-15 21:15:28.8210,0.45,-5.59,0.87,5.67
2022-11-15 21:15:28.8220,0.4,-7.65,-0.6,7.68
2022-11-15 21:15:28.8370,0.58,-8.91,-2.93,9.39
2022-11-15 21:15:28.8380,1.14,-9.32,-5.29,10.77
2022-11-15 21:15:28.8520,2.0,-8.6,-6.8,11.14
2022-11-15 21:15:28.8530,3.04,-6.84,-7.49,10.58
2022-11-15 21:15:28.8690,3.91,-4.72,-7.36,9.57
2022-11-15 21:15:28.8700,4.26,-2.5,-6.81,8.41
2022-11-15 21:15:28.9390,4.19,-0.55,-6.07,7.39
2022-11-15 21:15:28.9390,4.02,0.92,-5.14,6.58
2022-11-15 21:15:28.9540,3.9,2.12,-4.07,6.02
2022-11-15 21:15:28.9540,3.83,3.16,-3.1,5.85
2022-11-15 21:15:28.9700,3.82,3.95,-1.99,5.84
2022-11-15 21:15:28.9700,3.94,4.35,-0.76,5.91
2022-11-15 21:15:28.9850,4.22,4.12,0.15,5.89
2022-11-15 21:15:28.9860,4.25,2.93,0.48,5.18
2022-11-15 21:15:29.0020,3.98,0.84,0.58,4.1
2022-11-15 21:15:29.0030,3.31,-1.81,0.39,3.79
2022-11-15 21:15:29.0730,2.58,-3.55,0.23,4.39
2022-11-15 21:15:29.0740,1.77,-4.03,-0.34,4.41
2022-11-15 21:15:29.0870,0.76,-3.26,-1.37,3.61
2022-11-15 21:15:29.0880,-0.12,-1.8,-2.12,2.78
2022-11-15 21:15:29.1030,-0.54,-0.68,-2.35,2.5
2022-11-15 21:15:29.1040,-0.55,-0.23,-2.36,2.43
2022-11-15 21:15:29.1190,-0.57,-0.09,-2.41,2.47
2022-11-15 21:15:29.1190,-0.69,-0.07,-2.67,2.75
2022-11-15 21:15:29.1350,-0.55,-0.09,-3.05,3.1
2022-11-15 21:15:29.1360,-0.32,0.16,-3.09,3.11
2022-11-15 21:15:29.2070,-0.05,0.7,-2.71,2.79
2022-11-15 21:15:29.2070,0.06,1.11,-2.09,2.36
2022-11-15 21:15:29.2200,-0.23,1.14,-1.29,1.73
2022-11-15 21:15:29.2210,-0.8,0.78,-0.31,1.15
2022-11-15 21:15:29.2360,-1.51,0.2,0.87,1.75
2022-11-15 21:15:29.2370,-1.83,-0.26,1.56,2.41
2022-11-15 21:15:29.2520,-1.26,-0.35,1.08,1.69
2022-11-15 21:15:29.2530,-0.47,-0.42,0.29,0.69
2022-11-15 21:15:29.2690,0.18,-0.57,-0.27,0.65
2022-11-15 21:15:29.2700,0.81,-0.8,-0.66,1.31
2022-11-15 21:15:29.3410,1.43,-0.99,-0.88,1.94
2022-11-15 21:15:29.3410,1.97,-1.07,-0.95,2.43
2022-11-15 21:15:29.3540,2.28,-1.04,-0.88,2.65
2022-11-15 21:15:29.3540,2.4,-0.93,-0.85,2.71
2022-11-15 21:15:29.3700,2.38,-0.69,-1.01,2.67
2022-11-15 21:15:29.3710,2.19,-0.38,-1.35,2.6
2022-11-15 21:15:29.3860,1.87,-0.04,-1.55,2.42
2022-11-15 21:15:29.3860,1.42,0.2,-1.5,2.07
2022-11-15 21:15:29.4020,0.88,0.29,-1.27,1.57
2022-11-15 21:15:29.4030,0.32,0.3,-0.91,1.01
2022-11-15 21:15:29.4740,-0.22,0.33,-0.45,0.59
2022-11-15 21:15:29.4750,-0.68,0.38,-0.12,0.78
2022-11-15 21:15:29.4870,-1.02,0.39,-0.03,1.09
2022-11-15 21:15:29.4880,-1.26,0.36,-0.08,1.31
2022-11-15 21:15:29.5030,-1.45,0.3,-0.08,1.48
2022-11-15 21:15:29.5040,-1.64,0.21,0.02,1.65
2022-11-15 21:15:29.5190,-1.76,0.14,0.2,1.77
2022-11-15 21:15:29.5200,-1.64,0.09,0.37,1.68
2022-11-15 21:15:29.5350,-1.27,0.04,0.49,1.36
2022-11-15 21:15:29.5360,-0.88,-0.07,0.47,1.0
2022-11-15 21:15:29.6070,-0.55,-0.24,0.32,0.68
2022-11-15 21:15:29.6080,-0.26,-0.41,0.21,0.52
2022-11-15 21:15:29.6210,0.0,-0.61,0.2,0.64
2022-11-15 21:15:29.6210,0.21,-0.88,0.15,0.91
2022-11-15 21:15:29.6360,0.41,-1.22,-0.08,1.28
2022-11-15 21:15:29.6370,0.58,-1.57,-0.6,1.77
2022-11-15 21:15:29.6520,0.74,-1.81,-1.34,2.37
2022-11-15 21:15:29.6530,0.87,-1.94,-2.17,3.03
2022-11-15 21:15:29.6690,1.06,-1.92,-2.89,3.62
2022-11-15 21:15:29.6700,1.33,-1.69,-3.33,3.96
2022-11-15 21:15:29.7410,1.58,-1.39,-3.6,4.16
2022-11-15 21:15:29.7420,1.85,-1.03,-3.76,4.31
2022-11-15 21:15:29.7540,2.14,-0.46,-3.68,4.28
2022-11-15 21:15:29.7540,2.4,0.17,-3.36,4.13
2022-11-15 21:15:29.7700,2.61,0.68,-2.86,3.93
2022-11-15 21:15:29.7710,2.74,0.82,-2.21,3.61
2022-11-15 21:15:29.7860,2.73,0.52,-1.3,3.06
2022-11-15 21:15:29.7860,2.42,-0.19,-0.39,2.45
2022-11-15 21:15:29.8020,1.8,-1.05,0.27,2.1
2022-11-15 21:15:29.8030,1.07,-1.68,0.45,2.04
2022-11-15 21:15:29.8760,0.45,-1.91,0.13,1.96
2022-11-15 21:15:29.8760,-0.05,-1.94,-0.32,1.96
2022-11-15 21:15:29.8870,-0.36,-1.83,-0.68,1.98
2022-11-15 21:15:29.8870,-0.48,-1.44,-1.06,1.85
2022-11-15 21:15:29.9030,-0.37,-0.71,-1.32,1.54
2022-11-15 21:15:29.9040,-0.06,0.19,-1.51,1.52
2022-11-15 21:15:29.9190,0.2,0.9,-1.61,1.85
2022-11-15 21:15:29.9200,0.32,1.31,-1.73,2.19
2022-11-15 21:15:29.9350,0.37,1.5,-1.77,2.34
2022-11-15 21:15:29.9360,0.29,1.58,-1.71,2.34
2022-11-15 21:15:30.0090,0.08,1.61,-1.56,2.24
2022-11-15 21:15:30.0090,-0.23,1.61,-1.36,2.12
2022-11-15 21:15:30.0200,-0.65,1.54,-1.04,1.96
2022-11-15 21:15:30.0210,-1.01,1.44,-0.64,1.87
2022-11-15 21:15:30.0360,-1.35,1.28,-0.23,1.87
2022-11-15 21:15:30.0370,-1.73,1.11,0.27,2.07
2022-11-15 21:15:30.0520,-2.05,1.03,0.99,2.49
2022-11-15 21:15:30.0530,-2.25,1.27,2.05,3.29
2022-11-15 21:15:30.0690,-2.03,1.9,2.99,4.08
2022-11-15 21:15:30.0700,-1.26,2.51,2.86,4.0
2022-11-15 21:15:30.1430,-0.49,2.79,1.82,3.36
2022-11-15 21:15:30.1440,-0.1,2.82,0.88,2.95
2022-11-15 21:15:30.1540,0.02,2.73,0.29,2.74
2022-11-15 21:15:30.1540,-0.01,2.55,0.04,2.55
2022-11-15 21:15:30.1700,-0.13,2.24,0.15,2.24
2022-11-15 21:15:30.1700,-0.35,1.81,0.52,1.91
2022-11-15 21:15:30.1850,-0.54,1.37,1.13,1.85
2022-11-15 21:15:30.1860,-0.63,1.04,1.98,2.32
2022-11-15 21:15:30.2020,-0.59,0.9,3.09,3.27
2022-11-15 21:15:30.2030,-0.57,0.81,3.86,3.98
2022-11-15 21:15:30.2760,-0.91,0.53,3.66,3.8
2022-11-15 21:15:30.2760,-1.41,0.18,3.15,3.45
2022-11-15 21:15:30.2870,-1.44,0.16,3.03,3.35
2022-11-15 21:15:30.2880,-1.04,0.25,3.28,3.45
2022-11-15 21:15:30.3030,-0.42,0.32,3.48,3.51
2022-11-15 21:15:30.3040,0.07,0.41,3.02,3.04
2022-11-15 21:15:30.3190,0.3,0.25,2.12,2.15
2022-11-15 21:15:30.3200,0.32,-0.25,1.51,1.56
2022-11-15 21:15:30.3350,0.26,-1.17,1.17,1.67
2022-11-15 21:15:30.3360,0.19,-2.46,0.75,2.57
2022-11-15 21:15:30.4100,0.23,-3.61,0.22,3.62
2022-11-15 21:15:30.4110,0.4,-4.22,-0.37,4.25
2022-11-15 21:15:30.4200,0.78,-4.35,-1.03,4.53
2022-11-15 21:15:30.4210,1.37,-3.98,-1.63,4.51
2022-11-15 21:15:30.4360,2.0,-3.16,-1.99,4.23
2022-11-15 21:15:30.4370,2.51,-2.23,-2.03,3.92
2022-11-15 21:15:30.4520,2.73,-1.39,-1.85,3.57
2022-11-15 21:15:30.4530,2.51,-0.76,-1.56,3.05
2022-11-15 21:15:30.4690,2.04,-0.23,-1.19,2.37
2022-11-15 21:15:30.4700,1.7,0.32,-0.88,1.94
2022-11-15 21:15:30.5440,1.49,0.81,-0.7,1.83
2022-11-15 21:15:30.5450,1.34,1.11,-0.69,1.87
2022-11-15 21:15:30.5540,1.2,1.13,-0.83,1.84
2022-11-15 21:15:30.5540,0.98,1.0,-1.1,1.78
2022-11-15 21:15:30.5700,0.66,0.78,-1.48,1.79
2022-11-15 21:15:30.5700,0.23,0.48,-1.86,1.93
2022-11-15 21:15:30.5850,-0.2,0.19,-1.98,1.99
2022-11-15 21:15:30.5860,-0.64,0.01,-1.95,2.05
2022-11-15 21:15:30.6020,-1.08,-0.13,-1.82,2.12
2022-11-15 21:15:30.6030,-1.5,-0.18,-1.43,2.08
2022-11-15 21:15:30.6780,-1.87,-0.03,-0.83,2.04
2022-11-15 21:15:30.6790,-2.19,0.29,-0.02,2.2
2022-11-15 21:15:30.6870,-2.43,0.71,0.86,2.67
2022-11-15 21:15:30.6880,-2.58,1.07,1.61,3.22
2022-11-15 21:15:30.7030,-2.63,1.3,1.89,3.48
2022-11-15 21:15:30.7040,-2.53,1.43,1.84,3.43
2022-11-15 21:15:30.7190,-2.34,1.55,1.61,3.23
2022-11-15 21:15:30.7200,-2.15,1.62,1.27,2.97
2022-11-15 21:15:30.7350,-1.98,1.64,0.94,2.73
2022-11-15 21:15:30.7360,-1.78,1.61,0.68,2.49
2022-11-15 21:15:30.8110,-1.59,1.47,0.5,2.22
2022-11-15 21:15:30.8120,-1.43,1.35,0.44,2.01
2022-11-15 21:15:30.8210,-1.3,1.25,0.59,1.89
2022-11-15 21:15:30.8210,-1.18,1.05,0.92,1.82
2022-11-15 21:15:30.8360,-1.04,0.75,1.32,1.84
2022-11-15 21:15:30.8370,-0.94,0.4,1.77,2.04
2022-11-15 21:15:30.8520,-0.9,0.11,2.12,2.3
2022-11-15 21:15:30.8530,-0.84,-0.03,2.14,2.29
2022-11-15 21:15:30.8690,-0.77,0.0,2.04,2.18
2022-11-15 21:15:30.8690,-0.7,0.13,1.9,2.02
2022-11-15 21:15:30.9450,-0.71,0.34,1.71,1.88
2022-11-15 21:15:30.9450,-0.83,0.52,1.58,1.85
2022-11-15 21:15:30.9540,-0.99,0.66,1.6,1.99
2022-11-15 21:15:30.9540,-1.12,0.79,1.84,2.29
2022-11-15 21:15:30.9700,-1.26,0.88,1.98,2.5
2022-11-15 21:15:30.9700,-1.4,0.87,1.95,2.55
2022-11-15 21:15:30.9850,-1.56,0.8,1.9,2.58
2022-11-15 21:15:30.9860,-1.71,0.68,1.96,2.68
2022-11-15 21:15:31.0020,-1.9,0.48,2.15,2.9
2022-11-15 21:15:31.0030,-2.2,0.15,2.39,3.25
2022-11-15 21:15:31.0780,-2.5,-0.15,2.7,3.68
2022-11-15 21:15:31.0790,-2.77,-0.34,3.02,4.11
2022-11-15 21:15:31.0870,-2.95,-0.33,3.23,4.38
2022-11-15 21:15:31.0880,-3.02,-0.17,3.19,4.39
2022-11-15 21:15:31.1030,-3.0,0.02,2.98,4.22
2022-11-15 21:15:31.1040,-2.96,0.06,2.7,4.0
2022-11-15 21:15:31.1190,-3.02,-0.25,2.37,3.84
2022-11-15 21:15:31.1190,-3.14,-0.86,2.09,3.86
2022-11-15 21:15:31.1350,-3.23,-1.76,1.88,4.13
2022-11-15 21:15:31.1360,-3.05,-2.51,1.21,4.13
2022-11-15 21:15:31.2120,-2.64,-2.62,0.79,3.8
2022-11-15 21:15:31.2130,-1.92,-2.35,0.08,3.03
2022-11-15 21:15:31.2190,-1.02,-1.82,-0.56,2.16
2022-11-15 21:15:31.2200,-0.11,-1.27,-1.02,1.63
2022-11-15 21:15:31.2370,0.48,-0.92,-1.53,1.84
2022-11-15 21:15:31.2370,0.91,-0.64,-2.05,2.33
2022-11-15 21:15:31.2520,1.38,-0.37,-2.38,2.77
2022-11-15 21:15:31.2530,1.89,-0.13,-2.18,2.88
2022-11-15 21:15:31.2690,2.35,-0.2,-1.47,2.77
2022-11-15 21:15:31.2690,2.78,-0.98,-0.27,2.96
2022-11-15 21:15:31.3460,3.12,-2.1,1.46,4.03
2022-11-15 21:15:31.3470,3.49,-2.72,2.86,5.26
2022-11-15 21:15:31.3530,3.97,-2.53,3.77,6.03
2022-11-15 21:15:31.3540,4.13,-1.88,3.52,5.74
2022-11-15 21:15:31.3700,3.75,-1.15,2.09,4.44
2022-11-15 21:15:31.3700,2.9,-0.54,0.63,3.01
2022-11-15 21:15:31.3850,2.01,-0.19,-0.43,2.06
2022-11-15 21:15:31.3860,1.4,0.03,-0.98,1.7
2022-11-15 21:15:31.4020,0.94,0.17,-1.26,1.58
2022-11-15 21:15:31.4030,0.65,0.24,-1.23,1.41
2022-11-15 21:15:31.4790,0.44,0.34,-1.08,1.21
2022-11-15 21:15:31.4800,0.31,0.48,-1.06,1.2
2022-11-15 21:15:31.4840,0.31,0.73,-0.99,1.26
2022-11-15 21:15:31.4850,0.44,1.02,-0.96,1.46
2022-11-15 21:15:31.5030,0.64,1.37,-0.9,1.75
2022-11-15 21:15:31.5030,0.79,1.7,-0.86,2.06
2022-11-15 21:15:31.5190,0.84,1.89,-0.79,2.21
2022-11-15 21:15:31.5190,0.76,1.87,-0.71,2.13
2022-11-15 21:15:31.5350,0.57,1.64,-0.74,1.88
2022-11-15 21:15:31.5360,0.3,1.25,-0.78,1.5
2022-11-15 21:15:31.6130,-0.01,0.84,-0.72,1.1
2022-11-15 21:15:31.6140,-0.2,0.58,-0.54,0.81
2022-11-15 21:15:31.6180,-0.06,0.66,-0.33,0.74
2022-11-15 21:15:31.6190,0.57,1.18,-0.08,1.31
2022-11-15 21:15:31.6360,1.43,1.87,0.17,2.36
2022-11-15 21:15:31.6370,2.1,2.29,0.36,3.12
2022-11-15 21:15:31.6520,2.38,2.39,0.46,3.4
2022-11-15 21:15:31.6530,2.36,2.37,0.56,3.39
2022-11-15 21:15:31.6690,2.14,2.32,0.64,3.22
2022-11-15 21:15:31.6690,1.71,2.26,0.79,2.94
2022-11-15 21:15:31.7470,1.13,2.17,1.06,2.66
2022-11-15 21:15:31.7480,0.39,2.05,1.52,2.58
2022-11-15 21:15:31.7510,-0.45,1.85,2.14,2.86
2022-11-15 21:15:31.7700,-1.33,1.52,2.76,3.42
2022-11-15 21:15:31.7700,-2.2,1.03,3.4,4.17
2022-11-15 21:15:31.7850,-2.93,0.42,3.82,4.83
2022-11-15 21:15:31.7860,-3.47,-0.27,4.16,5.42
2022-11-15 21:15:31.8020,-4.07,-1.05,4.65,6.26
2022-11-15 21:15:31.8030,-4.73,-1.79,5.21,7.26
2022-11-15 21:15:31.8190,-5.22,-2.03,5.57,7.89
2022-11-15 21:15:31.9000,-5.04,-1.3,5.3,7.42
2022-11-15 21:15:31.9010,-4.33,-0.06,4.5,6.24
2022-11-15 21:15:31.9210,-3.72,0.87,3.93,5.48
2022-11-15 21:15:31.9220,-3.11,0.89,3.44,4.72
2022-11-15 21:15:31.9360,-2.34,-0.21,1.87,3.0
2022-11-15 21:15:31.9370,-2.08,-1.82,-0.4,2.79
2022-11-15 21:15:31.9520,-2.21,-3.4,-1.87,4.46
2022-11-15 21:15:31.9530,-2.26,-5.1,-2.89,6.28
2022-11-15 21:15:31.9690,-1.77,-6.38,-3.84,7.65
2022-11-15 21:15:31.9690,-0.53,-6.05,-4.47,7.54
2022-11-15 21:15:32.0500,1.38,-3.88,-4.35,5.99
2022-11-15 21:15:32.0510,2.95,-1.37,-3.33,4.65
2022-11-15 21:15:32.0710,3.83,0.63,-2.44,4.58
2022-11-15 21:15:32.0710,4.26,2.28,-2.27,5.33
2022-11-15 21:15:32.0860,4.32,3.61,-2.71,6.24
2022-11-15 21:15:32.0870,4.12,4.39,-3.29,6.86
2022-11-15 21:15:32.1020,3.64,4.39,-3.98,6.95
2022-11-15 21:15:32.1030,2.89,3.39,-4.5,6.33
2022-11-15 21:15:32.1190,2.21,2.05,-4.98,5.82
2022-11-15 21:15:32.1200,1.75,0.75,-5.23,5.56
2022-11-15 21:15:32.2010,1.34,-0.57,-5.31,5.5
2022-11-15 21:15:32.2020,0.91,-1.76,-5.03,5.4
2022-11-15 21:15:32.2210,0.3,-2.64,-4.18,4.95
2022-11-15 21:15:32.2220,-0.5,-3.15,-2.32,3.94
2022-11-15 21:15:32.2360,-1.15,-3.0,0.46,3.24
2022-11-15 21:15:32.2370,-1.47,-2.08,3.17,4.06
2022-11-15 21:15:32.2520,-1.86,-0.75,4.83,5.22
2022-11-15 21:15:32.2530,-2.08,0.58,4.2,4.72
2022-11-15 21:15:32.2690,-2.01,1.37,2.12,3.22
2022-11-15 21:15:32.2690,-1.87,1.72,-0.24,2.55
2022-11-15 21:15:32.3520,-1.71,2.05,-2.0,3.33
2022-11-15 21:15:32.3520,-1.41,2.52,-3.2,4.31
2022-11-15 21:15:32.3710,-0.8,2.93,-3.94,4.97
2022-11-15 21:15:32.3710,0.2,3.12,-4.33,5.34
2022-11-15 21:15:32.3860,1.21,2.95,-4.33,5.37
2022-11-15 21:15:32.3870,1.96,2.42,-3.71,4.84
2022-11-15 21:15:32.4020,2.27,1.55,-2.39,3.64
2022-11-15 21:15:32.4030,2.26,0.69,-0.56,2.42
2022-11-15 21:15:32.4190,2.05,0.12,1.33,2.44
2022-11-15 21:15:32.4200,1.66,-0.08,2.43,2.94
2022-11-15 21:15:32.5020,1.18,0.07,2.33,2.61
2022-11-15 21:15:32.5030,0.73,0.47,1.4,1.64
2022-11-15 21:15:32.5210,0.34,0.82,0.41,0.97
2022-11-15 21:15:32.5210,-0.07,0.98,-0.16,0.99
2022-11-15 21:15:32.5360,-0.56,0.82,-0.21,1.01
2022-11-15 21:15:32.5370,-1.12,0.42,0.15,1.2
2022-11-15 21:15:32.5520,-1.65,-0.06,0.65,1.77
2022-11-15 21:15:32.5530,-1.99,-0.46,0.93,2.24
2022-11-15 21:15:32.5690,-2.03,-0.7,0.9,2.32
2022-11-15 21:15:32.5700,-1.98,-0.82,0.66,2.24
2022-11-15 21:15:32.6530,-1.86,-0.87,0.58,2.13
2022-11-15 21:15:32.6530,-1.8,-0.82,0.97,2.2
2022-11-15 21:15:32.6710,-1.82,-0.7,1.63,2.54
2022-11-15 21:15:32.6720,-2.01,-0.54,2.34,3.13
2022-11-15 21:15:32.6860,-2.36,-0.35,2.8,3.67
2022-11-15 21:15:32.6870,-2.76,-0.03,2.84,3.96
2022-11-15 21:15:32.7020,-3.13,0.38,2.75,4.18
2022-11-15 21:15:32.7030,-3.42,0.69,2.81,4.47
2022-11-15 21:15:32.7190,-3.72,0.85,2.97,4.83
2022-11-15 21:15:32.7190,-4.06,0.81,2.91,5.06
2022-11-15 21:15:32.8030,-4.54,0.42,2.46,5.18
2022-11-15 21:15:32.8040,-5.07,-0.35,2.03,5.47
2022-11-15 21:15:32.8210,-5.7,-1.41,1.63,6.09
2022-11-15 21:15:32.8210,-6.16,-2.36,1.01,6.67
2022-11-15 21:15:32.8360,-6.05,-2.68,0.3,6.62
2022-11-15 21:15:32.8370,-4.77,-2.13,-0.21,5.22
2022-11-15 21:15:32.8520,-2.45,-1.26,-0.53,2.8
2022-11-15 21:15:32.8530,-0.66,-0.93,-1.09,1.57
2022-11-15 21:15:32.8690,0.42,-0.71,-2.04,2.2
2022-11-15 21:15:32.8700,1.25,-0.56,-3.02,3.31
2022-11-15 21:15:32.9540,2.01,-0.65,-3.68,4.24
2022-11-15 21:15:32.9540,2.75,-1.09,-3.77,4.79
2022-11-15 21:15:32.9710,3.43,-1.89,-3.23,5.07
2022-11-15 21:15:32.9710,3.83,-2.88,-2.47,5.39
2022-11-15 21:15:32.9860,4.11,-3.79,-1.81,5.87
2022-11-15 21:15:32.9870,4.37,-4.61,-0.68,6.38
2022-11-15 21:15:33.0020,4.68,-5.24,1.24,7.13
2022-11-15 21:15:33.0030,4.91,-5.46,3.34,8.06
2022-11-15 21:15:33.0190,4.77,-4.88,4.34,8.08
2022-11-15 21:15:33.0190,4.05,-3.72,3.71,6.63
2022-11-15 21:15:33.1040,2.76,-2.44,2.44,4.41
2022-11-15 21:15:33.1050,1.72,-1.29,1.3,2.51
2022-11-15 21:15:33.1210,1.39,-0.3,0.27,1.44
2022-11-15 21:15:33.1210,1.49,0.72,-0.81,1.84
2022-11-15 21:15:33.1360,1.6,1.63,-1.73,2.86
2022-11-15 21:15:33.1370,1.59,2.35,-2.26,3.62
2022-11-15 21:15:33.1520,1.57,2.94,-2.46,4.14
2022-11-15 21:15:33.1530,1.57,3.53,-2.48,4.59
2022-11-15 21:15:33.1690,1.53,3.99,-2.49,4.94
2022-11-15 21:15:33.1690,1.48,4.32,-2.42,5.16
2022-11-15 21:15:33.2540,1.38,4.51,-2.22,5.21
2022-11-15 21:15:33.2550,1.1,4.29,-2.17,4.93
2022-11-15 21:15:33.2710,0.57,3.6,-2.37,4.34
2022-11-15 21:15:33.2710,-0.12,2.62,-2.39,3.54
2022-11-15 21:15:33.2860,-0.88,1.53,-1.88,2.57
2022-11-15 21:15:33.2870,-1.69,0.44,-0.81,1.92
2022-11-15 21:15:33.3020,-2.1,-0.37,0.28,2.15
2022-11-15 21:15:33.3030,-1.47,-0.49,0.75,1.72
2022-11-15 21:15:33.3190,0.06,0.06,0.79,0.79
2022-11-15 21:15:33.3200,1.51,0.73,0.87,1.88
2022-11-15 21:15:33.4050,2.5,1.23,0.99,2.95
2022-11-15 21:15:33.4060,3.1,1.62,1.17,3.68
2022-11-15 21:15:33.4200,3.44,1.88,1.55,4.21
2022-11-15 21:15:33.4210,3.45,1.91,1.98,4.41
2022-11-15 21:15:33.4360,3.18,1.66,1.99,4.1
2022-11-15 21:15:33.4370,2.69,1.27,1.25,3.22
2022-11-15 21:15:33.4520,1.99,0.86,0.43,2.21
2022-11-15 21:15:33.4530,1.16,0.11,0.79,1.4
2022-11-15 21:15:33.4680,-0.25,-1.6,2.41,2.9
2022-11-15 21:15:33.4690,-2.06,-3.57,3.87,5.65
2022-11-15 21:15:33.5540,-4.12,-4.52,4.78,7.76
2022-11-15 21:15:33.5550,-5.65,-3.83,5.32,8.65
2022-11-15 21:15:33.5700,-6.1,-2.15,5.18,8.28
2022-11-15 21:15:33.5710,-5.93,-0.28,4.26,7.3
2022-11-15 21:15:33.5860,-5.57,1.15,3.14,6.49
2022-11-15 21:15:33.5870,-5.12,1.59,2.26,5.81
2022-11-15 21:15:33.6020,-4.54,0.66,1.11,4.72
2022-11-15 21:15:33.6030,-4.17,-1.23,-0.32,4.35
2022-11-15 21:15:33.6180,-4.04,-3.06,-1.45,5.27
2022-11-15 21:15:33.6190,-3.89,-4.62,-2.25,6.44
2022-11-15 21:15:33.7040,-2.94,-5.66,-3.07,7.07
2022-11-15 21:15:33.7050,-0.67,-5.07,-3.62,6.26
2022-11-15 21:15:33.7210,1.75,-3.44,-3.75,5.38
2022-11-15 21:15:33.7220,3.61,-2.1,-3.46,5.42
2022-11-15 21:15:33.7360,4.95,-0.87,-2.57,5.64
2022-11-15 21:15:33.7370,5.62,0.65,-2.1,6.03
2022-11-15 21:15:33.7520,5.69,2.18,-2.69,6.66
2022-11-15 21:15:33.7530,5.42,3.22,-3.77,7.34
2022-11-15 21:15:33.7690,5.1,3.74,-4.6,7.82
2022-11-15 21:15:33.7700,4.26,3.32,-5.23,7.51
2022-11-15 21:15:33.8530,2.95,2.13,-5.35,6.47
2022-11-15 21:15:33.8540,1.96,0.99,-4.97,5.43
2022-11-15 21:15:33.8710,1.15,-0.23,-4.57,4.71
2022-11-15 21:15:33.8710,0.41,-1.33,-3.93,4.16
2022-11-15 21:15:33.8850,-0.22,-2.12,-2.8,3.51
2022-11-15 21:15:33.8850,-0.35,-2.38,-1.1,2.64
2022-11-15 21:15:33.9020,0.4,-1.87,0.96,2.13
2022-11-15 21:15:33.9030,1.14,-1.0,2.33,2.78
2022-11-15 21:15:33.9190,1.55,0.13,2.28,2.76
2022-11-15 21:15:33.9190,1.45,1.55,1.32,2.49
2022-11-15 21:15:34.0040,0.82,2.57,0.06,2.69
2022-11-15 21:15:34.0050,-0.04,2.89,-1.04,3.07
2022-11-15 21:15:34.0210,-0.67,2.71,-1.59,3.21
2022-11-15 21:15:34.0210,-1.1,2.4,-1.9,3.25
2022-11-15 21:15:34.0360,-1.53,2.21,-1.83,3.25
2022-11-15 21:15:34.0370,-2.03,1.91,-1.6,3.21
2022-11-15 21:15:34.0520,-2.46,1.38,-1.04,3.0
2022-11-15 21:15:34.0530,-2.84,0.79,-0.27,2.96
2022-11-15 21:15:34.0680,-3.18,0.36,0.43,3.22
2022-11-15 21:15:34.0690,-3.33,0.14,0.93,3.46
2022-11-15 21:15:34.1540,-3.16,0.11,1.0,3.31
2022-11-15 21:15:34.1550,-2.56,0.29,0.73,2.67
2022-11-15 21:15:34.1700,-1.63,0.66,0.4,1.8
2022-11-15 21:15:34.1710,-0.64,1.05,0.21,1.24
2022-11-15 21:15:34.1860,0.24,1.29,0.31,1.34
2022-11-15 21:15:34.1870,0.92,1.31,0.71,1.75
2022-11-15 21:15:34.2020,1.31,1.15,1.3,2.17
2022-11-15 21:15:34.2030,1.36,0.83,1.74,2.35
2022-11-15 21:15:34.2180,1.09,0.49,1.65,2.03
2022-11-15 21:15:34.2190,0.55,0.25,1.12,1.27
2022-11-15 21:15:34.3030,-0.12,0.06,0.58,0.59
2022-11-15 21:15:34.3040,-0.82,-0.14,0.21,0.85
2022-11-15 21:15:34.3210,-1.52,-0.37,0.11,1.56
2022-11-15 21:15:34.3210,-2.15,-0.57,0.34,2.25
2022-11-15 21:15:34.3360,-2.55,-0.56,0.7,2.7
2022-11-15 21:15:34.3370,-2.92,-0.49,1.05,3.14
2022-11-15 21:15:34.3520,-3.26,-0.35,1.4,3.56
2022-11-15 21:15:34.3530,-3.47,-0.11,1.7,3.86
2022-11-15 21:15:34.3680,-3.58,0.09,2.04,4.12
2022-11-15 21:15:34.3690,-3.58,0.22,2.33,4.27
2022-11-15 21:15:34.4530,-3.55,0.21,2.3,4.23
2022-11-15 21:15:34.4540,-3.54,-0.02,1.93,4.03
2022-11-15 21:15:34.4700,-3.56,-0.52,1.48,3.89
2022-11-15 21:15:34.4710,-3.62,-1.21,1.03,3.95
2022-11-15 21:15:34.4860,-3.49,-1.72,0.36,3.9
2022-11-15 21:15:34.4870,-2.86,-1.74,-0.3,3.36
2022-11-15 21:15:34.5020,-1.87,-1.4,-0.81,2.47
2022-11-15 21:15:34.5030,-0.87,-1.18,-1.26,1.93
2022-11-15 21:15:34.5190,0.08,-1.19,-1.79,2.15
2022-11-15 21:15:34.5190,0.94,-1.16,-2.38,2.8
2022-11-15 21:15:34.6040,1.66,-1.17,-2.87,3.51
2022-11-15 21:15:34.6050,2.38,-1.37,-2.87,3.97
2022-11-15 21:15:34.6210,3.1,-1.77,-2.11,4.14
2022-11-15 21:15:34.6220,3.64,-2.28,-1.21,4.46
2022-11-15 21:15:34.6360,4.07,-2.86,-0.26,4.98
2022-11-15 21:15:34.6370,4.35,-3.37,0.76,5.55
2022-11-15 21:15:34.6510,4.55,-3.81,1.9,6.23
2022-11-15 21:15:34.6520,4.56,-4.17,2.63,6.71
2022-11-15 21:15:34.6690,3.98,-4.24,2.51,6.33
2022-11-15 21:15:34.6690,2.5,-3.77,1.81,4.87
2022-11-15 21:15:34.7540,1.19,-2.8,1.05,3.21
2022-11-15 21:15:34.7550,0.54,-1.85,0.43,1.97
2022-11-15 21:15:34.7700,0.17,-1.07,0.03,1.08
2022-11-15 21:15:34.7710,0.06,-0.29,-0.21,0.36
2022-11-15 21:15:34.7860,0.21,0.76,-0.48,0.92
2022-11-15 21:15:34.7870,0.56,2.07,-0.74,2.26
2022-11-15 21:15:34.8020,0.89,3.23,-0.93,3.47
2022-11-15 21:15:34.8030,1.03,3.97,-1.09,4.24
2022-11-15 21:15:34.8190,0.81,4.4,-1.18,4.62
2022-11-15 21:15:34.8190,0.35,4.43,-1.38,4.65
2022-11-15 21:15:34.9040,-0.24,4.11,-1.62,4.42
2022-11-15 21:15:34.9040,-0.79,3.6,-1.76,4.08
2022-11-15 21:15:34.9200,-1.22,2.83,-1.77,3.55
2022-11-15 21:15:34.9210,-1.53,1.67,-1.76,2.86
2022-11-15 21:15:34.9360,-1.29,0.47,-1.66,2.15
2022-11-15 21:15:34.9370,-0.53,-0.47,-1.56,1.71
2022-11-15 21:15:34.9520,0.34,-1.19,-1.4,1.86
2022-11-15 21:15:34.9530,1.09,-1.62,-1.22,2.3
2022-11-15 21:15:34.9680,1.89,-1.48,-1.09,2.63
2022-11-15 21:15:34.9690,2.83,-0.81,-0.98,3.1
2022-11-15 21:15:35.0540,3.61,-0.03,-0.87,3.71
2022-11-15 21:15:35.0550,4.18,0.67,-0.81,4.31
2022-11-15 21:15:35.0700,4.55,1.26,-0.74,4.77
2022-11-15 21:15:35.0710,4.39,1.69,-0.45,4.72
2022-11-15 21:15:35.0860,3.5,1.81,-0.02,3.94
2022-11-15 21:15:35.0870,2.56,1.73,0.27,3.1
2022-11-15 21:15:35.1020,1.65,1.55,0.44,2.3
2022-11-15 21:15:35.1030,0.72,1.28,0.74,1.64
2022-11-15 21:15:35.1180,-0.2,0.78,1.38,1.59
2022-11-15 21:15:35.1190,-1.25,0.03,2.34,2.65
2022-11-15 21:15:35.2030,-2.42,-0.74,3.4,4.23
2022-11-15 21:15:35.2030,-3.62,-1.31,4.25,5.73
2022-11-15 21:15:35.2200,-4.58,-1.41,4.74,6.74
2022-11-15 21:15:35.2210,-5.22,-1.03,4.69,7.09
2022-11-15 21:15:35.2360,-5.58,-0.36,4.3,7.05
2022-11-15 21:15:35.2370,-5.72,0.42,3.84,6.9
2022-11-15 21:15:35.2520,-5.73,1.06,3.28,6.68
2022-11-15 21:15:35.2530,-5.79,1.15,2.86,6.55
2022-11-15 21:15:35.2680,-5.73,0.3,2.24,6.15
2022-11-15 21:15:35.2690,-4.86,-1.39,0.89,5.13
2022-11-15 21:15:35.3520,-4.04,-3.19,-0.48,5.16
2022-11-15 21:15:35.3530,-3.59,-4.5,-1.36,5.91
2022-11-15 21:15:35.3710,-2.63,-5.24,-2.11,6.23
2022-11-15 21:15:35.3710,-0.99,-4.97,-3.2,5.99
2022-11-15 21:15:35.3860,0.98,-3.62,-4.05,5.51
2022-11-15 21:15:35.3870,2.64,-2.09,-4.25,5.42
2022-11-15 21:15:35.4020,3.96,-0.76,-4.24,5.85
2022-11-15 21:15:35.4020,4.93,0.46,-3.96,6.34
2022-11-15 21:15:35.4180,5.55,1.57,-3.7,6.85
2022-11-15 21:15:35.4190,5.76,2.48,-3.8,7.33
2022-11-15 21:15:35.5030,5.82,2.95,-4.29,7.8
2022-11-15 21:15:35.5040,5.71,2.74,-4.67,7.86
2022-11-15 21:15:35.5200,5.29,1.76,-4.77,7.33
2022-11-15 21:15:35.5210,4.52,0.44,-4.36,6.29
2022-11-15 21:15:35.5360,3.76,-0.68,-3.35,5.08
2022-11-15 21:15:35.5370,3.12,-1.54,-2.05,4.03
2022-11-15 21:15:35.5520,2.63,-1.97,-0.81,3.38
2022-11-15 21:15:35.5520,2.22,-1.95,0.08,2.95
2022-11-15 21:15:35.5690,1.88,-1.62,0.45,2.52
2022-11-15 21:15:35.5690,1.38,-0.98,0.49,1.76
2022-11-15 21:15:35.6530,0.67,-0.13,0.29,0.74
2022-11-15 21:15:35.6540,-0.15,0.77,-0.11,0.79
2022-11-15 21:15:35.6700,-0.81,1.53,-0.48,1.79
2022-11-15 21:15:35.6710,-1.16,2.03,-0.92,2.51
2022-11-15 21:15:35.6860,-1.25,2.29,-1.22,2.88
2022-11-15 21:15:35.6870,-1.37,2.41,-1.44,3.12
2022-11-15 21:15:35.7020,-1.57,2.41,-1.45,3.22
2022-11-15 21:15:35.7020,-1.74,2.23,-1.41,3.16
2022-11-15 21:15:35.7190,-1.92,1.99,-1.36,3.08
2022-11-15 21:15:35.7190,-2.08,1.67,-1.05,2.86
2022-11-15 21:15:35.8030,-2.19,1.31,-0.47,2.59
2022-11-15 21:15:35.8040,-2.27,0.89,0.28,2.45
2022-11-15 21:15:35.8200,-2.21,0.44,0.91,2.43
2022-11-15 21:15:35.8210,-1.87,0.09,1.29,2.27
2022-11-15 21:15:35.8360,-1.4,-0.15,1.37,1.96
2022-11-15 21:15:35.8370,-1.03,-0.33,1.26,1.66
2022-11-15 21:15:35.8520,-0.77,-0.37,1.07,1.36
2022-11-15 21:15:35.8530,-0.57,-0.3,0.98,1.17
2022-11-15 21:15:35.8690,-0.47,-0.18,1.13,1.23
2022-11-15 21:15:35.8690,-0.48,-0.05,1.48,1.55
2022-11-15 21:15:35.9540,-0.51,0.09,1.87,1.94
2022-11-15 21:15:35.9540,-0.5,0.17,1.99,2.05
2022-11-15 21:15:35.9700,-0.45,0.22,1.62,1.69
2022-11-15 21:15:35.9710,-0.37,0.28,0.86,0.97
2022-11-15 21:15:35.9860,-0.32,0.33,0.16,0.48
2022-11-15 21:15:35.9870,-0.3,0.37,-0.26,0.54
2022-11-15 21:15:36.0020,-0.53,0.31,-0.3,0.68
2022-11-15 21:15:36.0020,-0.89,0.2,-0.02,0.91
2022-11-15 21:15:36.0190,-1.41,0.08,0.47,1.48
2022-11-15 21:15:36.0190,-2.03,0.02,1.08,2.29
2022-11-15 21:15:36.1030,-2.53,0.13,1.64,3.01
2022-11-15 21:15:36.1040,-2.85,0.31,1.94,3.46
2022-11-15 21:15:36.1210,-3.02,0.49,2.08,3.69
2022-11-15 21:15:36.1220,-3.07,0.52,2.01,3.7
2022-11-15 21:15:36.1360,-3.05,0.22,1.68,3.48
2022-11-15 21:15:36.1370,-2.92,-0.38,1.21,3.18
2022-11-15 21:15:36.1520,-2.72,-1.12,0.77,3.04
2022-11-15 21:15:36.1520,-2.56,-1.79,0.33,3.14
2022-11-15 21:15:36.1680,-2.39,-2.14,-0.16,3.21
2022-11-15 21:15:36.1690,-2.11,-2.14,-0.62,3.06
2022-11-15 21:15:36.2510,-1.62,-1.83,-0.92,2.61
2022-11-15 21:15:36.2520,-0.71,-1.29,-1.17,1.88
2022-11-15 21:15:36.2710,0.32,-0.87,-1.51,1.77
2022-11-15 21:15:36.2720,1.11,-0.7,-1.89,2.3
2022-11-15 21:15:36.3030,1.61,-0.79,-2.29,2.9
2022-11-15 21:15:36.3030,2.08,-1.09,-2.72,3.59
2022-11-15 21:15:36.3180,2.55,-1.59,-2.98,4.23
2022-11-15 21:15:36.3190,3.04,-2.08,-2.85,4.65
2022-11-15 21:15:36.3350,3.43,-2.48,-2.4,4.86
2022-11-15 21:15:36.3360,3.78,-2.71,-1.48,4.88
2022-11-15 21:15:36.4190,4.07,-2.68,-0.21,4.87
2022-11-15 21:15:36.4200,4.33,-2.56,1.05,5.13
2022-11-15 21:15:36.4360,4.45,-2.42,2.27,5.55
2022-11-15 21:15:36.4370,4.01,-2.26,2.72,5.34
2022-11-15 21:15:36.4530,2.68,-2.02,2.35,4.09
2022-11-15 21:15:36.4530,1.38,-1.57,1.82,2.77
2022-11-15 21:15:36.4690,0.84,-0.9,1.23,1.74
2022-11-15 21:15:36.4700,0.58,-0.22,0.6,0.86
2022-11-15 21:15:36.4850,0.43,0.45,0.15,0.64
2022-11-15 21:15:36.4860,0.39,1.08,-0.19,1.16
2022-11-15 21:15:36.5670,0.44,1.69,-0.56,1.83
2022-11-15 21:15:36.5680,0.43,2.3,-0.7,2.44
2022-11-15 21:15:36.5870,0.33,2.75,-0.72,2.86
2022-11-15 21:15:36.5880,0.06,3.17,-0.81,3.27
2022-11-15 21:15:36.6020,-0.29,3.41,-0.99,3.56
2022-11-15 21:15:36.6030,-0.74,3.51,-1.27,3.8
2022-11-15 21:15:36.6190,-1.33,3.49,-1.47,4.01
2022-11-15 21:15:36.6200,-1.96,3.33,-1.46,4.13
2022-11-15 21:15:36.6350,-2.61,2.89,-1.22,4.08
2022-11-15 21:15:36.6360,-3.11,2.09,-0.83,3.83
2022-11-15 21:15:36.7170,-3.0,1.05,-0.53,3.22
2022-11-15 21:15:36.7180,-1.9,0.12,-0.34,1.93
2022-11-15 21:15:36.7370,-0.59,-0.44,-0.23,0.77
2022-11-15 21:15:36.7370,0.28,-0.69,-0.23,0.77
2022-11-15 21:15:36.7530,0.82,-0.66,-0.42,1.13
2022-11-15 21:15:36.7530,1.38,-0.34,-0.69,1.57
2022-11-15 21:15:36.7680,2.0,0.15,-0.78,2.15
2022-11-15 21:15:36.7690,2.58,0.64,-0.58,2.72
2022-11-15 21:15:36.7850,2.99,1.02,-0.12,3.16
2022-11-15 21:15:36.7860,3.04,1.29,0.51,3.34
2022-11-15 21:15:36.8670,2.44,1.49,0.95,3.01
2022-11-15 21:15:36.8680,1.47,1.65,0.96,2.4
2022-11-15 21:15:36.8880,0.54,1.61,0.75,1.85
2022-11-15 21:15:36.8880,-0.21,1.29,0.59,1.43
2022-11-15 21:15:36.9030,-0.79,0.6,0.84,1.29
2022-11-15 21:15:36.9030,-1.48,-0.68,1.7,2.35
2022-11-15 21:15:36.9180,-2.43,-2.17,2.9,4.36
2022-11-15 21:15:36.9190,-3.62,-3.1,3.86,6.13
2022-11-15 21:15:36.9350,-4.61,-2.75,4.31,6.88
2022-11-15 21:15:36.9360,-5.01,-1.43,4.38,6.8
2022-11-15 21:15:37.0170,-4.92,0.04,3.97,6.32
2022-11-15 21:15:37.0180,-4.49,1.23,3.1,5.59
2022-11-15 21:15:37.0370,-4.06,2.04,2.05,4.98
2022-11-15 21:15:37.0380,-3.82,2.3,1.24,4.62
2022-11-15 21:15:37.0530,-3.53,1.78,0.47,3.98
2022-11-15 21:15:37.0530,-3.02,0.78,-0.78,3.21
