time,ax,ay,az,atotal
2022-11-15 11:10:30.1250,3.22,2.79,2.14,4.76
2022-11-15 11:10:30.1270,2.05,1.74,3.25,4.21
2022-11-15 11:10:30.1370,0.78,0.24,4.18,4.25
2022-11-15 11:10:30.1390,-0.1,-1.07,4.39,4.51
2022-11-15 11:10:30.1540,-0.35,-1.85,3.66,4.11
2022-11-15 11:10:30.1560,-0.16,-2.05,2.33,3.1
2022-11-15 11:10:30.1690,0.29,-2.01,0.85,2.2
2022-11-15 11:10:30.1710,0.88,-1.73,-0.5,2.0
2022-11-15 11:10:30.1860,1.56,-1.26,-1.39,2.43
2022-11-15 11:10:30.1880,2.0,-0.95,-2.06,3.02
2022-11-15 11:10:30.2030,2.07,-0.79,-2.33,3.21
2022-11-15 11:10:30.2050,1.99,-0.7,-2.23,3.06
2022-11-15 11:10:30.2210,1.61,-0.78,-1.85,2.57
2022-11-15 11:10:30.2230,1.05,-0.99,-1.1,1.81
2022-11-15 11:10:30.2370,0.58,-1.07,-0.02,1.21
2022-11-15 11:10:30.2390,0.27,-0.97,0.88,1.33
2022-11-15 11:10:30.2540,0.03,-0.79,1.26,1.48
2022-11-15 11:10:30.2570,-0.04,-0.62,1.39,1.52
2022-11-15 11:10:30.2690,-0.03,-0.46,1.3,1.37
2022-11-15 11:10:30.2720,-0.19,-0.49,0.93,1.06
2022-11-15 11:10:30.2850,-0.37,-0.71,0.37,0.88
2022-11-15 11:10:30.2870,-0.53,-0.97,-0.36,1.16
2022-11-15 11:10:30.3050,-0.72,-1.17,-1.12,1.77
2022-11-15 11:10:30.3070,-0.71,-1.13,-1.83,2.26
2022-11-15 11:10:30.3210,-0.48,-1.02,-2.29,2.55
2022-11-15 11:10:30.3220,-0.21,-0.86,-2.52,2.67
2022-11-15 11:10:30.3370,0.0,-0.7,-2.48,2.57
2022-11-15 11:10:30.3400,0.19,-0.55,-2.24,2.31
2022-11-15 11:10:30.3520,0.3,-0.48,-1.88,1.96
2022-11-15 11:10:30.3550,0.2,-0.45,-1.65,1.72
2022-11-15 11:10:30.3680,0.19,-0.44,-1.61,1.67
2022-11-15 11:10:30.3700,0.1,-0.56,-1.48,1.58
2022-11-15 11:10:30.3880,-0.23,-0.69,-1.11,1.32
2022-11-15 11:10:30.3900,-0.45,-0.59,-0.72,1.03
2022-11-15 11:10:30.4050,-0.38,-0.33,-0.19,0.53
2022-11-15 11:10:30.4070,-0.2,-0.06,0.51,0.55
2022-11-15 11:10:30.4210,-0.16,0.15,0.96,0.98
2022-11-15 11:10:30.4230,-0.18,0.27,1.1,1.14
2022-11-15 11:10:30.4370,-0.11,0.31,1.17,1.21
2022-11-15 11:10:30.4400,-0.04,0.25,1.12,1.14
2022-11-15 11:10:30.4510,-0.04,0.08,1.09,1.09
2022-11-15 11:10:30.4530,-0.2,-0.19,1.08,1.11
2022-11-15 11:10:30.4710,-0.41,-0.41,1.1,1.24
2022-11-15 11:10:30.4730,-0.36,-0.29,1.26,1.34
2022-11-15 11:10:30.4870,-0.08,0.26,1.29,1.31
2022-11-15 11:10:30.4890,0.4,1.01,1.24,1.64
2022-11-15 11:10:30.5040,0.91,1.67,1.29,2.29
2022-11-15 11:10:30.5060,1.15,2.04,1.41,2.73
2022-11-15 11:10:30.5190,1.14,2.15,1.5,2.85
2022-11-15 11:10:30.5220,1.08,2.04,1.61,2.81
2022-11-15 11:10:30.5350,1.0,1.67,1.92,2.73
2022-11-15 11:10:30.5370,0.77,0.94,2.25,2.55
2022-11-15 11:10:30.5550,0.46,0.06,2.54,2.58
2022-11-15 11:10:30.5570,-0.05,-0.69,2.98,3.05
2022-11-15 11:10:30.5700,-0.56,-1.28,3.15,3.44
2022-11-15 11:10:30.5720,-0.83,-1.52,3.15,3.59
2022-11-15 11:10:30.5870,-0.96,-1.46,2.86,3.35
2022-11-15 11:10:30.5910,-1.01,-1.36,2.44,2.97
2022-11-15 11:10:30.6040,-1.0,-1.08,2.18,2.63
2022-11-15 11:10:30.6070,-0.87,-0.74,2.13,2.41
2022-11-15 11:10:30.6180,-0.82,-0.63,1.81,2.08
2022-11-15 11:10:30.6210,-0.94,-0.76,1.26,1.74
2022-11-15 11:10:30.6380,-1.03,-0.83,0.67,1.48
2022-11-15 11:10:30.6400,-0.95,-0.79,0.16,1.24
2022-11-15 11:10:30.6540,-0.73,-0.54,-0.25,0.94
2022-11-15 11:10:30.6560,-0.55,-0.21,-0.52,0.78
2022-11-15 11:10:30.6690,-0.55,-0.18,-0.57,0.81
2022-11-15 11:10:30.6720,-0.79,-0.5,-0.42,1.02
2022-11-15 11:10:30.6860,-1.11,-1.07,-0.32,1.57
2022-11-15 11:10:30.6890,-1.21,-1.48,-0.15,1.91
2022-11-15 11:10:30.7020,-1.12,-1.68,0.08,2.02
2022-11-15 11:10:30.7040,-1.01,-1.75,0.21,2.03
2022-11-15 11:10:30.7210,-0.98,-1.72,0.09,1.98
2022-11-15 11:10:30.7230,-1.17,-1.73,-0.1,2.09
2022-11-15 11:10:30.7380,-1.44,-1.78,-0.26,2.3
2022-11-15 11:10:30.7410,-1.61,-1.91,-0.45,2.53
2022-11-15 11:10:30.7530,-1.7,-2.13,-0.67,2.8
2022-11-15 11:10:30.7550,-1.67,-2.2,-0.99,2.93
2022-11-15 11:10:30.7690,-1.48,-2.07,-1.3,2.85
2022-11-15 11:10:30.7720,-1.19,-1.8,-1.66,2.72
2022-11-15 11:10:30.7850,-0.86,-1.29,-2.13,2.63
2022-11-15 11:10:30.7870,-0.57,-0.61,-2.38,2.52
2022-11-15 11:10:30.8050,-0.42,-0.02,-2.28,2.31
2022-11-15 11:10:30.8070,-0.36,0.26,-2.26,2.3
2022-11-15 11:10:30.8210,-0.39,0.54,-2.32,2.41
2022-11-15 11:10:30.8240,-0.33,0.74,-2.18,2.32
2022-11-15 11:10:30.8350,0.77,-0.69,-0.66,1.22
2022-11-15 11:10:30.8370,0.79,-0.48,-0.77,1.2
2022-11-15 11:10:30.8540,0.83,-0.17,-0.82,1.17
2022-11-15 11:10:30.8550,0.87,0.15,-0.8,1.19
2022-11-15 11:10:30.8700,0.77,0.23,-0.55,0.97
2022-11-15 11:10:30.8720,0.15,-0.06,-0.1,0.19
2022-11-15 11:10:30.8870,-0.45,-0.53,0.12,0.7
2022-11-15 11:10:30.8900,-0.57,-0.84,-0.01,1.01
2022-11-15 11:10:30.9020,-0.28,-0.7,-0.27,0.8
2022-11-15 11:10:30.9050,0.18,-0.37,-0.58,0.71
2022-11-15 11:10:30.9180,0.42,0.04,-0.84,0.94
2022-11-15 11:10:30.9200,0.24,0.54,-1.18,1.31
2022-11-15 11:10:30.9380,0.09,0.86,-1.64,1.85
2022-11-15 11:10:30.9400,0.23,1.05,-1.98,2.25
2022-11-15 11:10:30.9550,0.64,1.09,-2.34,2.65
2022-11-15 11:10:30.9580,0.99,1.06,-2.78,3.13
2022-11-15 11:10:30.9700,0.92,0.99,-2.81,3.11
2022-11-15 11:10:30.9710,0.36,0.71,-2.1,2.24
2022-11-15 11:10:30.9870,-0.3,0.27,-1.12,1.19
2022-11-15 11:10:30.9900,-0.8,-0.08,-0.09,0.8
2022-11-15 11:10:31.0020,-0.83,-0.37,0.73,1.16
2022-11-15 11:10:31.0040,-0.55,-0.25,0.55,0.81
2022-11-15 11:10:31.0210,-0.28,0.43,-0.38,0.63
2022-11-15 11:10:31.0230,0.23,1.15,-0.82,1.43
2022-11-15 11:10:31.0370,0.71,1.57,-1.03,2.0
2022-11-15 11:10:31.0390,1.06,1.76,-1.14,2.34
2022-11-15 11:10:31.0540,1.21,1.83,-1.12,2.46
2022-11-15 11:10:31.0560,1.21,1.71,-1.25,2.43
2022-11-15 11:10:31.0690,1.03,1.56,-1.4,2.33
2022-11-15 11:10:31.0710,0.67,1.41,-1.26,2.0
2022-11-15 11:10:31.0850,0.34,1.4,-0.63,1.57
2022-11-15 11:10:31.0870,0.14,1.44,0.52,1.53
2022-11-15 11:10:31.1050,0.07,1.34,1.83,2.26
2022-11-15 11:10:31.1070,0.02,1.22,2.61,2.88
2022-11-15 11:10:31.1210,-0.02,1.3,2.53,2.84
2022-11-15 11:10:31.1230,0.29,1.41,1.9,2.38
2022-11-15 11:10:31.1360,0.53,1.47,0.72,1.72
2022-11-15 11:10:31.1380,0.29,1.3,-0.35,1.37
2022-11-15 11:10:31.1530,0.05,1.07,-0.45,1.16
2022-11-15 11:10:31.1560,0.06,1.03,-0.05,1.03
2022-11-15 11:10:31.1680,0.29,1.23,0.46,1.34
2022-11-15 11:10:31.1700,0.39,1.5,0.62,1.66
2022-11-15 11:10:31.1880,0.31,1.7,0.48,1.79
2022-11-15 11:10:31.1900,0.22,1.82,0.22,1.84
2022-11-15 11:10:31.2040,0.37,1.94,0.13,1.97
2022-11-15 11:10:31.2050,0.38,1.82,0.43,1.9
2022-11-15 11:10:31.2200,0.31,1.32,1.07,1.72
2022-11-15 11:10:31.2220,0.27,0.66,1.43,1.59
2022-11-15 11:10:31.2370,0.23,0.15,1.45,1.47
2022-11-15 11:10:31.2400,0.17,-0.04,1.51,1.52
2022-11-15 11:10:31.2520,0.01,-0.23,1.36,1.37
2022-11-15 11:10:31.2540,0.18,-0.34,1.3,1.35
2022-11-15 11:10:31.2710,0.45,-0.29,1.71,1.79
2022-11-15 11:10:31.2730,0.35,-0.34,2.42,2.46
2022-11-15 11:10:31.2880,0.05,-0.49,2.95,2.99
2022-11-15 11:10:31.2910,-0.24,-0.61,3.04,3.1
2022-11-15 11:10:31.3020,-0.45,-0.76,2.89,3.02
2022-11-15 11:10:31.3050,-0.71,-1.09,2.46,2.78
2022-11-15 11:10:31.3200,-0.99,-1.52,1.69,2.47
2022-11-15 11:10:31.3230,-1.29,-1.77,0.78,2.32
2022-11-15 11:10:31.3350,-1.42,-1.76,0.0,2.26
2022-11-15 11:10:31.3370,-1.03,-1.76,-0.53,2.1
2022-11-15 11:10:31.3550,-0.95,-1.56,-0.95,2.05
2022-11-15 11:10:31.3560,-1.24,-1.25,-1.07,2.06
2022-11-15 11:10:31.3710,-1.64,-1.29,-0.94,2.28
2022-11-15 11:10:31.3740,-1.95,-1.38,-0.74,2.5
2022-11-15 11:10:31.3870,-2.15,-1.39,-0.42,2.59
2022-11-15 11:10:31.3900,-2.09,-1.28,-0.32,2.47
2022-11-15 11:10:31.4040,-1.86,-1.15,-0.21,2.19
2022-11-15 11:10:31.4060,-1.38,-1.19,-0.04,1.82
2022-11-15 11:10:31.4180,-0.85,-1.39,0.23,1.64
2022-11-15 11:10:31.4200,-0.5,-1.66,0.52,1.8
2022-11-15 11:10:31.4380,-0.77,-2.07,0.38,2.24
2022-11-15 11:10:31.4400,-1.27,-2.36,-0.16,2.68
2022-11-15 11:10:31.4540,-1.61,-2.21,-0.94,2.89
2022-11-15 11:10:31.4560,-1.31,-1.68,-1.69,2.71
2022-11-15 11:10:31.4700,-0.72,-0.87,-2.37,2.62
2022-11-15 11:10:31.4730,0.07,-0.06,-2.69,2.69
2022-11-15 11:10:31.4870,0.8,0.5,-2.53,2.7
2022-11-15 11:10:31.4900,1.14,0.77,-2.08,2.49
2022-11-15 11:10:31.5020,1.19,0.73,-1.41,1.98
2022-11-15 11:10:31.5040,0.76,0.47,-0.89,1.26
2022-11-15 11:10:31.5210,0.01,0.14,-0.61,0.62
2022-11-15 11:10:31.5230,-0.7,-0.2,-0.39,0.82
2022-11-15 11:10:31.5380,-1.1,-0.09,-0.68,1.29
2022-11-15 11:10:31.5410,-0.96,0.44,-1.72,2.01
2022-11-15 11:10:31.5540,-0.35,1.14,-2.01,2.33
2022-11-15 11:10:31.5560,0.2,1.6,-1.75,2.37
2022-11-15 11:10:31.5700,0.01,1.81,-1.64,2.44
2022-11-15 11:10:31.5720,0.3,2.0,-1.31,2.4
2022-11-15 11:10:31.5850,0.91,1.99,-0.81,2.33
2022-11-15 11:10:31.5870,1.21,1.55,-0.32,1.99
2022-11-15 11:10:31.6050,0.85,0.73,0.06,1.12
2022-11-15 11:10:31.6070,0.27,-0.08,0.39,0.48
2022-11-15 11:10:31.6210,-0.07,-0.55,0.72,0.9
2022-11-15 11:10:31.6240,0.02,-0.63,1.14,1.3
2022-11-15 11:10:31.6360,0.43,-0.35,1.3,1.41
2022-11-15 11:10:31.6380,0.74,0.06,1.36,1.54
2022-11-15 11:10:31.6520,1.08,0.41,1.31,1.74
2022-11-15 11:10:31.6550,1.41,0.72,1.49,2.17
2022-11-15 11:10:31.6690,1.3,0.72,2.09,2.56
2022-11-15 11:10:31.6710,1.08,0.35,3.15,3.34
2022-11-15 11:10:31.6880,0.87,-0.23,4.04,4.13
2022-11-15 11:10:31.6900,0.63,-0.67,3.96,4.06
2022-11-15 11:10:31.7040,0.54,-1.08,3.43,3.63
2022-11-15 11:10:31.7050,0.36,-1.35,2.45,2.82
2022-11-15 11:10:31.7200,0.56,-1.6,1.3,2.13
2022-11-15 11:10:31.7230,0.95,-1.7,0.29,1.96
2022-11-15 11:10:31.7350,1.14,-1.55,-0.44,1.97
2022-11-15 11:10:31.7380,1.13,-1.38,-0.88,1.98
2022-11-15 11:10:31.7510,0.95,-1.23,-1.1,1.9
2022-11-15 11:10:31.7530,0.79,-0.86,-1.48,1.88
2022-11-15 11:10:31.7710,0.81,-0.36,-2.0,2.18
2022-11-15 11:10:31.7730,0.89,-0.06,-2.26,2.42
2022-11-15 11:10:31.7880,0.92,0.0,-2.36,2.53
2022-11-15 11:10:31.7920,0.86,-0.14,-2.23,2.39
2022-11-15 11:10:31.8020,0.73,-0.37,-1.81,1.98
2022-11-15 11:10:31.8040,0.78,-0.47,-1.4,1.67
2022-11-15 11:10:31.8200,0.91,-0.45,-1.11,1.5
2022-11-15 11:10:31.8230,1.11,-0.59,-0.87,1.52
2022-11-15 11:10:31.8350,1.21,-0.71,-0.52,1.49
2022-11-15 11:10:31.8370,1.09,-0.66,-0.05,1.27
2022-11-15 11:10:31.8550,0.9,-0.39,0.17,0.99
2022-11-15 11:10:31.8570,0.74,-0.04,0.24,0.77
2022-11-15 11:10:31.8710,0.76,0.18,0.27,0.82
2022-11-15 11:10:31.8740,0.88,0.2,0.22,0.92
2022-11-15 11:10:31.8870,0.59,-0.29,0.55,0.85
2022-11-15 11:10:31.8900,-0.12,-1.25,1.22,1.75
2022-11-15 11:10:31.9030,-0.47,-1.74,1.75,2.51
2022-11-15 11:10:31.9060,-0.32,-1.3,1.64,2.11
2022-11-15 11:10:31.9180,-0.4,-0.61,1.13,1.34
2022-11-15 11:10:31.9200,-0.65,-0.11,0.49,0.82
2022-11-15 11:10:31.9380,-0.66,-0.05,0.18,0.68
2022-11-15 11:10:31.9400,-0.79,-0.29,-0.14,0.85
2022-11-15 11:10:31.9540,-0.73,-0.12,-0.56,0.92
2022-11-15 11:10:31.9550,-0.51,0.21,-0.93,1.08
2022-11-15 11:10:31.9690,-0.18,0.46,-1.18,1.27
2022-11-15 11:10:31.9720,-0.2,0.47,-1.7,1.77
2022-11-15 11:10:31.9870,-0.28,0.45,-2.31,2.37
2022-11-15 11:10:31.9900,-0.16,0.67,-2.73,2.81
2022-11-15 11:10:32.0020,0.03,0.88,-2.73,2.86
2022-11-15 11:10:32.0040,-0.24,0.81,-1.18,1.45
2022-11-15 11:10:32.0210,0.22,1.13,-0.55,1.27
2022-11-15 11:10:32.0230,0.64,1.39,-0.36,1.57
2022-11-15 11:10:32.0370,0.91,1.55,-0.11,1.8
2022-11-15 11:10:32.0390,1.23,1.79,-0.35,2.19
2022-11-15 11:10:32.0520,1.0,1.7,-0.67,2.08
2022-11-15 11:10:32.0550,0.77,1.66,-0.82,2.0
2022-11-15 11:10:32.0700,0.94,1.82,-0.71,2.16
2022-11-15 11:10:32.0730,1.13,1.92,-0.48,2.27
2022-11-15 11:10:32.0850,1.38,2.02,-0.01,2.44
2022-11-15 11:10:32.0870,1.18,1.97,0.51,2.35
2022-11-15 11:10:32.1050,0.68,1.68,0.76,1.96
2022-11-15 11:10:32.1070,0.04,1.27,0.89,1.55
2022-11-15 11:10:32.1210,-0.52,0.86,0.76,1.26
2022-11-15 11:10:32.1240,-0.37,0.66,0.65,0.99
2022-11-15 11:10:32.1370,0.11,0.9,0.24,0.93
2022-11-15 11:10:32.1400,-1.0,0.78,-0.25,1.29
2022-11-15 11:10:32.1540,-0.38,1.11,-0.2,1.19
2022-11-15 11:10:32.1560,0.56,1.43,0.48,1.6
2022-11-15 11:10:32.1680,0.98,1.71,1.71,2.6
2022-11-15 11:10:32.1700,0.93,1.97,3.36,4.0
2022-11-15 11:10:32.1880,0.86,1.96,4.97,5.41
2022-11-15 11:10:32.1900,0.54,1.56,5.78,6.01
2022-11-15 11:10:32.2020,0.05,0.9,5.56,5.63
2022-11-15 11:10:32.2050,-0.18,0.35,4.76,4.77
2022-11-15 11:10:32.2200,0.01,0.15,3.54,3.54
2022-11-15 11:10:32.2230,0.11,0.09,2.21,2.21
2022-11-15 11:10:32.2350,-0.08,-0.1,0.92,0.92
2022-11-15 11:10:32.2380,-0.19,-0.77,-0.03,0.79
2022-11-15 11:10:32.2510,-0.55,-1.48,-0.66,1.71
2022-11-15 11:10:32.2540,-1.14,-1.8,-1.17,2.43
2022-11-15 11:10:32.2710,-1.14,-1.59,-1.45,2.43
2022-11-15 11:10:32.2730,-0.9,-1.39,-1.33,2.12
2022-11-15 11:10:32.2880,-0.92,-1.17,-0.92,1.74
2022-11-15 11:10:32.2910,-1.07,-0.9,-0.52,1.49
2022-11-15 11:10:32.3040,-1.12,-0.75,-0.38,1.4
2022-11-15 11:10:32.3060,-1.25,-0.94,-0.63,1.68
2022-11-15 11:10:32.3200,-1.35,-1.27,-0.99,2.1
2022-11-15 11:10:32.3230,-1.48,-1.53,-1.07,2.38
2022-11-15 11:10:32.3340,-1.59,-1.77,-0.76,2.49
2022-11-15 11:10:32.3370,-1.56,-1.79,-0.82,2.51
2022-11-15 11:10:32.3550,-1.34,-1.52,-1.53,2.53
2022-11-15 11:10:32.3570,-1.05,-1.16,-1.51,2.17
2022-11-15 11:10:32.3710,-0.84,-0.87,-1.08,1.62
2022-11-15 11:10:32.3740,-0.95,-0.76,-0.56,1.33
2022-11-15 11:10:32.3850,-1.22,-0.85,-0.02,1.48
2022-11-15 11:10:32.3880,-1.56,-1.23,0.38,2.02
2022-11-15 11:10:32.4020,-1.8,-1.56,0.45,2.42
2022-11-15 11:10:32.4050,-1.71,-1.37,-0.11,2.19
2022-11-15 11:10:32.4180,-1.61,-0.73,-1.21,2.14
2022-11-15 11:10:32.4200,-0.99,-0.28,-1.92,2.17
2022-11-15 11:10:32.4380,-1.01,-0.36,-2.24,2.48
2022-11-15 11:10:32.4400,-1.2,-0.16,-2.73,2.98
2022-11-15 11:10:32.4550,-0.88,0.3,-2.65,2.8
2022-11-15 11:10:32.4580,-0.64,0.63,-2.26,2.43
2022-11-15 11:10:32.4690,-0.78,0.66,-1.83,2.09
2022-11-15 11:10:32.4710,-1.0,0.56,-1.49,1.87
2022-11-15 11:10:32.4870,-0.99,0.67,-1.3,1.76
2022-11-15 11:10:32.4900,-1.02,0.83,-1.11,1.72
2022-11-15 11:10:32.5010,-0.92,0.99,-1.23,1.82
2022-11-15 11:10:32.5030,-0.62,1.14,-1.39,1.9
2022-11-15 11:10:32.5210,-0.64,1.27,-1.37,1.97
2022-11-15 11:10:32.5230,-0.57,1.38,-1.12,1.86
2022-11-15 11:10:32.5370,-0.28,1.39,-0.76,1.6
2022-11-15 11:10:32.5390,-0.05,1.39,-0.3,1.42
2022-11-15 11:10:32.5530,0.12,1.46,0.12,1.46
2022-11-15 11:10:32.5550,0.32,1.46,0.35,1.53
2022-11-15 11:10:32.5680,0.43,1.37,0.28,1.46
2022-11-15 11:10:32.5710,0.6,1.26,0.27,1.42
2022-11-15 11:10:32.5860,0.68,1.05,0.5,1.34
2022-11-15 11:10:32.5880,0.7,0.87,0.75,1.34
2022-11-15 11:10:32.6050,0.75,0.75,1.02,1.47
2022-11-15 11:10:32.6070,0.67,0.62,1.38,1.65
2022-11-15 11:10:32.6210,0.51,0.42,1.72,1.84
2022-11-15 11:10:32.6240,0.52,0.23,2.18,2.25
2022-11-15 11:10:32.6350,0.41,-0.14,2.76,2.79
2022-11-15 11:10:32.6380,0.2,-0.27,2.65,2.67
2022-11-15 11:10:32.6520,0.29,-0.07,2.16,2.18
2022-11-15 11:10:32.6550,0.51,0.2,1.71,1.79
2022-11-15 11:10:32.6680,0.86,0.47,1.35,1.66
2022-11-15 11:10:32.6700,1.49,0.73,1.49,2.23
2022-11-15 11:10:32.6880,2.03,0.84,2.24,3.13
2022-11-15 11:10:32.6900,1.98,0.44,3.15,3.74
2022-11-15 11:10:32.7030,1.57,-0.53,3.81,4.15
2022-11-15 11:10:32.7050,1.08,-1.61,3.94,4.39
2022-11-15 11:10:32.7200,0.53,-2.48,3.45,4.28
2022-11-15 11:10:32.7230,0.04,-3.02,2.54,3.94
2022-11-15 11:10:32.7360,-0.17,-3.15,1.29,3.4
2022-11-15 11:10:32.7390,-0.12,-2.86,-0.08,2.86
2022-11-15 11:10:32.7520,0.02,-2.37,-1.21,2.66
2022-11-15 11:10:32.7540,0.2,-1.59,-1.9,2.48
2022-11-15 11:10:32.7710,0.65,-0.85,-2.12,2.37
2022-11-15 11:10:32.7730,0.85,-0.54,-1.75,2.01
2022-11-15 11:10:32.7870,0.52,-0.35,-1.35,1.48
2022-11-15 11:10:32.7890,0.64,-0.16,-1.08,1.26
2022-11-15 11:10:32.8020,0.74,-0.06,-0.92,1.18
2022-11-15 11:10:32.8040,0.71,-0.03,-0.73,1.01
2022-11-15 11:10:32.8200,0.61,-0.14,-0.61,0.87
2022-11-15 11:10:32.8230,0.47,-0.35,-0.57,0.81
2022-11-15 11:10:32.8350,0.32,-0.6,-0.56,0.88
2022-11-15 11:10:32.8370,0.11,-0.87,-0.51,1.01
2022-11-15 11:10:32.8550,-0.21,-1.35,0.04,1.36
2022-11-15 11:10:32.8570,-0.48,-1.95,0.72,2.13
2022-11-15 11:10:32.8700,-0.8,-2.09,0.16,2.24
2022-11-15 11:10:32.8720,-0.55,-1.91,-0.03,1.98
2022-11-15 11:10:32.8870,-0.27,-1.56,-0.17,1.59
2022-11-15 11:10:32.8900,-0.22,-1.23,-0.51,1.34
2022-11-15 11:10:32.9020,-0.37,-1.08,-0.73,1.35
2022-11-15 11:10:32.9040,-0.59,-1.0,-0.86,1.44
2022-11-15 11:10:32.9200,-0.75,-0.94,-0.87,1.48
2022-11-15 11:10:32.9220,-0.9,-0.96,-0.99,1.64
2022-11-15 11:10:32.9380,-0.93,-0.84,-1.53,1.97
2022-11-15 11:10:32.9400,-0.8,-0.53,-2.15,2.35
2022-11-15 11:10:32.9540,-0.64,-0.09,-2.62,2.69
2022-11-15 11:10:32.9550,-0.58,0.34,-2.93,3.0
2022-11-15 11:10:32.9700,-0.53,0.68,-2.97,3.09
2022-11-15 11:10:32.9730,-0.44,1.0,-2.75,2.95
2022-11-15 11:10:32.9870,-0.37,1.27,-2.23,2.59
2022-11-15 11:10:32.9900,-0.32,1.39,-1.66,2.18
2022-11-15 11:10:33.0010,-0.32,1.35,-1.28,1.88
2022-11-15 11:10:33.0030,-0.34,1.25,-1.11,1.7
2022-11-15 11:10:33.0210,-0.25,1.16,-1.04,1.57
2022-11-15 11:10:33.0230,-0.1,1.02,-0.98,1.41
2022-11-15 11:10:33.0370,-0.02,0.92,-0.97,1.33
2022-11-15 11:10:33.0390,0.01,0.84,-1.11,1.39
2022-11-15 11:10:33.0540,0.14,0.85,-1.33,1.58
2022-11-15 11:10:33.0560,0.35,1.02,-1.36,1.73
2022-11-15 11:10:33.0680,0.47,1.22,-1.09,1.7
2022-11-15 11:10:33.0710,0.54,1.34,-0.55,1.54
2022-11-15 11:10:33.0850,0.58,1.4,0.1,1.51
2022-11-15 11:10:33.0870,0.57,1.37,0.74,1.65
2022-11-15 11:10:33.1050,0.49,1.19,1.3,1.82
2022-11-15 11:10:33.1060,0.44,0.98,1.64,1.96
2022-11-15 11:10:33.1210,0.31,0.75,1.69,1.87
2022-11-15 11:10:33.1240,0.13,0.49,1.57,1.64
2022-11-15 11:10:33.1350,0.05,0.36,1.4,1.44
2022-11-15 11:10:33.1380,0.02,0.33,1.2,1.24
2022-11-15 11:10:33.1530,0.01,0.35,1.02,1.07
2022-11-15 11:10:33.1550,0.08,0.47,0.82,0.94
2022-11-15 11:10:33.1680,0.2,0.71,0.75,1.05
2022-11-15 11:10:33.1700,0.33,1.06,0.75,1.33
2022-11-15 11:10:33.1880,0.46,1.45,0.57,1.62
2022-11-15 11:10:33.1900,0.66,1.78,0.35,1.93
2022-11-15 11:10:33.2030,1.02,2.03,0.48,2.32
2022-11-15 11:10:33.2060,1.36,2.14,1.07,2.75
2022-11-15 11:10:33.2200,1.4,1.82,2.0,3.04
2022-11-15 11:10:33.2230,1.08,1.03,2.8,3.17
2022-11-15 11:10:33.2370,0.65,-0.03,3.4,3.46
2022-11-15 11:10:33.2400,0.2,-1.24,3.71,3.91
2022-11-15 11:10:33.2510,-0.28,-2.4,3.64,4.36
2022-11-15 11:10:33.2530,-0.78,-3.33,3.14,4.64
2022-11-15 11:10:33.2710,-1.22,-3.92,2.31,4.71
2022-11-15 11:10:33.2730,-1.55,-4.11,1.42,4.61
2022-11-15 11:10:33.2870,-1.63,-3.83,0.54,4.19
2022-11-15 11:10:33.2890,-1.36,-3.11,-0.25,3.4
2022-11-15 11:10:33.3040,-1.08,-2.19,-0.75,2.55
2022-11-15 11:10:33.3070,-0.91,-1.33,-0.97,1.88
2022-11-15 11:10:33.3200,-0.84,-0.59,-0.96,1.4
2022-11-15 11:10:33.3230,-0.85,0.01,-0.8,1.16
2022-11-15 11:10:33.3360,-0.84,0.48,-0.45,1.06
2022-11-15 11:10:33.3380,-0.83,0.85,-0.18,1.2
2022-11-15 11:10:33.3550,-0.81,1.08,-0.07,1.35
2022-11-15 11:10:33.3570,-0.79,1.15,-0.02,1.39
2022-11-15 11:10:33.3700,-0.85,1.0,0.05,1.31
2022-11-15 11:10:33.3720,-1.04,0.63,0.03,1.21
2022-11-15 11:10:33.3870,-1.22,0.18,-0.15,1.24
2022-11-15 11:10:33.3900,-1.4,-0.26,-0.57,1.53
2022-11-15 11:10:33.4030,-1.42,-0.59,-1.24,1.97
2022-11-15 11:10:33.4050,-1.22,-0.76,-2.05,2.5
2022-11-15 11:10:33.4180,-1.15,-0.77,-2.83,3.15
2022-11-15 11:10:33.4200,-1.08,-0.64,-3.44,3.66
2022-11-15 11:10:33.4380,-0.9,-0.46,-3.84,3.97
2022-11-15 11:10:33.4400,-0.78,-0.25,-3.95,4.03
2022-11-15 11:10:33.4540,-0.69,-0.05,-3.76,3.82
2022-11-15 11:10:33.4560,-0.67,0.11,-3.44,3.5
2022-11-15 11:10:33.4690,-0.7,0.19,-3.16,3.24
2022-11-15 11:10:33.4710,-0.74,0.11,-2.89,2.98
2022-11-15 11:10:33.4870,-0.78,-0.05,-2.74,2.84
2022-11-15 11:10:33.4900,-0.87,-0.09,-2.58,2.72
2022-11-15 11:10:33.5020,-0.88,0.09,-2.35,2.51
2022-11-15 11:10:33.5040,-0.67,0.44,-2.02,2.17
2022-11-15 11:10:33.5210,-0.26,0.81,-1.75,1.94
2022-11-15 11:10:33.5230,0.15,1.02,-1.63,1.92
2022-11-15 11:10:33.5380,0.52,1.07,-1.57,1.96
2022-11-15 11:10:33.5410,0.8,1.1,-1.36,1.92
2022-11-15 11:10:33.5530,1.16,1.21,-1.01,1.95
2022-11-15 11:10:33.5560,1.54,1.35,-0.51,2.11
2022-11-15 11:10:33.5690,1.89,1.56,0.23,2.46
2022-11-15 11:10:33.5720,2.24,1.79,1.14,3.08
2022-11-15 11:10:33.5870,2.47,1.85,2.04,3.69
2022-11-15 11:10:33.5890,2.51,1.6,2.78,4.07
2022-11-15 11:10:33.5920,2.29,1.11,3.44,4.27
2022-11-15 11:10:33.5950,1.83,0.51,3.98,4.41
2022-11-15 11:10:33.5970,1.39,0.0,4.25,4.47
2022-11-15 11:10:33.5990,1.25,-0.09,4.18,4.36
2022-11-15 11:10:33.6000,1.42,0.25,3.86,4.12
2022-11-15 11:10:33.6200,1.74,0.79,3.32,3.83
2022-11-15 11:10:33.6220,2.13,1.45,2.75,3.76
2022-11-15 11:10:33.6360,2.65,2.12,2.21,4.04
2022-11-15 11:10:33.6440,3.2,2.65,1.9,4.56
2022-11-15 11:10:33.6530,3.54,2.84,1.9,4.92
2022-11-15 11:10:33.6540,3.51,2.48,2.19,4.82
2022-11-15 11:10:33.6700,3.08,1.47,2.65,4.32
2022-11-15 11:10:33.6720,2.37,0.18,2.85,3.71
2022-11-15 11:10:33.6860,1.6,-1.09,2.69,3.31
2022-11-15 11:10:33.6880,0.8,-2.15,2.18,3.16
2022-11-15 11:10:33.7030,0.14,-2.91,1.32,3.19
2022-11-15 11:10:33.7060,-0.2,-3.3,0.22,3.31
2022-11-15 11:10:33.7210,-0.12,-3.25,-1.02,3.4
2022-11-15 11:10:33.7330,0.18,-2.78,-2.1,3.48
2022-11-15 11:10:33.7350,0.56,-2.12,-2.89,3.62
2022-11-15 11:10:33.7550,0.87,-1.57,-3.43,3.87
2022-11-15 11:10:33.7570,0.99,-1.24,-3.71,4.03
2022-11-15 11:10:33.7700,0.94,-1.05,-3.62,3.88
2022-11-15 11:10:33.7720,0.75,-0.95,-3.11,3.33
2022-11-15 11:10:33.7850,0.56,-0.86,-2.35,2.56
2022-11-15 11:10:33.7880,0.42,-0.74,-1.49,1.71
2022-11-15 11:10:33.8030,0.29,-0.61,-0.63,0.92
2022-11-15 11:10:33.8060,0.1,-0.56,0.12,0.58
2022-11-15 11:10:33.8180,-0.06,-0.55,0.62,0.83
2022-11-15 11:10:33.8200,-0.24,-0.48,0.82,0.98
2022-11-15 11:10:33.8380,-0.41,-0.34,0.86,1.01
2022-11-15 11:10:33.8400,-0.5,-0.22,0.74,0.91
2022-11-15 11:10:33.8530,-0.56,-0.27,0.44,0.76
2022-11-15 11:10:33.8550,-0.75,-0.53,0.03,0.91
2022-11-15 11:10:33.8690,-0.99,-0.87,-0.35,1.36
2022-11-15 11:10:33.8710,-1.01,-1.0,-0.61,1.54
2022-11-15 11:10:33.8850,-0.92,-0.95,-0.79,1.54
2022-11-15 11:10:33.8880,-0.91,-0.89,-0.94,1.58
2022-11-15 11:10:33.9010,-0.87,-0.76,-1.05,1.56
2022-11-15 11:10:33.9030,-0.74,-0.58,-1.22,1.54
2022-11-15 11:10:33.9200,-0.63,-0.52,-1.35,1.57
2022-11-15 11:10:33.9220,-0.65,-0.55,-1.24,1.5
2022-11-15 11:10:33.9350,-0.74,-0.69,-1.13,1.51
2022-11-15 11:10:33.9370,-0.74,-0.81,-1.04,1.51
2022-11-15 11:10:33.9520,-0.72,-0.93,-0.9,1.48
2022-11-15 11:10:33.9550,-0.81,-1.15,-0.62,1.53
2022-11-15 11:10:33.9690,-1.01,-1.28,-0.35,1.66
2022-11-15 11:10:33.9710,-1.08,-1.24,-0.05,1.64
2022-11-15 11:10:33.9840,-1.09,-1.24,0.22,1.66
2022-11-15 11:10:33.9860,-1.14,-1.27,0.53,1.78
2022-11-15 11:10:34.0050,-1.11,-1.26,0.78,1.85
2022-11-15 11:10:34.0070,-1.12,-1.12,0.91,1.82
2022-11-15 11:10:34.0210,-1.14,-0.86,0.96,1.72
2022-11-15 11:10:34.0240,-1.04,-0.52,0.79,1.4
2022-11-15 11:10:34.0350,-0.87,-0.14,0.54,1.03
2022-11-15 11:10:34.0370,-0.71,0.21,0.4,0.84
2022-11-15 11:10:34.0510,-0.64,0.46,0.4,0.88
2022-11-15 11:10:34.0540,-0.76,0.47,0.62,1.08
2022-11-15 11:10:34.0670,-0.98,0.42,1.13,1.55
2022-11-15 11:10:34.0690,-1.13,0.45,1.73,2.11
2022-11-15 11:10:34.0880,-1.31,0.47,2.23,2.62
2022-11-15 11:10:34.0900,-1.51,0.49,2.58,3.02
2022-11-15 11:10:34.1030,-1.48,0.57,2.75,3.17
2022-11-15 11:10:34.1050,-1.17,0.78,2.68,3.02
2022-11-15 11:10:34.1190,-0.89,1.09,2.76,3.09
2022-11-15 11:10:34.1210,-0.51,1.4,2.99,3.34
2022-11-15 11:10:34.1350,-0.25,1.52,3.22,3.56
2022-11-15 11:10:34.1370,-0.32,1.34,3.48,3.74
2022-11-15 11:10:34.1510,-0.56,0.97,3.7,3.86
2022-11-15 11:10:34.1530,-0.73,0.52,3.72,3.82
2022-11-15 11:10:34.1690,-0.92,0.04,3.55,3.66
2022-11-15 11:10:34.1710,-1.23,-0.45,3.27,3.52
2022-11-15 11:10:34.1880,-1.49,-0.93,2.89,3.38
2022-11-15 11:10:34.1910,-1.7,-1.31,2.45,3.25
2022-11-15 11:10:34.2030,-1.86,-1.56,1.98,3.13
2022-11-15 11:10:34.2060,-2.0,-1.77,1.5,3.06
2022-11-15 11:10:34.2200,-2.18,-1.99,1.01,3.11
2022-11-15 11:10:34.2230,-2.27,-2.15,0.45,3.15
2022-11-15 11:10:34.2350,-2.27,-2.2,-0.18,3.16
2022-11-15 11:10:34.2370,-2.27,-2.16,-0.78,3.22
2022-11-15 11:10:34.2540,-2.21,-2.07,-1.27,3.28
2022-11-15 11:10:34.2560,-2.04,-1.91,-1.73,3.28
2022-11-15 11:10:34.2710,-1.83,-1.69,-2.04,3.21
2022-11-15 11:10:34.2740,-1.64,-1.49,-2.11,3.05
2022-11-15 11:10:34.2870,-1.56,-1.41,-1.98,2.88
2022-11-15 11:10:34.2890,-1.61,-1.43,-1.89,2.86
2022-11-15 11:10:34.3030,-1.64,-1.46,-1.94,2.92
2022-11-15 11:10:34.3060,-1.52,-1.41,-2.13,2.97
2022-11-15 11:10:34.3180,-1.27,-1.31,-2.4,3.01
2022-11-15 11:10:34.3200,-1.14,-1.21,-2.66,3.13
2022-11-15 11:10:34.3380,-1.06,-1.11,-2.93,3.3
2022-11-15 11:10:34.3400,-0.88,-1.0,-3.21,3.47
2022-11-15 11:10:34.3540,-0.6,-0.89,-3.47,3.63
2022-11-15 11:10:34.3570,-0.4,-0.89,-3.62,3.74
2022-11-15 11:10:34.3690,-0.39,-0.95,-3.66,3.8
2022-11-15 11:10:34.3710,-0.32,-0.94,-3.55,3.68
2022-11-15 11:10:34.3860,-0.16,-0.73,-3.23,3.31
2022-11-15 11:10:34.3880,0.04,-0.36,-2.88,2.9
2022-11-15 11:10:34.4010,0.29,0.07,-2.67,2.68
2022-11-15 11:10:34.4030,0.52,0.46,-2.45,2.54
2022-11-15 11:10:34.4210,0.71,0.74,-2.21,2.43
2022-11-15 11:10:34.4230,0.93,1.0,-2.04,2.45
2022-11-15 11:10:34.4380,1.16,1.22,-1.92,2.55
2022-11-15 11:10:34.4400,1.33,1.33,-1.83,2.62
2022-11-15 11:10:34.4530,1.44,1.26,-1.72,2.57
2022-11-15 11:10:34.4560,1.44,1.09,-1.55,2.37
2022-11-15 11:10:34.4680,1.38,0.99,-1.35,2.16
2022-11-15 11:10:34.4710,1.43,1.1,-1.1,2.11
2022-11-15 11:10:34.4840,1.64,1.46,-0.83,2.34
2022-11-15 11:10:34.4870,1.97,1.85,-0.57,2.76
2022-11-15 11:10:34.5050,2.31,2.17,-0.31,3.18
2022-11-15 11:10:34.5070,2.61,2.33,-0.08,3.49
2022-11-15 11:10:34.5200,2.68,2.2,0.21,3.47
2022-11-15 11:10:34.5220,2.57,1.67,0.55,3.11
2022-11-15 11:10:34.5350,2.37,1.04,0.86,2.72
2022-11-15 11:10:34.5380,2.11,0.49,1.2,2.47
2022-11-15 11:10:34.5530,1.87,0.12,1.55,2.43
2022-11-15 11:10:34.5560,1.68,0.01,1.9,2.53
2022-11-15 11:10:34.5680,1.46,0.18,2.25,2.68
2022-11-15 11:10:34.5710,1.41,0.59,2.49,2.92
2022-11-15 11:10:34.5880,1.66,1.17,2.49,3.21
2022-11-15 11:10:34.5900,2.11,1.81,2.22,3.55
2022-11-15 11:10:34.6040,2.56,2.25,1.97,3.93
2022-11-15 11:10:34.6070,2.9,2.43,2.01,4.28
2022-11-15 11:10:34.6190,3.16,2.35,2.27,4.54
2022-11-15 11:10:34.6220,3.11,1.9,2.72,4.54
2022-11-15 11:10:34.6350,2.77,1.12,3.26,4.42
2022-11-15 11:10:34.6370,2.36,0.24,3.84,4.51
2022-11-15 11:10:34.6510,1.86,-0.64,4.45,4.86
2022-11-15 11:10:34.6530,1.32,-1.45,4.92,5.29
2022-11-15 11:10:34.6710,0.86,-2.11,5.1,5.58
2022-11-15 11:10:34.6730,0.52,-2.57,4.71,5.39
2022-11-15 11:10:34.6850,0.43,-2.7,3.72,4.61
2022-11-15 11:10:34.6880,0.73,-2.49,2.26,3.44
2022-11-15 11:10:34.7030,1.24,-1.97,0.66,2.41
2022-11-15 11:10:34.7060,1.65,-1.49,-0.7,2.33
2022-11-15 11:10:34.7190,1.95,-1.13,-1.58,2.75
2022-11-15 11:10:34.7220,2.03,-0.9,-1.95,2.95
2022-11-15 11:10:34.7340,1.85,-0.82,-1.91,2.78
2022-11-15 11:10:34.7370,1.56,-0.8,-1.43,2.26
2022-11-15 11:10:34.7550,1.23,-0.76,-0.8,1.65
2022-11-15 11:10:34.7570,0.85,-0.61,-0.26,1.07
2022-11-15 11:10:34.7700,0.61,-0.38,0.14,0.73
2022-11-15 11:10:34.7730,0.34,-0.26,0.47,0.63
2022-11-15 11:10:34.7850,-0.02,-0.36,0.54,0.64
2022-11-15 11:10:34.7880,-0.37,-0.53,0.01,0.64
2022-11-15 11:10:34.8040,-0.59,-0.63,-0.95,1.28
2022-11-15 11:10:34.8070,-0.61,-0.61,-2.03,2.2
2022-11-15 11:10:34.8180,-0.59,-0.5,-3.22,3.31
2022-11-15 11:10:34.8200,-0.49,-0.39,-4.15,4.19
2022-11-15 11:10:34.8380,-0.32,-0.36,-4.71,4.73
2022-11-15 11:10:34.8400,-0.25,-0.44,-5.08,5.1
2022-11-15 11:10:34.8540,-0.35,-0.52,-5.15,5.18
2022-11-15 11:10:34.8550,-0.42,-0.49,-5.02,5.06
2022-11-15 11:10:34.8700,-0.42,-0.32,-4.88,4.9
2022-11-15 11:10:34.8720,-0.35,-0.02,-4.77,4.78
2022-11-15 11:10:34.8850,-0.11,0.3,-4.47,4.48
2022-11-15 11:10:34.8880,0.22,0.54,-3.92,3.96
2022-11-15 11:10:34.9020,0.45,0.68,-3.42,3.51
2022-11-15 11:10:34.9040,0.5,0.84,-2.84,3.0
2022-11-15 11:10:34.9210,0.58,1.0,-2.07,2.37
2022-11-15 11:10:34.9230,0.78,1.07,-1.21,1.79
2022-11-15 11:10:34.9370,0.95,1.17,-0.28,1.53
2022-11-15 11:10:34.9390,1.04,1.1,0.72,1.67
2022-11-15 11:10:34.9530,0.96,0.72,1.81,2.17
2022-11-15 11:10:34.9560,0.53,0.33,2.69,2.76
2022-11-15 11:10:34.9680,0.07,-0.08,3.67,3.67
2022-11-15 11:10:34.9710,-0.56,-0.47,4.48,4.53
2022-11-15 11:10:34.9860,-0.98,-0.69,4.99,5.13
2022-11-15 11:10:34.9890,-1.12,-0.36,5.21,5.34
2022-11-15 11:10:35.0040,-0.95,-0.37,4.74,4.84
2022-11-15 11:10:35.0060,-0.68,-0.49,3.83,3.92
2022-11-15 11:10:35.0220,-0.5,-0.36,3.36,3.41
2022-11-15 11:10:35.0240,-0.5,-0.36,3.12,3.18
2022-11-15 11:10:35.0350,-0.5,-0.51,2.77,2.86
2022-11-15 11:10:35.0380,-0.49,-0.65,2.11,2.26
2022-11-15 11:10:35.0540,-0.31,-0.55,1.66,1.77
2022-11-15 11:10:35.0560,0.12,-0.11,1.66,1.66
2022-11-15 11:10:35.0680,0.59,0.51,2.04,2.18
2022-11-15 11:10:35.0700,0.75,0.98,2.73,2.99
2022-11-15 11:10:35.0880,0.64,1.04,3.51,3.71
2022-11-15 11:10:35.0900,0.32,0.85,4.12,4.21
2022-11-15 11:10:35.1040,-0.35,0.58,4.28,4.33
2022-11-15 11:10:35.1070,-0.85,-0.33,4.24,4.33
2022-11-15 11:10:35.1200,-1.03,-1.25,3.84,4.16
2022-11-15 11:10:35.1230,-1.28,-1.45,3.34,3.85
2022-11-15 11:10:35.1350,-1.79,-1.37,2.88,3.65
2022-11-15 11:10:35.1380,-2.11,-1.35,2.16,3.3
2022-11-15 11:10:35.1530,-2.05,-1.39,1.28,2.78
2022-11-15 11:10:35.1550,-1.87,-1.33,0.13,2.29
2022-11-15 11:10:35.1710,-1.62,-1.25,-0.98,2.26
2022-11-15 11:10:35.1730,-1.27,-1.24,-1.77,2.5
2022-11-15 11:10:35.1870,-1.07,-1.31,-2.3,2.85
2022-11-15 11:10:35.1890,-1.04,-1.32,-2.88,3.33
2022-11-15 11:10:35.2040,-1.24,-1.29,-3.34,3.78
2022-11-15 11:10:35.2070,-1.53,-1.37,-3.38,3.95
2022-11-15 11:10:35.2200,-1.63,-1.43,-3.11,3.79
2022-11-15 11:10:35.2230,-1.36,-1.32,-2.78,3.36
2022-11-15 11:10:35.2350,-1.03,-1.19,-2.39,2.86
2022-11-15 11:10:35.2370,-0.84,-1.2,-1.88,2.38
2022-11-15 11:10:35.2540,-0.73,-1.33,-1.45,2.09
2022-11-15 11:10:35.2560,-0.88,-1.55,-1.42,2.27
2022-11-15 11:10:35.2700,-1.11,-1.69,-1.73,2.66
2022-11-15 11:10:35.2720,-1.1,-1.69,-2.3,3.05
2022-11-15 11:10:35.2850,-0.91,-1.56,-2.95,3.45
2022-11-15 11:10:35.2880,-0.85,-1.26,-3.49,3.8
2022-11-15 11:10:35.3030,-0.65,-0.89,-3.88,4.03
2022-11-15 11:10:35.3060,-0.06,-0.5,-4.17,4.2
2022-11-15 11:10:35.3180,0.18,-0.25,-4.17,4.18
2022-11-15 11:10:35.3200,0.02,-0.1,-3.79,3.79
2022-11-15 11:10:35.3380,-0.2,0.03,-3.23,3.23
2022-11-15 11:10:35.3400,-0.46,0.12,-2.46,2.5
2022-11-15 11:10:35.3540,-0.87,0.17,-1.39,1.64
2022-11-15 11:10:35.3570,-1.33,0.21,-0.55,1.45
2022-11-15 11:10:35.3690,-1.26,0.48,-0.23,1.36
2022-11-15 11:10:35.3710,-0.7,1.06,-0.49,1.36
2022-11-15 11:10:35.3850,-0.28,1.5,-1.12,1.89
2022-11-15 11:10:35.3880,-0.14,1.58,-1.46,2.15
2022-11-15 11:10:35.4010,-0.12,1.49,-1.38,2.03
2022-11-15 11:10:35.4030,-0.15,1.41,-1.2,1.85
2022-11-15 11:10:35.4210,-0.16,1.49,-1.0,1.8
2022-11-15 11:10:35.4230,0.09,1.76,-0.62,1.86
2022-11-15 11:10:35.4380,0.42,1.97,0.02,2.01
2022-11-15 11:10:35.4400,0.57,1.85,0.75,2.07
2022-11-15 11:10:35.4530,0.78,1.56,1.32,2.18
2022-11-15 11:10:35.4560,1.02,1.37,1.56,2.31
2022-11-15 11:10:35.4690,1.06,1.26,1.6,2.29
2022-11-15 11:10:35.4720,0.92,1.23,1.75,2.32
2022-11-15 11:10:35.4850,0.98,1.45,1.96,2.62
2022-11-15 11:10:35.4870,1.0,1.67,2.03,2.81
2022-11-15 11:10:35.5040,0.84,1.62,2.07,2.75
2022-11-15 11:10:35.5060,0.78,1.47,2.17,2.73
2022-11-15 11:10:35.5210,0.84,1.34,2.19,2.7
2022-11-15 11:10:35.5240,1.09,1.19,1.92,2.5
2022-11-15 11:10:35.5370,1.39,0.92,1.52,2.25
2022-11-15 11:10:35.5390,1.53,0.52,1.16,1.98
2022-11-15 11:10:35.5530,1.63,0.25,1.22,2.05
2022-11-15 11:10:35.5560,1.63,0.19,1.96,2.55
2022-11-15 11:10:35.5680,1.48,0.19,2.89,3.25
2022-11-15 11:10:35.5700,1.22,0.0,3.84,4.02
2022-11-15 11:10:35.5880,0.86,-0.37,4.61,4.7
2022-11-15 11:10:35.5890,0.53,-0.9,4.95,5.05
2022-11-15 11:10:35.6050,0.25,-1.54,4.58,4.83
2022-11-15 11:10:35.6070,0.0,-2.08,3.55,4.11
2022-11-15 11:10:35.6200,-0.3,-2.39,2.25,3.29
2022-11-15 11:10:35.6240,-0.34,-2.48,0.8,2.62
2022-11-15 11:10:35.6360,0.08,-2.26,-0.73,2.37
2022-11-15 11:10:35.6390,0.43,-1.94,-1.93,2.77
2022-11-15 11:10:35.6510,0.54,-1.62,-2.72,3.21
2022-11-15 11:10:35.6530,0.57,-1.31,-3.15,3.45
2022-11-15 11:10:35.6710,0.63,-1.0,-3.13,3.34
2022-11-15 11:10:35.6730,0.52,-0.86,-2.55,2.74
2022-11-15 11:10:35.6880,0.28,-0.91,-1.8,2.03
2022-11-15 11:10:35.6910,-0.05,-0.98,-1.18,1.53
2022-11-15 11:10:35.7040,-0.51,-0.99,-0.51,1.22
2022-11-15 11:10:35.7070,-0.89,-1.04,0.15,1.37
2022-11-15 11:10:35.7190,-1.18,-1.16,0.37,1.69
2022-11-15 11:10:35.7210,-1.31,-1.31,0.3,1.87
2022-11-15 11:10:35.7350,-1.3,-1.24,-0.2,1.8
2022-11-15 11:10:35.7370,-1.27,-0.95,-0.95,1.84
2022-11-15 11:10:35.7540,-1.23,-0.58,-1.83,2.27
2022-11-15 11:10:35.7560,-1.12,-0.3,-2.58,2.82
2022-11-15 11:10:35.7700,-1.11,-0.26,-2.93,3.14
2022-11-15 11:10:35.7730,-1.23,-0.4,-2.98,3.24
2022-11-15 11:10:35.7860,-1.16,-0.55,-3.0,3.26
2022-11-15 11:10:35.7880,-1.05,-0.64,-3.08,3.31
2022-11-15 11:10:35.8040,-1.05,-0.74,-3.04,3.3
2022-11-15 11:10:35.8060,-1.07,-0.79,-2.82,3.11
2022-11-15 11:10:35.8180,-1.03,-0.59,-2.83,3.06
2022-11-15 11:10:35.8200,-1.01,-0.1,-3.03,3.19
2022-11-15 11:10:35.8380,-0.76,0.54,-3.07,3.2
2022-11-15 11:10:35.8400,-0.53,1.04,-2.98,3.2
2022-11-15 11:10:35.8530,-0.33,1.17,-2.39,2.68
2022-11-15 11:10:35.8550,-0.14,0.91,-1.32,1.6
2022-11-15 11:10:35.8680,-0.22,0.26,-0.35,0.48
2022-11-15 11:10:35.8720,-0.45,-0.38,0.39,0.7
2022-11-15 11:10:35.8860,-0.56,-0.71,1.08,1.4
2022-11-15 11:10:35.8880,-0.53,-0.59,1.51,1.7
2022-11-15 11:10:35.9010,-0.51,-0.09,1.72,1.79
2022-11-15 11:10:35.9030,-0.26,0.6,2.13,2.22
2022-11-15 11:10:35.9210,-0.1,1.14,2.64,2.87
2022-11-15 11:10:35.9230,-0.06,1.4,2.97,3.28
2022-11-15 11:10:35.9380,-0.1,1.24,3.12,3.35
2022-11-15 11:10:35.9400,-0.21,0.92,2.86,3.01
2022-11-15 11:10:35.9540,-0.29,0.73,2.22,2.35
2022-11-15 11:10:35.9570,-0.23,0.66,1.59,1.73
2022-11-15 11:10:35.9690,-0.03,0.82,1.11,1.38
2022-11-15 11:10:35.9720,0.14,1.15,0.75,1.38
2022-11-15 11:10:35.9840,0.36,1.59,0.53,1.71
2022-11-15 11:10:35.9870,0.54,1.93,0.46,2.05
2022-11-15 11:10:36.0040,0.77,2.17,0.62,2.38
2022-11-15 11:10:36.0060,0.96,2.29,0.98,2.66
2022-11-15 11:10:36.0210,0.98,2.02,1.5,2.7
2022-11-15 11:10:36.0240,0.81,1.34,1.99,2.53
2022-11-15 11:10:36.0360,0.71,0.69,2.55,2.73
2022-11-15 11:10:36.0390,0.51,0.1,3.39,3.42
2022-11-15 11:10:36.0540,0.39,-0.26,4.02,4.04
2022-11-15 11:10:36.0570,0.42,-0.32,4.54,4.57
2022-11-15 11:10:36.0680,0.39,-0.29,4.91,4.93
2022-11-15 11:10:36.0710,0.25,-0.47,4.88,4.9
2022-11-15 11:10:36.0880,0.15,-0.75,4.46,4.52
2022-11-15 11:10:36.0900,0.07,-1.03,3.65,3.79
2022-11-15 11:10:36.1030,-0.03,-1.34,2.59,2.91
2022-11-15 11:10:36.1050,-0.16,-1.71,1.51,2.28
2022-11-15 11:10:36.1180,-0.32,-2.02,0.36,2.07
2022-11-15 11:10:36.1210,-0.41,-2.17,-0.7,2.31
2022-11-15 11:10:36.1360,-0.42,-2.19,-1.33,2.59
2022-11-15 11:10:36.1390,-0.55,-2.13,-1.5,2.66
2022-11-15 11:10:36.1510,-0.83,-1.94,-1.28,2.46
2022-11-15 11:10:36.1530,-1.01,-1.65,-0.81,2.09
2022-11-15 11:10:36.1710,-1.21,-1.35,-0.53,1.88
2022-11-15 11:10:36.1730,-1.36,-1.08,-0.54,1.81
2022-11-15 11:10:36.1860,-1.42,-0.81,-0.75,1.79
2022-11-15 11:10:36.1890,-1.41,-0.51,-1.2,1.92
2022-11-15 11:10:36.2040,-1.31,-0.22,-1.99,2.39
2022-11-15 11:10:36.2070,-1.16,0.05,-3.02,3.23
2022-11-15 11:10:36.2190,-0.98,0.2,-3.99,4.11
2022-11-15 11:10:36.2210,-0.67,0.16,-4.58,4.63
2022-11-15 11:10:36.2340,-0.4,-0.06,-4.66,4.67
2022-11-15 11:10:36.2370,-0.28,-0.4,-4.36,4.38
2022-11-15 11:10:36.2540,-0.24,-0.74,-3.87,3.94
2022-11-15 11:10:36.2560,-0.19,-1.04,-3.46,3.61
2022-11-15 11:10:36.2710,-0.13,-1.23,-3.31,3.53
2022-11-15 11:10:36.2740,-0.14,-1.31,-3.43,3.67
2022-11-15 11:10:36.2860,-0.18,-1.2,-3.64,3.83
2022-11-15 11:10:36.2890,-0.22,-0.8,-3.86,3.94
2022-11-15 11:10:36.3040,-0.06,-0.3,-4.04,4.05
2022-11-15 11:10:36.3070,0.15,0.2,-4.06,4.06
2022-11-15 11:10:36.3180,0.46,0.82,-3.91,4.02
2022-11-15 11:10:36.3200,0.81,1.32,-3.56,3.88
2022-11-15 11:10:36.3380,1.12,1.41,-3.19,3.66
2022-11-15 11:10:36.3400,1.25,1.06,-2.94,3.36
2022-11-15 11:10:36.3540,1.32,0.63,-2.57,2.95
2022-11-15 11:10:36.3570,1.43,0.47,-2.08,2.56
2022-11-15 11:10:36.3700,1.39,0.47,-1.58,2.15
2022-11-15 11:10:36.3720,1.31,0.48,-1.01,1.72
2022-11-15 11:10:36.3860,1.6,0.73,-0.64,1.87
2022-11-15 11:10:36.3890,2.11,1.28,-0.31,2.48
2022-11-15 11:10:36.4010,2.46,1.67,0.41,3.0
2022-11-15 11:10:36.4030,2.72,1.69,1.43,3.5
2022-11-15 11:10:36.4210,2.72,1.38,2.48,3.93
2022-11-15 11:10:36.4230,2.56,0.93,3.42,4.37
2022-11-15 11:10:36.4370,2.31,0.37,4.16,4.77
2022-11-15 11:10:36.4390,2.06,-0.19,4.47,4.92
2022-11-15 11:10:36.4520,1.88,-0.41,4.27,4.68
2022-11-15 11:10:36.4550,1.68,-0.16,3.9,4.24
2022-11-15 11:10:36.4690,1.7,0.42,3.71,4.1
2022-11-15 11:10:36.4720,2.0,1.24,3.72,4.4
2022-11-15 11:10:36.4850,2.33,1.98,4.02,5.05
2022-11-15 11:10:36.4870,2.54,2.29,4.37,5.54
2022-11-15 11:10:36.5040,2.43,2.01,4.71,5.66
2022-11-15 11:10:36.5060,2.07,1.22,5.08,5.61
2022-11-15 11:10:36.5190,1.76,0.31,5.47,5.75
2022-11-15 11:10:36.5220,1.3,-0.65,5.69,5.87
2022-11-15 11:10:36.5360,0.78,-1.56,5.58,5.84
2022-11-15 11:10:36.5390,0.3,-2.24,5.07,5.55
2022-11-15 11:10:36.5520,-0.03,-2.59,4.03,4.79
2022-11-15 11:10:36.5550,-0.13,-2.6,2.71,3.75
2022-11-15 11:10:36.5680,-0.13,-2.45,1.36,2.8
2022-11-15 11:10:36.5700,-0.15,-2.28,0.2,2.29
2022-11-15 11:10:36.5880,-0.14,-2.2,-0.8,2.34
2022-11-15 11:10:36.5900,-0.06,-2.07,-1.58,2.6
2022-11-15 11:10:36.6050,-0.02,-1.87,-1.99,2.73
2022-11-15 11:10:36.6070,-0.13,-1.71,-2.03,2.65
2022-11-15 11:10:36.6210,-0.35,-1.6,-1.78,2.41
2022-11-15 11:10:36.6230,-0.73,-1.47,-1.52,2.23
2022-11-15 11:10:36.6360,-0.96,-1.33,-1.35,2.12
2022-11-15 11:10:36.6390,-1.17,-1.24,-1.16,2.06
2022-11-15 11:10:36.6520,-1.27,-1.19,-1.02,2.01
2022-11-15 11:10:36.6540,-1.25,-1.15,-0.97,1.95
2022-11-15 11:10:36.6710,-1.31,-1.05,-1.09,2.0
2022-11-15 11:10:36.6730,-1.29,-0.9,-1.49,2.16
2022-11-15 11:10:36.6870,-1.08,-0.7,-2.03,2.4
2022-11-15 11:10:36.6890,-0.88,-0.66,-2.53,2.75
2022-11-15 11:10:36.7030,-0.88,-0.98,-2.94,3.22
2022-11-15 11:10:36.7060,-1.13,-1.55,-3.17,3.7
2022-11-15 11:10:36.7190,-1.39,-1.98,-3.22,4.02
2022-11-15 11:10:36.7220,-1.36,-1.78,-3.0,3.74
2022-11-15 11:10:36.7340,-1.16,-1.14,-2.74,3.18
2022-11-15 11:10:36.7370,-0.97,-0.43,-2.48,2.69
2022-11-15 11:10:36.7540,-0.81,0.18,-2.02,2.18
2022-11-15 11:10:36.7560,-0.68,0.51,-1.47,1.69
2022-11-15 11:10:36.7700,-0.6,0.59,-1.03,1.33
2022-11-15 11:10:36.7720,-0.56,0.44,-0.85,1.1
2022-11-15 11:10:36.7860,-0.43,0.16,-0.97,1.07
2022-11-15 11:10:36.7890,-0.39,-0.26,-1.24,1.32
2022-11-15 11:10:36.8040,-0.45,-0.66,-1.35,1.56
2022-11-15 11:10:36.8060,-0.59,-0.77,-1.15,1.5
2022-11-15 11:10:36.8180,-0.75,-0.74,-0.48,1.15
2022-11-15 11:10:36.8200,-0.87,-0.61,0.48,1.16
2022-11-15 11:10:36.8380,-1.01,-0.35,1.39,1.75
2022-11-15 11:10:36.8400,-1.12,-0.15,2.18,2.45
2022-11-15 11:10:36.8530,-1.15,-0.05,2.72,2.95
2022-11-15 11:10:36.8550,-1.04,0.08,2.87,3.05
2022-11-15 11:10:36.8700,-0.89,0.22,2.79,2.93
2022-11-15 11:10:36.8730,-0.82,0.3,2.35,2.5
2022-11-15 11:10:36.8860,-0.78,0.34,1.53,1.75
2022-11-15 11:10:36.8890,-0.66,0.48,0.64,1.03
2022-11-15 11:10:36.9010,-0.52,0.74,-0.11,0.91
2022-11-15 11:10:36.9030,-0.42,0.95,-0.52,1.16
2022-11-15 11:10:36.9210,-0.42,1.05,-0.35,1.18
2022-11-15 11:10:36.9230,-0.41,1.21,0.34,1.32
2022-11-15 11:10:36.9360,-0.41,1.36,1.14,1.82
2022-11-15 11:10:36.9380,-0.42,1.49,1.87,2.42
2022-11-15 11:10:36.9520,-0.32,1.64,2.51,3.01
2022-11-15 11:10:36.9550,-0.26,1.69,3.03,3.47
2022-11-15 11:10:36.9690,-0.27,1.52,3.41,3.74
2022-11-15 11:10:36.9720,-0.41,1.18,3.76,3.96
2022-11-15 11:10:36.9850,-0.57,0.73,4.05,4.15
2022-11-15 11:10:36.9870,-0.71,0.15,4.07,4.13
2022-11-15 11:10:37.0040,-0.92,-0.63,3.93,4.08
2022-11-15 11:10:37.0060,-1.08,-1.35,3.73,4.11
2022-11-15 11:10:37.0190,-1.18,-1.86,3.46,4.1
2022-11-15 11:10:37.0220,-1.23,-2.14,3.01,3.89
2022-11-15 11:10:37.0360,-1.26,-2.27,2.46,3.57
2022-11-15 11:10:37.0390,-1.34,-2.3,1.8,3.21
2022-11-15 11:10:37.0530,-1.37,-2.23,0.96,2.78
2022-11-15 11:10:37.0560,-1.35,-2.13,-0.08,2.52
2022-11-15 11:10:37.0680,-1.42,-2.13,-1.24,2.84
2022-11-15 11:10:37.0700,-1.61,-2.23,-2.41,3.65
2022-11-15 11:10:37.0880,-1.7,-2.28,-3.59,4.58
2022-11-15 11:10:37.0900,-1.72,-2.34,-4.4,5.27
2022-11-15 11:10:37.1040,-1.71,-2.48,-4.67,5.55
2022-11-15 11:10:37.1070,-1.56,-2.54,-4.58,5.46
2022-11-15 11:10:37.1200,-1.43,-2.52,-4.25,5.14
2022-11-15 11:10:37.1230,-1.4,-2.38,-3.85,4.73
2022-11-15 11:10:37.1360,-1.28,-2.15,-3.51,4.31
2022-11-15 11:10:37.1390,-1.18,-1.97,-3.3,4.02
2022-11-15 11:10:37.1510,-1.33,-2.04,-3.07,3.91
2022-11-15 11:10:37.1530,-1.45,-2.23,-2.58,3.7
2022-11-15 11:10:37.1710,-1.2,-2.26,-2.32,3.45
2022-11-15 11:10:37.1730,-0.62,-2.08,-2.37,3.21
2022-11-15 11:10:37.1870,0.06,-1.75,-2.26,2.85
2022-11-15 11:10:37.1880,0.67,-1.23,-1.82,2.29
2022-11-15 11:10:37.2020,1.05,-0.78,-1.32,1.85
2022-11-15 11:10:37.2040,1.19,-0.57,-0.87,1.58
2022-11-15 11:10:37.2180,1.44,-0.43,-0.71,1.66
2022-11-15 11:10:37.2210,1.5,-0.36,-1.02,1.84
2022-11-15 11:10:37.2360,1.48,-0.3,-1.37,2.03
2022-11-15 11:10:37.2380,1.48,-0.07,-1.43,2.05
2022-11-15 11:10:37.2540,1.49,0.36,-1.15,1.91
2022-11-15 11:10:37.2560,1.58,0.75,-0.72,1.89
2022-11-15 11:10:37.2680,1.67,1.09,-0.53,2.06
2022-11-15 11:10:37.2710,1.81,1.25,-0.32,2.22
2022-11-15 11:10:37.2870,1.92,1.19,-0.1,2.26
2022-11-15 11:10:37.2890,1.99,0.93,0.0,2.19
2022-11-15 11:10:37.3020,2.08,0.78,0.08,2.22
2022-11-15 11:10:37.3050,2.05,0.76,0.21,2.19
2022-11-15 11:10:37.3180,2.02,0.96,0.38,2.26
2022-11-15 11:10:37.3200,2.02,1.43,0.49,2.52
2022-11-15 11:10:37.3380,2.07,2.02,0.6,2.95
2022-11-15 11:10:37.3390,2.22,2.49,0.72,3.41
2022-11-15 11:10:37.3540,2.32,2.68,0.78,3.62
2022-11-15 11:10:37.3570,2.3,2.49,0.9,3.5
2022-11-15 11:10:37.3690,2.11,1.94,1.26,3.13
2022-11-15 11:10:37.3720,1.79,1.28,1.88,2.89
2022-11-15 11:10:37.3860,1.5,0.77,2.51,3.02
2022-11-15 11:10:37.3890,1.24,0.5,3.06,3.33
2022-11-15 11:10:37.4030,1.08,0.54,3.34,3.55
2022-11-15 11:10:37.4050,1.13,0.87,3.17,3.47
2022-11-15 11:10:37.4210,1.41,1.44,2.81,3.45
2022-11-15 11:10:37.4230,1.56,2.08,2.46,3.57
2022-11-15 11:10:37.4360,1.81,2.56,2.14,3.79
2022-11-15 11:10:37.4380,2.0,2.69,1.72,3.76
2022-11-15 11:10:37.4540,2.05,2.42,1.32,3.43
2022-11-15 11:10:37.4560,1.87,1.76,1.35,2.9
2022-11-15 11:10:37.4680,1.5,0.99,1.75,2.5
2022-11-15 11:10:37.4710,1.15,0.39,2.34,2.63
2022-11-15 11:10:37.4850,0.79,-0.12,3.05,3.15
2022-11-15 11:10:37.4870,0.32,-0.68,3.53,3.6
2022-11-15 11:10:37.5040,-0.01,-1.22,3.57,3.77
2022-11-15 11:10:37.5060,-0.14,-1.63,3.08,3.48
2022-11-15 11:10:37.5190,-0.08,-1.95,1.99,2.78
2022-11-15 11:10:37.5220,0.09,-2.19,0.61,2.27
2022-11-15 11:10:37.5370,0.32,-2.29,-0.7,2.41
2022-11-15 11:10:37.5400,0.67,-2.24,-1.8,2.95
2022-11-15 11:10:37.5540,0.84,-2.17,-2.48,3.4
2022-11-15 11:10:37.5560,0.79,-2.17,-2.69,3.54
2022-11-15 11:10:37.5680,0.65,-2.07,-2.45,3.27
2022-11-15 11:10:37.5700,0.43,-1.68,-1.95,2.6
2022-11-15 11:10:37.5880,0.3,-1.18,-1.33,1.8
2022-11-15 11:10:37.5900,0.18,-0.72,-0.78,1.07
2022-11-15 11:10:37.6040,0.04,-0.42,-0.38,0.56
2022-11-15 11:10:37.6060,-0.11,-0.36,-0.14,0.4
2022-11-15 11:10:37.6190,-0.36,-0.47,-0.07,0.59
2022-11-15 11:10:37.6210,-0.61,-0.75,-0.19,0.98
2022-11-15 11:10:37.6370,-0.64,-0.96,-0.47,1.24
2022-11-15 11:10:37.6400,-0.66,-1.11,-1.07,1.67
2022-11-15 11:10:37.6520,-0.76,-1.2,-1.98,2.43
2022-11-15 11:10:37.6540,-0.8,-1.16,-2.9,3.22
2022-11-15 11:10:37.6710,-0.6,-0.91,-3.73,3.88
2022-11-15 11:10:37.6730,-0.32,-0.57,-4.11,4.16
2022-11-15 11:10:37.6870,-0.17,-0.25,-4.06,4.07
2022-11-15 11:10:37.6880,-0.06,-0.1,-3.92,3.92
2022-11-15 11:10:37.7030,-0.08,-0.07,-3.71,3.71
2022-11-15 11:10:37.7060,-0.26,-0.07,-3.35,3.36
2022-11-15 11:10:37.7180,-0.2,0.06,-2.72,2.72
2022-11-15 11:10:37.7210,0.02,0.3,-1.88,1.9
2022-11-15 11:10:37.7340,-0.04,0.44,-0.9,1.0
2022-11-15 11:10:37.7370,-0.23,0.42,-0.16,0.5
2022-11-15 11:10:37.7540,-0.26,0.37,-0.01,0.45
2022-11-15 11:10:37.7560,-0.1,0.46,-0.23,0.52
2022-11-15 11:10:37.7700,0.1,0.69,-0.33,0.77
2022-11-15 11:10:37.7720,0.26,1.03,-0.19,1.07
2022-11-15 11:10:37.7870,0.26,1.37,0.1,1.39
2022-11-15 11:10:37.7890,0.31,1.63,0.42,1.71
2022-11-15 11:10:37.8030,0.41,1.71,0.68,1.88
2022-11-15 11:10:37.8060,0.46,1.58,1.0,1.92
2022-11-15 11:10:37.8180,0.42,1.23,1.65,2.1
2022-11-15 11:10:37.8200,0.03,0.73,2.54,2.64
2022-11-15 11:10:37.8380,-0.23,0.29,3.23,3.25
2022-11-15 11:10:37.8400,-0.05,0.2,3.62,3.62
2022-11-15 11:10:37.8540,0.05,0.35,3.67,3.68
2022-11-15 11:10:37.8570,0.01,0.66,3.44,3.5
2022-11-15 11:10:37.8690,-0.05,1.08,2.98,3.17
2022-11-15 11:10:37.8710,-0.08,1.54,2.36,2.81
2022-11-15 11:10:37.8870,-0.14,1.87,1.74,2.55
2022-11-15 11:10:37.8900,-0.4,2.03,1.36,2.47
2022-11-15 11:10:37.9020,-0.89,1.97,1.45,2.6
2022-11-15 11:10:37.9040,-1.38,2.15,2.32,3.45
2022-11-15 11:10:37.9210,-1.93,2.6,3.75,4.95
2022-11-15 11:10:37.9230,-2.54,2.92,4.84,6.19
2022-11-15 11:10:37.9370,-2.77,3.14,4.91,6.45
2022-11-15 11:10:37.9400,-2.58,3.09,3.73,5.48
2022-11-15 11:10:37.9540,-2.15,2.41,1.87,3.73
2022-11-15 11:10:37.9560,-1.8,1.16,0.33,2.16
2022-11-15 11:10:37.9690,-1.62,-0.26,-0.33,1.67
2022-11-15 11:10:37.9710,-1.46,-1.61,-0.22,2.18
2022-11-15 11:10:37.9860,-1.46,-2.81,0.38,3.18
2022-11-15 11:10:37.9880,-1.51,-3.72,1.2,4.19
2022-11-15 11:10:38.0040,-1.24,-4.19,1.77,4.71
2022-11-15 11:10:38.0060,-1.09,-4.38,1.92,4.9
2022-11-15 11:10:38.0200,-1.1,-4.43,1.69,4.86
2022-11-15 11:10:38.0220,-1.05,-4.26,1.21,4.55
2022-11-15 11:10:38.0370,-0.85,-3.82,0.68,3.97
2022-11-15 11:10:38.0390,-0.62,-3.3,0.18,3.36
2022-11-15 11:10:38.0540,-0.37,-2.77,-0.36,2.81
2022-11-15 11:10:38.0560,-0.27,-2.28,-0.94,2.48
2022-11-15 11:10:38.0680,-0.3,-2.03,-1.44,2.5
2022-11-15 11:10:38.0700,-0.34,-1.91,-1.83,2.66
2022-11-15 11:10:38.0880,-0.41,-1.86,-2.16,2.87
2022-11-15 11:10:38.0900,-0.47,-1.8,-2.36,3.0
2022-11-15 11:10:38.1030,-0.42,-1.59,-2.36,2.87
2022-11-15 11:10:38.1050,-0.3,-1.3,-2.41,2.75
2022-11-15 11:10:38.1190,-0.26,-1.03,-2.58,2.79
2022-11-15 11:10:38.1220,-0.26,-0.83,-2.72,2.85
2022-11-15 11:10:38.1370,-0.13,-0.71,-2.76,2.85
2022-11-15 11:10:38.1400,0.01,-0.68,-2.85,2.93
2022-11-15 11:10:38.1510,0.12,-0.75,-3.05,3.14
2022-11-15 11:10:38.1530,0.13,-0.91,-3.32,3.44
2022-11-15 11:10:38.1710,0.18,-1.03,-3.8,3.94
2022-11-15 11:10:38.1730,0.3,-1.06,-4.32,4.45
2022-11-15 11:10:38.1870,0.36,-0.92,-4.77,4.87
2022-11-15 11:10:38.1880,0.29,-0.47,-4.81,4.84
2022-11-15 11:10:38.2040,0.41,0.18,-4.16,4.18
2022-11-15 11:10:38.2060,0.39,0.68,-3.37,3.45
2022-11-15 11:10:38.2190,0.3,0.93,-2.59,2.76
2022-11-15 11:10:38.2220,0.24,0.96,-1.87,2.11
2022-11-15 11:10:38.2340,0.26,0.93,-1.52,1.8
2022-11-15 11:10:38.2370,0.32,0.94,-1.53,1.82
2022-11-15 11:10:38.2540,0.39,0.9,-1.77,2.02
2022-11-15 11:10:38.2560,0.32,0.83,-2.05,2.23
2022-11-15 11:10:38.2690,0.17,0.98,-2.1,2.32
2022-11-15 11:10:38.2720,0.44,1.52,-1.89,2.46
2022-11-15 11:10:38.2870,0.96,2.22,-1.41,2.79
2022-11-15 11:10:38.2900,1.49,2.74,-0.64,3.18
2022-11-15 11:10:38.3030,1.85,2.91,0.41,3.47
2022-11-15 11:10:38.3060,1.93,2.7,1.46,3.62
2022-11-15 11:10:38.3180,1.8,2.18,2.22,3.59
2022-11-15 11:10:38.3200,1.66,1.63,2.72,3.57
2022-11-15 11:10:38.3380,1.41,1.11,3.07,3.55
2022-11-15 11:10:38.3400,1.2,0.75,3.28,3.57
2022-11-15 11:10:38.3530,1.14,0.72,3.33,3.59
2022-11-15 11:10:38.3550,1.1,0.94,3.14,3.45
2022-11-15 11:10:38.3690,1.24,1.37,2.7,3.27
2022-11-15 11:10:38.3720,1.49,1.71,2.39,3.29
2022-11-15 11:10:38.3870,1.7,1.93,2.41,3.52
2022-11-15 11:10:38.3900,1.82,1.98,2.52,3.68
2022-11-15 11:10:38.4010,1.91,1.94,2.67,3.81
2022-11-15 11:10:38.4030,1.96,1.94,2.8,3.93
2022-11-15 11:10:38.4210,1.84,1.75,2.72,3.72
2022-11-15 11:10:38.4230,1.73,1.4,2.61,3.43
2022-11-15 11:10:38.4370,1.64,1.08,2.75,3.37
2022-11-15 11:10:38.4390,1.39,0.71,3.01,3.39
2022-11-15 11:10:38.4540,1.15,0.23,3.33,3.53
2022-11-15 11:10:38.4570,0.96,-0.32,3.61,3.74
2022-11-15 11:10:38.4700,0.71,-0.94,3.69,3.87
2022-11-15 11:10:38.4730,0.36,-1.65,3.35,3.75
2022-11-15 11:10:38.4840,0.08,-2.3,2.54,3.42
2022-11-15 11:10:38.4870,-0.08,-2.71,1.48,3.08
2022-11-15 11:10:38.5050,-0.06,-2.82,0.33,2.83
2022-11-15 11:10:38.5060,0.02,-2.58,-0.78,2.69
2022-11-15 11:10:38.5210,0.24,-2.1,-1.57,2.63
2022-11-15 11:10:38.5240,0.43,-1.58,-1.91,2.51
2022-11-15 11:10:38.5370,0.34,-1.17,-1.87,2.23
2022-11-15 11:10:38.5400,0.08,-1.0,-1.57,1.86
2022-11-15 11:10:38.5520,-0.24,-1.0,-1.26,1.62
2022-11-15 11:10:38.5540,-0.47,-1.07,-0.99,1.53
2022-11-15 11:10:38.5680,-0.69,-1.19,-0.81,1.59
2022-11-15 11:10:38.5700,-0.86,-1.31,-0.89,1.8
2022-11-15 11:10:38.5880,-1.08,-1.5,-1.23,2.22
2022-11-15 11:10:38.5890,-1.26,-1.68,-1.67,2.68
2022-11-15 11:10:38.6020,-1.36,-1.69,-2.35,3.19
2022-11-15 11:10:38.6050,-1.34,-1.43,-3.1,3.66
2022-11-15 11:10:38.6190,-1.13,-0.97,-3.54,3.84
2022-11-15 11:10:38.6220,-1.06,-0.65,-3.75,3.95
2022-11-15 11:10:38.6370,-1.2,-0.6,-3.65,3.88
2022-11-15 11:10:38.6400,-1.22,-0.66,-3.37,3.64
2022-11-15 11:10:38.6510,-1.14,-0.63,-3.04,3.3
2022-11-15 11:10:38.6530,-1.07,-0.62,-2.72,2.98
2022-11-15 11:10:38.6710,-1.08,-0.58,-2.56,2.83
2022-11-15 11:10:38.6730,-1.03,-0.47,-2.59,2.82
2022-11-15 11:10:38.6870,-0.82,-0.31,-2.66,2.8
2022-11-15 11:10:38.6880,-0.56,-0.14,-2.77,2.82
2022-11-15 11:10:38.7020,-0.48,-0.08,-2.61,2.65
2022-11-15 11:10:38.7050,-0.53,-0.03,-2.1,2.16
2022-11-15 11:10:38.7190,-0.37,0.22,-1.53,1.58
2022-11-15 11:10:38.7220,-0.11,0.57,-0.86,1.03
2022-11-15 11:10:38.7340,0.1,0.76,-0.22,0.79
2022-11-15 11:10:38.7370,0.22,0.68,0.4,0.81
2022-11-15 11:10:38.7540,0.26,0.4,1.15,1.24
2022-11-15 11:10:38.7560,0.28,0.13,2.0,2.02
2022-11-15 11:10:38.7700,0.18,-0.08,3.01,3.01
2022-11-15 11:10:38.7720,0.03,-0.2,4.06,4.06
2022-11-15 11:10:38.7870,0.05,-0.12,4.82,4.82
2022-11-15 11:10:38.7900,0.13,0.08,5.01,5.01
2022-11-15 11:10:38.8030,0.13,0.25,4.91,4.91
2022-11-15 11:10:38.8060,0.03,0.36,4.66,4.67
2022-11-15 11:10:38.8180,-0.11,0.41,4.23,4.25
2022-11-15 11:10:38.8200,-0.16,0.49,3.8,3.83
2022-11-15 11:10:38.8380,-0.08,0.71,3.41,3.48
2022-11-15 11:10:38.8390,-0.05,0.84,3.12,3.23
2022-11-15 11:10:38.8540,0.1,0.9,3.17,3.29
2022-11-15 11:10:38.8570,0.25,1.03,3.47,3.62
2022-11-15 11:10:38.8690,0.31,1.15,3.78,3.96
2022-11-15 11:10:38.8720,0.41,1.2,3.92,4.12
2022-11-15 11:10:38.8870,0.42,1.01,3.83,3.98
2022-11-15 11:10:38.8890,0.21,0.63,3.59,3.65
2022-11-15 11:10:38.9010,0.01,0.26,3.24,3.25
2022-11-15 11:10:38.9030,-0.07,-0.03,2.8,2.8
2022-11-15 11:10:38.9210,-0.14,-0.36,2.47,2.5
2022-11-15 11:10:38.9230,-0.36,-0.83,2.26,2.43
2022-11-15 11:10:38.9360,-0.7,-1.48,2.12,2.67
2022-11-15 11:10:38.9380,-1.02,-2.1,1.97,3.05
2022-11-15 11:10:38.9520,-1.2,-2.61,1.63,3.3
2022-11-15 11:10:38.9550,-1.33,-2.88,1.04,3.33
2022-11-15 11:10:38.9690,-1.35,-2.79,0.36,3.12
2022-11-15 11:10:38.9720,-1.2,-2.47,-0.13,2.74
2022-11-15 11:10:38.9840,-1.2,-2.16,-0.47,2.51
2022-11-15 11:10:38.9860,-1.33,-2.04,-0.63,2.51
2022-11-15 11:10:39.0040,-1.46,-1.98,-0.7,2.55
2022-11-15 11:10:39.0060,-1.6,-1.86,-0.86,2.59
2022-11-15 11:10:39.0200,-1.69,-1.69,-1.16,2.65
2022-11-15 11:10:39.0220,-1.74,-1.54,-1.47,2.74
2022-11-15 11:10:39.0370,-1.73,-1.4,-1.93,2.94
2022-11-15 11:10:39.0400,-1.56,-1.24,-2.63,3.29
2022-11-15 11:10:39.0530,-1.33,-1.1,-3.34,3.75
2022-11-15 11:10:39.0560,-1.17,-1.07,-3.96,4.26
2022-11-15 11:10:39.0680,-0.99,-1.09,-4.47,4.7
2022-11-15 11:10:39.0700,-0.9,-1.13,-4.88,5.08
2022-11-15 11:10:39.0880,-0.86,-1.17,-5.15,5.35
2022-11-15 11:10:39.0900,-0.79,-1.23,-5.24,5.44
2022-11-15 11:10:39.1040,-0.75,-1.29,-5.12,5.33
2022-11-15 11:10:39.1070,-0.86,-1.34,-4.9,5.15
2022-11-15 11:10:39.1190,-0.96,-1.33,-4.67,4.94
2022-11-15 11:10:39.1220,-1.09,-1.28,-4.51,4.81
2022-11-15 11:10:39.1370,-1.22,-1.05,-4.35,4.63
2022-11-15 11:10:39.1400,-1.16,-0.68,-4.05,4.26
2022-11-15 11:10:39.1510,-0.99,-0.35,-3.69,3.83
2022-11-15 11:10:39.1530,-0.77,-0.11,-3.37,3.45
2022-11-15 11:10:39.1710,-0.35,0.1,-3.05,3.07
2022-11-15 11:10:39.1730,0.18,0.31,-2.81,2.83
2022-11-15 11:10:39.1880,0.47,0.3,-2.6,2.65
2022-11-15 11:10:39.1900,0.7,0.23,-2.28,2.39
2022-11-15 11:10:39.2030,1.07,0.36,-1.85,2.16
2022-11-15 11:10:39.2060,1.45,0.65,-1.22,2.0
2022-11-15 11:10:39.2190,1.91,1.02,-0.46,2.21
2022-11-15 11:10:39.2220,2.35,1.41,0.33,2.76
2022-11-15 11:10:39.2340,2.65,1.6,1.09,3.28
2022-11-15 11:10:39.2360,2.68,1.54,1.98,3.67
2022-11-15 11:10:39.2540,2.51,1.38,2.79,3.99
2022-11-15 11:10:39.2560,2.21,1.08,3.51,4.28
2022-11-15 11:10:39.2700,2.05,0.69,4.08,4.61
2022-11-15 11:10:39.2720,1.84,0.29,4.41,4.78
2022-11-15 11:10:39.2870,1.52,0.02,4.58,4.82
2022-11-15 11:10:39.2900,1.25,0.08,4.57,4.73
2022-11-15 11:10:39.3010,1.2,0.49,4.42,4.6
2022-11-15 11:10:39.3040,1.27,1.06,4.29,4.59
2022-11-15 11:10:39.3180,1.25,1.67,4.23,4.71
2022-11-15 11:10:39.3200,1.18,2.26,4.06,4.79
2022-11-15 11:10:39.3380,1.13,2.73,3.64,4.68
2022-11-15 11:10:39.3390,1.11,3.01,2.99,4.38
2022-11-15 11:10:39.3530,1.19,3.13,2.3,4.06
2022-11-15 11:10:39.3560,1.4,3.21,1.86,3.96
2022-11-15 11:10:39.3690,1.55,3.09,1.83,3.91
2022-11-15 11:10:39.3720,1.43,2.52,2.37,3.74
2022-11-15 11:10:39.3870,1.12,1.66,3.04,3.64
2022-11-15 11:10:39.3900,0.66,0.59,3.61,3.71
2022-11-15 11:10:39.4020,0.11,-0.65,4.1,4.15
2022-11-15 11:10:39.4040,-0.52,-1.88,4.19,4.62
2022-11-15 11:10:39.4210,-1.03,-2.86,3.76,4.83
2022-11-15 11:10:39.4230,-1.21,-3.33,2.81,4.52
2022-11-15 11:10:39.4380,-0.99,-3.21,1.47,3.66
2022-11-15 11:10:39.4410,-0.66,-2.76,-0.02,2.83
2022-11-15 11:10:39.4530,-0.31,-2.23,-1.39,2.64
2022-11-15 11:10:39.4560,0.12,-1.63,-2.45,2.94
2022-11-15 11:10:39.4700,0.44,-1.13,-3.02,3.25
2022-11-15 11:10:39.4720,0.53,-0.84,-3.17,3.32
2022-11-15 11:10:39.4850,0.45,-0.69,-2.98,3.09
2022-11-15 11:10:39.4870,0.33,-0.66,-2.45,2.55
2022-11-15 11:10:39.5040,0.16,-0.79,-1.73,1.9
2022-11-15 11:10:39.5060,0.02,-0.93,-1.16,1.48
2022-11-15 11:10:39.5200,-0.16,-1.11,-0.73,1.33
2022-11-15 11:10:39.5220,-0.32,-1.34,-0.36,1.42
2022-11-15 11:10:39.5370,-0.56,-1.7,-0.13,1.79
2022-11-15 11:10:39.5400,-0.87,-2.1,-0.28,2.29
2022-11-15 11:10:39.5530,-1.13,-2.34,-0.75,2.7
2022-11-15 11:10:39.5560,-1.31,-2.44,-1.37,3.08
2022-11-15 11:10:39.5680,-1.43,-2.43,-2.06,3.49
2022-11-15 11:10:39.5700,-1.5,-2.44,-2.8,4.0
2022-11-15 11:10:39.5880,-1.67,-2.52,-3.6,4.7
2022-11-15 11:10:39.5900,-1.86,-2.58,-4.35,5.38
2022-11-15 11:10:39.6050,-1.89,-2.52,-4.98,5.89
2022-11-15 11:10:39.6080,-1.86,-2.33,-5.48,6.23
2022-11-15 11:10:39.6200,-1.81,-2.07,-5.86,6.47
2022-11-15 11:10:39.6230,-1.66,-1.7,-5.97,6.42
2022-11-15 11:10:39.6370,-1.48,-1.23,-5.84,6.14
2022-11-15 11:10:39.6400,-1.45,-0.76,-5.52,5.75
2022-11-15 11:10:39.6510,-1.45,-0.27,-4.99,5.2
2022-11-15 11:10:39.6530,-1.31,0.22,-4.35,4.54
2022-11-15 11:10:39.6710,-1.1,0.68,-3.62,3.84
2022-11-15 11:10:39.6730,-0.87,0.99,-2.69,2.99
2022-11-15 11:10:39.6860,-0.5,1.12,-1.55,1.97
2022-11-15 11:10:39.6880,-0.23,1.1,-0.39,1.18
2022-11-15 11:10:39.7020,-0.28,0.87,0.67,1.13
2022-11-15 11:10:39.7040,-0.41,0.5,1.58,1.7
2022-11-15 11:10:39.7200,-0.49,0.07,2.3,2.35
2022-11-15 11:10:39.7230,-0.58,-0.35,2.75,2.83
2022-11-15 11:10:39.7340,-0.62,-0.62,3.04,3.16
2022-11-15 11:10:39.7370,-0.47,-0.56,3.23,3.31
2022-11-15 11:10:39.7540,-0.12,-0.2,3.36,3.36
2022-11-15 11:10:39.7560,0.31,0.33,3.46,3.48
2022-11-15 11:10:39.7700,0.69,0.78,3.55,3.69
2022-11-15 11:10:39.7730,0.89,1.03,3.54,3.79
2022-11-15 11:10:39.7870,0.89,1.02,3.32,3.58
2022-11-15 11:10:39.7890,0.81,0.95,3.02,3.26
2022-11-15 11:10:39.8010,0.73,0.91,2.78,3.01
2022-11-15 11:10:39.8040,0.59,0.9,2.7,2.9
2022-11-15 11:10:39.8190,0.5,0.96,2.61,2.82
2022-11-15 11:10:39.8220,0.49,1.1,2.42,2.7
2022-11-15 11:10:39.8380,0.5,1.3,2.19,2.59
2022-11-15 11:10:39.8400,0.46,1.5,1.9,2.46
2022-11-15 11:10:39.8540,0.46,1.63,1.57,2.3
2022-11-15 11:10:39.8570,0.54,1.78,1.43,2.34
2022-11-15 11:10:39.8700,0.66,2.03,1.59,2.66
2022-11-15 11:10:39.8720,0.74,2.26,2.12,3.18
2022-11-15 11:10:39.8860,0.67,2.32,2.83,3.72
2022-11-15 11:10:39.8890,0.43,2.16,3.49,4.12
2022-11-15 11:10:39.9010,0.07,1.73,3.88,4.24
2022-11-15 11:10:39.9030,-0.22,1.06,3.83,3.98
2022-11-15 11:10:39.9210,-0.38,0.29,3.47,3.5
2022-11-15 11:10:39.9230,-0.52,-0.57,2.94,3.03
2022-11-15 11:10:39.9360,-0.6,-1.42,2.35,2.81
2022-11-15 11:10:39.9380,-0.76,-2.31,1.87,3.06
2022-11-15 11:10:39.9520,-1.05,-3.23,1.52,3.72
2022-11-15 11:10:39.9550,-1.37,-4.04,1.16,4.42
2022-11-15 11:10:39.9700,-1.65,-4.62,0.71,4.95
2022-11-15 11:10:39.9730,-1.86,-4.85,0.19,5.19
2022-11-15 11:10:39.9850,-1.94,-4.69,-0.41,5.09
2022-11-15 11:10:39.9870,-1.9,-4.16,-1.05,4.69
2022-11-15 11:10:40.0040,-1.84,-3.4,-1.63,4.19
2022-11-15 11:10:40.0060,-1.75,-2.56,-2.22,3.81
2022-11-15 11:10:40.0200,-1.57,-1.74,-2.81,3.65
2022-11-15 11:10:40.0220,-1.24,-0.92,-3.32,3.66
2022-11-15 11:10:40.0370,-0.97,-0.19,-3.73,3.85
2022-11-15 11:10:40.0390,-0.74,0.39,-4.05,4.13
2022-11-15 11:10:40.0530,-0.52,0.84,-4.29,4.4
2022-11-15 11:10:40.0560,-0.33,1.1,-4.5,4.64
2022-11-15 11:10:40.0680,-0.22,1.16,-4.71,4.85
2022-11-15 11:10:40.0700,-0.17,1.08,-4.89,5.01
2022-11-15 11:10:40.0880,-0.13,0.92,-5.07,5.15
2022-11-15 11:10:40.0900,-0.1,0.74,-5.25,5.3
2022-11-15 11:10:40.1030,-0.19,0.46,-5.41,5.43
2022-11-15 11:10:40.1050,-0.35,0.08,-5.6,5.61
2022-11-15 11:10:40.1190,-0.47,-0.22,-5.73,5.75
2022-11-15 11:10:40.1210,-0.47,-0.32,-5.78,5.8
2022-11-15 11:10:40.1370,-0.42,-0.29,-5.71,5.73
2022-11-15 11:10:40.1400,-0.41,-0.25,-5.52,5.54
2022-11-15 11:10:40.1510,-0.37,-0.17,-5.14,5.15
2022-11-15 11:10:40.1530,-0.15,-0.04,-4.43,4.43
2022-11-15 11:10:40.1710,0.37,0.13,-3.49,3.51
2022-11-15 11:10:40.1730,0.74,0.16,-2.33,2.44
2022-11-15 11:10:40.1870,0.9,0.04,-1.03,1.36
2022-11-15 11:10:40.1880,0.98,-0.12,0.21,1.0
2022-11-15 11:10:40.2020,1.11,-0.21,1.36,1.76
2022-11-15 11:10:40.2040,1.17,-0.27,2.43,2.71
2022-11-15 11:10:40.2200,1.08,-0.38,3.33,3.52
2022-11-15 11:10:40.2220,1.08,-0.57,3.72,3.91
2022-11-15 11:10:40.2340,1.21,-0.65,3.47,3.73
2022-11-15 11:10:40.2370,1.45,-0.43,2.96,3.32
2022-11-15 11:10:40.2540,1.86,0.08,2.56,3.16
2022-11-15 11:10:40.2560,1.99,0.66,2.55,3.3
2022-11-15 11:10:40.2710,1.7,1.13,3.08,3.69
2022-11-15 11:10:40.2730,1.24,1.51,3.74,4.21
2022-11-15 11:10:40.2860,0.68,1.83,4.41,4.82
2022-11-15 11:10:40.2890,0.03,1.98,5.25,5.61
2022-11-15 11:10:40.3020,-0.59,2.13,5.75,6.16
2022-11-15 11:10:40.3050,-0.91,2.37,5.83,6.35
2022-11-15 11:10:40.3180,-0.7,2.82,5.66,6.36
2022-11-15 11:10:40.3200,-0.13,3.39,5.32,6.3
2022-11-15 11:10:40.3380,0.39,3.84,4.85,6.19
2022-11-15 11:10:40.3400,0.71,4.09,4.35,6.01
2022-11-15 11:10:40.3530,0.98,4.04,3.78,5.61
2022-11-15 11:10:40.3550,1.38,3.56,3.14,4.94
2022-11-15 11:10:40.3690,1.67,2.65,2.56,4.04
2022-11-15 11:10:40.3710,1.96,1.54,2.27,3.37
2022-11-15 11:10:40.3870,2.12,0.34,2.3,3.14
2022-11-15 11:10:40.3900,2.08,-0.88,2.49,3.36
2022-11-15 11:10:40.4010,2.02,-1.96,2.77,3.94
2022-11-15 11:10:40.4030,1.78,-2.89,2.93,4.48
2022-11-15 11:10:40.4210,1.55,-3.51,2.62,4.64
2022-11-15 11:10:40.4230,1.6,-3.66,1.75,4.36
2022-11-15 11:10:40.4370,1.79,-3.41,0.53,3.88
2022-11-15 11:10:40.4380,1.95,-2.85,-0.53,3.49
2022-11-15 11:10:40.4520,1.97,-2.24,-1.37,3.28
2022-11-15 11:10:40.4550,2.05,-1.61,-1.91,3.23
2022-11-15 11:10:40.4700,2.21,-0.99,-2.16,3.24
2022-11-15 11:10:40.4730,2.21,-0.43,-2.27,3.19
2022-11-15 11:10:40.4850,2.02,-0.05,-2.2,2.98
2022-11-15 11:10:40.4870,1.93,0.11,-1.89,2.7
2022-11-15 11:10:40.5040,1.89,0.01,-1.36,2.32
2022-11-15 11:10:40.5060,1.73,-0.33,-0.74,1.91
2022-11-15 11:10:40.5200,1.39,-0.89,-0.13,1.65
2022-11-15 11:10:40.5230,1.05,-1.64,0.41,1.99
2022-11-15 11:10:40.5350,0.81,-2.16,0.48,2.35
2022-11-15 11:10:40.5380,0.68,-2.32,-0.01,2.41
2022-11-15 11:10:40.5520,0.65,-2.19,-0.78,2.41
2022-11-15 11:10:40.5550,0.45,-1.99,-1.5,2.53
2022-11-15 11:10:40.5680,0.11,-1.83,-2.3,2.94
2022-11-15 11:10:40.5700,-0.15,-1.57,-3.27,3.63
2022-11-15 11:10:40.5880,-0.43,-1.32,-4.11,4.33
2022-11-15 11:10:40.5890,-0.6,-1.14,-4.73,4.9
2022-11-15 11:10:40.6040,-0.92,-1.08,-4.99,5.18
2022-11-15 11:10:40.6070,-1.45,-1.26,-4.48,4.87
2022-11-15 11:10:40.6200,-1.95,-1.46,-3.27,4.07
2022-11-15 11:10:40.6230,-2.64,-1.56,-1.77,3.54
2022-11-15 11:10:40.6370,-3.12,-1.28,-0.46,3.4
2022-11-15 11:10:40.6400,-3.13,-0.62,0.11,3.19
2022-11-15 11:10:40.6510,-2.72,0.21,0.07,2.72
2022-11-15 11:10:40.6540,-2.36,0.81,-0.34,2.51
2022-11-15 11:10:40.6710,-2.06,0.92,-0.66,2.35
2022-11-15 11:10:40.6730,-2.14,0.76,-1.1,2.52
2022-11-15 11:10:40.6870,-1.96,0.58,-1.17,2.35
2022-11-15 11:10:40.6890,-1.48,0.39,-0.44,1.59
2022-11-15 11:10:40.7030,-0.84,0.27,0.29,0.92
2022-11-15 11:10:40.7060,-0.36,0.08,0.85,0.92
2022-11-15 11:10:40.7190,0.17,-0.1,1.01,1.02
2022-11-15 11:10:40.7220,0.75,-0.33,0.86,1.18
2022-11-15 11:10:40.7340,1.08,-0.58,0.71,1.41
2022-11-15 11:10:40.7360,1.26,-0.47,0.38,1.39
2022-11-15 11:10:40.7540,1.77,-0.72,0.76,2.05
2022-11-15 11:10:40.7560,1.4,-0.87,1.34,2.12
2022-11-15 11:10:40.7710,1.29,-0.73,1.21,1.91
2022-11-15 11:10:40.7730,1.65,-0.55,1.08,2.04
2022-11-15 11:10:40.7870,1.83,-0.31,1.21,2.21
2022-11-15 11:10:40.7900,1.83,-0.02,1.58,2.41
2022-11-15 11:10:40.8020,2.0,0.34,2.1,2.91
2022-11-15 11:10:40.8040,2.29,0.67,3.05,3.87
2022-11-15 11:10:40.8180,2.56,0.95,5.33,5.98
2022-11-15 11:10:40.8200,2.79,1.51,4.01,5.11
2022-11-15 11:10:40.8380,3.31,1.7,4.07,5.51
2022-11-15 11:10:40.8390,3.23,1.43,4.04,5.36
2022-11-15 11:10:40.8540,2.68,0.77,3.64,4.58
2022-11-15 11:10:40.8550,2.05,0.0,3.67,4.2
2022-11-15 11:10:40.8700,1.2,-0.38,3.54,3.75
2022-11-15 11:10:40.8730,0.53,-0.22,3.27,3.31
2022-11-15 11:10:40.8850,-0.19,-0.82,2.78,2.9
2022-11-15 11:10:40.8880,-0.73,-0.73,2.23,2.45
2022-11-15 11:10:40.9010,-1.23,-0.7,1.53,2.08
2022-11-15 11:10:40.9030,-1.57,-0.75,0.99,2.0
2022-11-15 11:10:40.9210,-1.81,-0.72,0.41,1.99
2022-11-15 11:10:40.9230,-1.92,-0.52,-0.08,1.99
2022-11-15 11:10:40.9360,-1.85,-0.26,-0.34,1.89
2022-11-15 11:10:40.9380,-1.75,-0.15,-0.42,1.8
2022-11-15 11:10:40.9520,-1.72,-0.19,-0.37,1.76
2022-11-15 11:10:40.9550,-1.79,-0.38,-0.39,1.87
2022-11-15 11:10:40.9680,-1.86,-0.68,-0.55,2.05
2022-11-15 11:10:40.9710,-1.9,-1.08,-0.88,2.35
2022-11-15 11:10:40.9840,-2.05,-1.55,-1.32,2.88
2022-11-15 11:10:40.9870,-2.19,-1.99,-1.92,3.52
2022-11-15 11:10:41.0040,-2.26,-2.22,-2.69,4.15
2022-11-15 11:10:41.0060,-2.23,-2.27,-3.61,4.81
2022-11-15 11:10:41.0210,-2.13,-2.08,-4.57,5.45
2022-11-15 11:10:41.0240,-2.02,-1.68,-5.43,6.03
2022-11-15 11:10:41.0360,-1.8,-1.32,-6.1,6.49
2022-11-15 11:10:41.0380,-1.45,-1.01,-6.51,6.74
2022-11-15 11:10:41.0520,-1.23,-0.88,-6.57,6.74
2022-11-15 11:10:41.0550,-1.11,-0.85,-6.09,6.24
2022-11-15 11:10:41.0670,-1.01,-0.78,-5.3,5.45
2022-11-15 11:10:41.0690,-0.92,-0.64,-4.4,4.54
2022-11-15 11:10:41.0870,-0.89,-0.44,-3.45,3.59
2022-11-15 11:10:41.0890,-0.91,-0.23,-2.73,2.88
2022-11-15 11:10:41.1030,-0.84,-0.06,-2.28,2.43
2022-11-15 11:10:41.1050,-0.68,0.03,-2.11,2.21
2022-11-15 11:10:41.1200,-0.4,0.23,-2.17,2.21
2022-11-15 11:10:41.1230,-0.01,0.66,-2.07,2.17
2022-11-15 11:10:41.1370,0.54,1.11,-1.77,2.15
2022-11-15 11:10:41.1400,1.05,1.4,-1.45,2.27
2022-11-15 11:10:41.1510,1.21,1.46,-1.12,2.2
2022-11-15 11:10:41.1530,1.24,1.36,-0.81,2.01
2022-11-15 11:10:41.1710,1.35,1.21,-0.54,1.89
2022-11-15 11:10:41.1730,1.66,1.2,-0.41,2.08
2022-11-15 11:10:41.1880,2.06,1.33,-0.35,2.47
2022-11-15 11:10:41.1910,2.42,1.26,-0.16,2.73
2022-11-15 11:10:41.2020,2.73,1.01,0.21,2.91
2022-11-15 11:10:41.2050,2.96,0.76,0.89,3.18
2022-11-15 11:10:41.2200,2.93,0.52,1.91,3.53
2022-11-15 11:10:41.2240,2.72,0.22,3.0,4.05
2022-11-15 11:10:41.2350,2.3,-0.13,4.06,4.66
2022-11-15 11:10:41.2370,1.73,-0.48,4.93,5.24
2022-11-15 11:10:41.2520,1.18,-0.83,5.5,5.68
2022-11-15 11:10:41.2540,0.83,-1.13,5.46,5.63
2022-11-15 11:10:41.2690,0.96,-0.91,4.82,4.99
2022-11-15 11:10:41.2710,1.52,-0.13,3.99,4.27
2022-11-15 11:10:41.2860,2.24,0.81,3.18,3.97
2022-11-15 11:10:41.2890,2.8,1.53,2.52,4.06
2022-11-15 11:10:41.3020,2.94,1.77,2.25,4.1
2022-11-15 11:10:41.3050,2.56,1.34,2.37,3.73
2022-11-15 11:10:41.3180,1.78,0.43,2.67,3.23
2022-11-15 11:10:41.3200,1.08,-0.45,2.8,3.03
2022-11-15 11:10:41.3360,0.49,-1.1,2.76,3.01
2022-11-15 11:10:41.3380,0.06,-1.47,2.67,3.04
2022-11-15 11:10:41.3520,-0.05,-1.44,2.56,2.93
2022-11-15 11:10:41.3540,0.13,-1.16,2.24,2.52
2022-11-15 11:10:41.3680,0.3,-0.87,1.64,1.88
2022-11-15 11:10:41.3710,0.41,-0.61,0.93,1.18
2022-11-15 11:10:41.3840,0.56,-0.4,0.28,0.74
2022-11-15 11:10:41.3870,0.71,-0.3,-0.31,0.83
2022-11-15 11:10:41.4000,0.76,-0.35,-0.81,1.16
2022-11-15 11:10:41.4010,0.62,-0.52,-1.16,1.41
2022-11-15 11:10:41.4200,0.28,-0.84,-1.33,1.59
2022-11-15 11:10:41.4230,-0.09,-1.19,-1.29,1.75
2022-11-15 11:10:41.4350,-0.4,-1.46,-1.21,1.93
2022-11-15 11:10:41.4370,-0.67,-1.63,-1.09,2.07
2022-11-15 11:10:41.4530,-0.82,-1.7,-0.98,2.12
2022-11-15 11:10:41.4550,-0.98,-1.78,-0.98,2.25
2022-11-15 11:10:41.4680,-1.25,-1.92,-1.16,2.56
2022-11-15 11:10:41.4710,-1.57,-2.07,-1.53,3.01
2022-11-15 11:10:41.4840,-1.89,-2.23,-2.03,3.55
2022-11-15 11:10:41.4860,-2.2,-2.34,-2.58,4.11
2022-11-15 11:10:41.5040,-2.47,-2.35,-3.22,4.68
2022-11-15 11:10:41.5060,-2.65,-2.22,-3.87,5.18
2022-11-15 11:10:41.5190,-2.75,-1.94,-4.4,5.53
2022-11-15 11:10:41.5220,-2.74,-1.58,-4.74,5.69
2022-11-15 11:10:41.5350,-2.74,-1.2,-4.83,5.68
2022-11-15 11:10:41.5370,-2.79,-0.86,-4.6,5.44
2022-11-15 11:10:41.5530,-2.72,-0.58,-4.1,4.95
2022-11-15 11:10:41.5550,-2.45,-0.24,-3.59,4.35
2022-11-15 11:10:41.5690,-1.91,0.28,-3.08,3.63
2022-11-15 11:10:41.5710,-1.18,0.84,-2.6,2.97
2022-11-15 11:10:41.5880,-0.39,1.2,-2.26,2.58
2022-11-15 11:10:41.5900,0.19,1.2,-2.0,2.34
2022-11-15 11:10:41.6030,0.36,0.93,-1.63,1.91
2022-11-15 11:10:41.6040,0.25,0.56,-1.11,1.26
2022-11-15 11:10:41.6190,0.13,0.31,-0.47,0.57
2022-11-15 11:10:41.6210,0.31,0.37,0.53,0.71
2022-11-15 11:10:41.6350,0.69,0.56,1.84,2.04
2022-11-15 11:10:41.6380,1.03,0.71,3.42,3.64
2022-11-15 11:10:41.6520,1.04,0.56,5.0,5.13
2022-11-15 11:10:41.6540,0.74,0.02,6.29,6.33
2022-11-15 11:10:41.6710,0.35,-0.86,7.16,7.21
2022-11-15 11:10:41.6730,0.07,-1.63,7.32,7.49
2022-11-15 11:10:41.6850,0.19,-1.76,6.78,7.0
2022-11-15 11:10:41.6870,0.52,-1.15,5.49,5.63
2022-11-15 11:10:41.7010,0.74,-0.21,3.75,3.82
2022-11-15 11:10:41.7030,0.95,0.88,1.95,2.34
2022-11-15 11:10:41.7190,1.13,1.8,0.36,2.15
2022-11-15 11:10:41.7210,1.74,2.48,-0.2,3.03
2022-11-15 11:10:41.7350,0.77,3.03,-1.13,3.32
2022-11-15 11:10:41.7370,1.73,3.52,-0.61,3.96
2022-11-15 11:10:41.7550,1.71,3.66,0.33,4.05
2022-11-15 11:10:41.7570,1.53,3.5,1.49,4.1
2022-11-15 11:10:41.7700,1.16,2.84,2.61,4.02
2022-11-15 11:10:41.7720,0.66,1.97,3.49,4.06
2022-11-15 11:10:41.7840,0.14,1.1,3.95,4.1
2022-11-15 11:10:41.7860,-0.42,0.2,3.87,3.89
2022-11-15 11:10:41.8030,-0.95,-0.65,3.44,3.62
2022-11-15 11:10:41.8060,-1.44,-1.33,2.81,3.42
2022-11-15 11:10:41.8180,-1.92,-1.88,2.14,3.43
2022-11-15 11:10:41.8200,-2.33,-2.34,1.53,3.63
2022-11-15 11:10:41.8380,-2.52,-2.53,0.81,3.66
2022-11-15 11:10:41.8400,-2.46,-2.45,0.01,3.47
2022-11-15 11:10:41.8550,-2.22,-2.16,-0.71,3.17
2022-11-15 11:10:41.8580,-1.93,-1.83,-1.41,3.01
2022-11-15 11:10:41.8700,-1.77,-1.59,-2.03,3.12
2022-11-15 11:10:41.8730,-1.74,-1.48,-2.43,3.33
2022-11-15 11:10:41.8870,-1.68,-1.37,-2.6,3.38
2022-11-15 11:10:41.8900,-1.48,-1.19,-2.62,3.23
2022-11-15 11:10:41.9020,-1.25,-0.95,-2.59,3.02
2022-11-15 11:10:41.9040,-1.09,-0.8,-2.57,2.9
2022-11-15 11:10:41.9210,-0.99,-0.78,-2.5,2.79
2022-11-15 11:10:41.9230,-0.95,-0.82,-2.44,2.74
2022-11-15 11:10:41.9370,-0.96,-0.93,-2.5,2.83
2022-11-15 11:10:41.9400,-0.98,-1.06,-2.7,3.06
2022-11-15 11:10:41.9530,-0.98,-1.12,-2.99,3.33
2022-11-15 11:10:41.9550,-0.99,-1.1,-3.29,3.6
2022-11-15 11:10:41.9680,-0.83,-0.96,-3.7,3.91
2022-11-15 11:10:41.9710,-0.68,-0.74,-4.17,4.28
2022-11-15 11:10:41.9840,-0.53,-0.46,-4.53,4.58
2022-11-15 11:10:41.9860,-0.29,-0.16,-4.79,4.8
2022-11-15 11:10:42.0040,0.05,0.15,-4.95,4.95
2022-11-15 11:10:42.0060,0.27,0.28,-4.97,4.98
2022-11-15 11:10:42.0200,0.35,0.29,-4.86,4.88
2022-11-15 11:10:42.0220,0.48,0.33,-4.56,4.59
2022-11-15 11:10:42.0370,0.56,0.38,-3.91,3.96
2022-11-15 11:10:42.0390,0.58,0.42,-3.1,3.18
2022-11-15 11:10:42.0530,0.71,0.52,-2.25,2.41
2022-11-15 11:10:42.0560,0.99,0.65,-1.34,1.78
2022-11-15 11:10:42.0680,1.23,0.63,-0.39,1.43
2022-11-15 11:10:42.0700,1.27,0.46,0.67,1.5
2022-11-15 11:10:42.0860,1.08,0.22,1.62,1.95
2022-11-15 11:10:42.0880,0.9,0.14,2.16,2.34
2022-11-15 11:10:42.1030,0.87,0.42,2.14,2.34
2022-11-15 11:10:42.1050,1.01,1.05,1.77,2.29
2022-11-15 11:10:42.1200,1.24,1.78,1.32,2.53
2022-11-15 11:10:42.1220,1.49,2.43,0.86,2.97
2022-11-15 11:10:42.1360,1.75,2.89,0.51,3.41
2022-11-15 11:10:42.1390,1.87,3.06,0.44,3.61
2022-11-15 11:10:42.1510,1.84,2.99,0.7,3.57
2022-11-15 11:10:42.1530,1.79,2.76,1.27,3.52
2022-11-15 11:10:42.1710,1.76,2.37,2.0,3.56
2022-11-15 11:10:42.1730,1.82,2.09,2.66,3.84
2022-11-15 11:10:42.1860,2.09,2.04,3.27,4.38
2022-11-15 11:10:42.1880,2.54,2.09,3.94,5.13
2022-11-15 11:10:42.2030,2.82,2.04,4.85,5.96
2022-11-15 11:10:42.2060,2.76,1.64,5.96,6.76
2022-11-15 11:10:42.2190,2.27,0.7,6.97,7.36
2022-11-15 11:10:42.2220,1.58,-0.52,7.69,7.86
2022-11-15 11:10:42.2350,0.99,-1.6,7.89,8.11
2022-11-15 11:10:42.2370,0.61,-2.28,7.52,7.88
2022-11-15 11:10:42.2540,0.37,-2.6,6.67,7.16
2022-11-15 11:10:42.2560,0.25,-2.66,5.37,5.99
2022-11-15 11:10:42.2700,0.38,-2.36,3.73,4.43
2022-11-15 11:10:42.2720,0.54,-1.83,2.15,2.87
2022-11-15 11:10:42.2870,0.71,-1.21,0.73,1.58
2022-11-15 11:10:42.2890,0.88,-0.64,-0.57,1.22
2022-11-15 11:10:42.3030,1.02,-0.13,-1.65,1.94
2022-11-15 11:10:42.3060,1.09,0.27,-2.27,2.53
2022-11-15 11:10:42.3180,0.98,0.49,-2.33,2.57
2022-11-15 11:10:42.3200,0.64,0.57,-2.0,2.17
2022-11-15 11:10:42.3380,0.32,0.55,-1.47,1.6
2022-11-15 11:10:42.3390,0.13,0.42,-0.93,1.02
2022-11-15 11:10:42.3530,-0.08,0.18,-0.46,0.5
2022-11-15 11:10:42.3550,-0.33,-0.22,-0.25,0.46
2022-11-15 11:10:42.3680,-0.63,-0.79,-0.39,1.08
2022-11-15 11:10:42.3710,-1.01,-1.46,-0.78,1.93
2022-11-15 11:10:42.3860,-1.32,-2.04,-1.28,2.74
2022-11-15 11:10:42.3890,-1.54,-2.35,-1.93,3.4
2022-11-15 11:10:42.4010,-1.59,-2.38,-2.76,3.97
2022-11-15 11:10:42.4030,-1.7,-2.36,-3.55,4.58
2022-11-15 11:10:42.4210,-1.92,-2.43,-3.93,5.0
2022-11-15 11:10:42.4230,-2.1,-2.56,-4.02,5.2
2022-11-15 11:10:42.4370,-1.88,-2.44,-4.15,5.16
2022-11-15 11:10:42.4380,-1.44,-2.06,-4.35,5.02
2022-11-15 11:10:42.4530,-1.09,-1.48,-4.62,4.97
2022-11-15 11:10:42.4560,-0.67,-0.85,-4.85,4.96
2022-11-15 11:10:42.4680,-0.29,-0.39,-4.95,4.97
2022-11-15 11:10:42.4710,-0.18,-0.1,-4.81,4.81
2022-11-15 11:10:42.4860,-0.17,0.14,-4.41,4.41
2022-11-15 11:10:42.4880,0.0,0.39,-4.0,4.01
2022-11-15 11:10:42.5030,0.27,0.64,-3.51,3.57
2022-11-15 11:10:42.5050,0.59,0.84,-2.8,2.98
2022-11-15 11:10:42.5200,0.86,0.73,-1.76,2.09
2022-11-15 11:10:42.5220,0.89,0.29,-0.53,1.07
2022-11-15 11:10:42.5360,1.0,-0.22,0.74,1.26
2022-11-15 11:10:42.5380,1.16,-0.66,1.82,2.25
2022-11-15 11:10:42.5530,1.25,-0.89,2.6,3.01
2022-11-15 11:10:42.5560,1.22,-0.88,3.22,3.55
2022-11-15 11:10:42.5680,1.16,-0.77,3.64,3.89
2022-11-15 11:10:42.5700,1.08,-0.61,3.83,4.02
2022-11-15 11:10:42.5880,1.03,-0.39,3.71,3.87
2022-11-15 11:10:42.5900,1.05,-0.06,3.18,3.34
2022-11-15 11:10:42.6040,1.09,0.32,2.51,2.75
2022-11-15 11:10:42.6060,1.1,0.53,2.0,2.34
2022-11-15 11:10:42.6200,1.18,0.71,1.56,2.08
2022-11-15 11:10:42.6230,1.41,0.9,1.29,2.11
2022-11-15 11:10:42.6370,1.98,1.31,1.32,2.71
2022-11-15 11:10:42.6400,2.83,2.05,1.85,3.95
2022-11-15 11:10:42.6510,3.43,2.58,2.99,5.23
2022-11-15 11:10:42.6530,3.66,2.48,4.34,6.19
2022-11-15 11:10:42.6710,3.57,1.9,5.49,6.81
2022-11-15 11:10:42.6730,3.25,1.11,6.35,7.21
2022-11-15 11:10:42.6860,2.54,0.02,6.83,7.28
2022-11-15 11:10:42.6880,1.39,-1.2,6.79,7.03
2022-11-15 11:10:42.7030,0.21,-2.18,6.19,6.56
2022-11-15 11:10:42.7060,-0.8,-2.78,5.02,5.79
2022-11-15 11:10:42.7190,-1.61,-3.05,3.45,4.87
2022-11-15 11:10:42.7220,-2.16,-3.08,1.85,4.19
2022-11-15 11:10:42.7340,-2.59,-2.91,0.42,3.91
2022-11-15 11:10:42.7370,-3.04,-2.61,-0.87,4.1
2022-11-15 11:10:42.7540,-3.16,-2.08,-2.14,4.34
2022-11-15 11:10:42.7560,-3.02,-1.43,-3.25,4.66
2022-11-15 11:10:42.7700,-2.76,-0.83,-4.03,4.95
2022-11-15 11:10:42.7720,-2.67,-0.33,-4.45,5.2
2022-11-15 11:10:42.7860,-2.53,0.07,-4.38,5.05
2022-11-15 11:10:42.7890,-2.21,0.45,-4.04,4.62
2022-11-15 11:10:42.8030,-2.02,0.64,-3.55,4.13
2022-11-15 11:10:42.8050,-2.09,0.4,-2.9,3.59
2022-11-15 11:10:42.8180,-2.38,-0.38,-2.13,3.21
2022-11-15 11:10:42.8200,-2.8,-1.37,-1.89,3.64
2022-11-15 11:10:42.8380,-2.78,-1.96,-2.22,4.06
2022-11-15 11:10:42.8390,-2.34,-1.85,-2.91,4.16
2022-11-15 11:10:42.8540,-1.83,-1.21,-3.76,4.35
2022-11-15 11:10:42.8570,-1.44,-0.39,-4.56,4.79
2022-11-15 11:10:42.8680,-1.34,0.36,-5.05,5.23
2022-11-15 11:10:42.8710,-1.21,1.13,-5.03,5.29
2022-11-15 11:10:42.8850,-1.02,1.88,-4.63,5.1
2022-11-15 11:10:42.8880,-1.12,2.05,-4.08,4.7
2022-11-15 11:10:42.9010,-1.51,1.79,-3.67,4.35
2022-11-15 11:10:42.9030,-1.92,1.37,-3.36,4.1
2022-11-15 11:10:42.9210,-1.93,0.9,-3.08,3.74
2022-11-15 11:10:42.9230,-1.62,0.64,-2.86,3.34
2022-11-15 11:10:42.9370,-1.31,0.46,-2.54,2.89
2022-11-15 11:10:42.9390,-0.91,0.51,-2.2,2.43
2022-11-15 11:10:42.9530,-0.45,0.69,-1.69,1.88
2022-11-15 11:10:42.9560,-0.22,0.8,-0.88,1.2
2022-11-15 11:10:42.9700,-0.08,0.78,-0.04,0.78
2022-11-15 11:10:42.9730,0.13,0.75,0.77,1.08
2022-11-15 11:10:42.9860,0.34,0.76,1.31,1.55
2022-11-15 11:10:42.9880,0.54,0.79,1.54,1.81
2022-11-15 11:10:43.0050,0.8,0.88,1.62,2.0
2022-11-15 11:10:43.0070,1.07,0.91,1.67,2.18
2022-11-15 11:10:43.0200,1.24,0.82,1.7,2.25
2022-11-15 11:10:43.0220,1.25,0.7,1.72,2.23
2022-11-15 11:10:43.0350,1.26,0.59,1.78,2.25
2022-11-15 11:10:43.0380,1.22,0.37,1.95,2.32
2022-11-15 11:10:43.0530,1.08,0.08,2.04,2.3
2022-11-15 11:10:43.0560,0.93,-0.05,2.02,2.22
2022-11-15 11:10:43.0680,1.08,0.22,1.79,2.1
2022-11-15 11:10:43.0700,1.42,0.69,1.34,2.07
2022-11-15 11:10:43.0880,1.68,1.09,0.84,2.17
2022-11-15 11:10:43.0900,2.01,1.42,0.46,2.5
2022-11-15 11:10:43.1030,2.42,1.76,0.44,3.02
2022-11-15 11:10:43.1050,2.57,1.98,0.85,3.35
2022-11-15 11:10:43.1200,2.3,1.69,1.55,3.24
2022-11-15 11:10:43.1230,1.85,0.89,2.35,3.12
2022-11-15 11:10:43.1350,1.38,0.0,3.11,3.4
2022-11-15 11:10:43.1370,0.92,-0.71,3.47,3.65
2022-11-15 11:10:43.1530,0.52,-1.18,3.32,3.56
2022-11-15 11:10:43.1550,0.25,-1.37,2.82,3.14
2022-11-15 11:10:43.1710,0.24,-1.2,2.01,2.35
2022-11-15 11:10:43.1730,0.45,-0.75,0.95,1.29
2022-11-15 11:10:43.1870,0.64,-0.27,0.01,0.69
2022-11-15 11:10:43.1890,0.67,0.03,-0.75,1.0
2022-11-15 11:10:43.2040,0.5,0.18,-1.42,1.51
2022-11-15 11:10:43.2070,0.17,0.27,-2.0,2.02
2022-11-15 11:10:43.2190,-0.08,0.17,-2.34,2.34
2022-11-15 11:10:43.2220,-0.27,-0.16,-2.22,2.24
2022-11-15 11:10:43.2350,-0.51,-0.56,-1.77,1.92
2022-11-15 11:10:43.2370,-0.81,-0.98,-1.26,1.79
2022-11-15 11:10:43.2540,-1.13,-1.46,-0.86,2.03
2022-11-15 11:10:43.2560,-1.53,-1.86,-0.72,2.51
2022-11-15 11:10:43.2710,-1.97,-1.98,-0.82,2.91
2022-11-15 11:10:43.2740,-2.3,-1.82,-1.07,3.12
2022-11-15 11:10:43.2850,-2.41,-1.47,-1.39,3.14
2022-11-15 11:10:43.2870,-2.36,-0.89,-1.75,3.06
2022-11-15 11:10:43.3020,-1.92,-0.29,-2.16,2.9
2022-11-15 11:10:43.3060,-1.24,0.11,-2.45,2.74
2022-11-15 11:10:43.3180,-0.86,0.17,-2.47,2.62
2022-11-15 11:10:43.3200,-0.7,0.04,-2.29,2.39
2022-11-15 11:10:43.3380,-0.57,-0.07,-2.02,2.1
2022-11-15 11:10:43.3400,-0.54,-0.1,-1.7,1.78
2022-11-15 11:10:43.3530,-0.48,-0.05,-1.24,1.33
2022-11-15 11:10:43.3550,-0.22,0.1,-0.77,0.8
2022-11-15 11:10:43.3680,0.18,0.33,-0.37,0.52
2022-11-15 11:10:43.3710,0.42,0.58,0.07,0.71
2022-11-15 11:10:43.3850,0.51,0.86,0.49,1.11
2022-11-15 11:10:43.3880,0.65,1.06,0.81,1.48
2022-11-15 11:10:43.4030,0.58,1.16,1.11,1.7
2022-11-15 11:10:43.4050,0.42,1.28,1.57,2.06
2022-11-15 11:10:43.4210,0.61,1.44,1.91,2.46
2022-11-15 11:10:43.4230,0.92,1.48,2.02,2.66
2022-11-15 11:10:43.4380,1.11,1.31,2.11,2.72
2022-11-15 11:10:43.4410,0.88,0.97,2.28,2.62
2022-11-15 11:10:43.4510,0.42,0.51,2.42,2.5
2022-11-15 11:10:43.4530,-0.12,0.09,2.56,2.56
2022-11-15 11:10:43.4680,-0.75,-0.15,2.62,2.72
2022-11-15 11:10:43.4710,-1.22,-0.19,2.44,2.73
2022-11-15 11:10:43.4840,-1.27,-0.02,2.16,2.5
2022-11-15 11:10:43.4860,-0.96,0.33,1.98,2.22
2022-11-15 11:10:43.5050,-0.57,0.72,1.88,2.09
2022-11-15 11:10:43.5060,-0.31,0.87,1.56,1.81
2022-11-15 11:10:43.5210,-0.08,0.84,1.29,1.54
2022-11-15 11:10:43.5240,0.11,0.75,1.35,1.54
2022-11-15 11:10:43.5350,0.02,0.7,1.75,1.88
2022-11-15 11:10:43.5380,-0.16,0.76,2.45,2.57
2022-11-15 11:10:43.5520,-0.33,0.71,3.24,3.33
2022-11-15 11:10:43.5560,-0.58,0.4,3.68,3.74
2022-11-15 11:10:43.5680,-0.89,-0.14,3.7,3.8
2022-11-15 11:10:43.5700,-1.27,-0.76,3.42,3.72
2022-11-15 11:10:43.5880,-1.69,-1.38,2.89,3.62
2022-11-15 11:10:43.5900,-2.13,-1.87,2.22,3.6
2022-11-15 11:10:43.6040,-2.52,-2.18,1.57,3.68
2022-11-15 11:10:43.6070,-2.83,-2.28,0.97,3.76
2022-11-15 11:10:43.6180,-3.02,-2.15,0.42,3.73
2022-11-15 11:10:43.6210,-3.04,-1.78,-0.24,3.53
2022-11-15 11:10:43.6360,-3.03,-1.6,-0.87,3.53
2022-11-15 11:10:43.6380,-2.76,-1.25,-1.47,3.36
2022-11-15 11:10:43.6510,-2.25,-0.73,-2.15,3.19
2022-11-15 11:10:43.6530,-1.74,-0.28,-2.78,3.29
2022-11-15 11:10:43.6710,-1.37,0.0,-3.33,3.6
2022-11-15 11:10:43.6730,-1.14,0.15,-3.74,3.91
2022-11-15 11:10:43.6860,-1.06,0.2,-3.91,4.05
2022-11-15 11:10:43.6890,-1.12,0.13,-3.83,3.99
2022-11-15 11:10:43.7020,-1.23,-0.09,-3.6,3.8
2022-11-15 11:10:43.7040,-1.29,-0.42,-3.4,3.66
2022-11-15 11:10:43.7200,-1.26,-0.79,-3.2,3.52
2022-11-15 11:10:43.7240,-1.11,-1.11,-3.08,3.45
2022-11-15 11:10:43.7350,-1.02,-1.39,-3.24,3.67
2022-11-15 11:10:43.7370,-1.03,-1.48,-3.68,4.09
2022-11-15 11:10:43.7540,-0.9,-1.35,-3.82,4.15
2022-11-15 11:10:43.7560,-0.71,-1.03,-3.5,3.71
2022-11-15 11:10:43.7700,-0.7,-0.58,-2.85,2.99
2022-11-15 11:10:43.7720,-0.52,-0.08,-2.17,2.23
2022-11-15 11:10:43.7860,-0.01,0.27,-1.64,1.66
2022-11-15 11:10:43.7880,0.44,0.28,-1.36,1.45
2022-11-15 11:10:43.8030,0.55,-0.05,-1.22,1.33
2022-11-15 11:10:43.8060,0.35,-0.55,-1.27,1.42
2022-11-15 11:10:43.8180,0.21,-0.88,-1.38,1.65
2022-11-15 11:10:43.8200,0.02,-1.14,-1.6,1.96
2022-11-15 11:10:43.8380,-0.19,-1.34,-1.72,2.18
2022-11-15 11:10:43.8390,-0.31,-1.13,-1.64,2.01
2022-11-15 11:10:43.8540,-0.34,-0.75,-1.53,1.73
2022-11-15 11:10:43.8550,-0.02,-0.42,-1.46,1.51
2022-11-15 11:10:43.8710,0.36,-0.26,-1.46,1.52
2022-11-15 11:10:43.8730,0.61,-0.27,-1.56,1.69
2022-11-15 11:10:43.8860,0.83,-0.27,-1.83,2.02
2022-11-15 11:10:43.8880,0.98,-0.23,-1.97,2.21
2022-11-15 11:10:43.9010,1.17,-0.17,-1.82,2.17
2022-11-15 11:10:43.9030,1.35,-0.13,-1.46,1.99
2022-11-15 11:10:43.9210,1.31,-0.11,-1.06,1.68
2022-11-15 11:10:43.9230,1.07,-0.17,-0.57,1.22
2022-11-15 11:10:43.9360,0.8,-0.29,-0.08,0.85
2022-11-15 11:10:43.9380,0.41,-0.62,0.15,0.75
2022-11-15 11:10:43.9530,-0.05,-1.11,0.16,1.12
2022-11-15 11:10:43.9560,-0.44,-1.5,-0.01,1.56
2022-11-15 11:10:43.9680,-0.57,-1.46,-0.41,1.62
2022-11-15 11:10:43.9710,-0.42,-0.94,-0.8,1.3
2022-11-15 11:10:43.9840,0.19,0.26,-0.96,1.01
2022-11-15 11:10:43.9860,1.48,1.59,-0.16,2.17
2022-11-15 11:10:44.0040,2.97,2.76,1.7,4.39
2022-11-15 11:10:44.0060,3.33,3.71,3.8,6.26
2022-11-15 11:10:44.0210,2.47,4.24,5.73,7.54
2022-11-15 11:10:44.0240,1.01,3.75,7.76,8.67
2022-11-15 11:10:44.0360,-0.37,2.32,9.83,10.1
2022-11-15 11:10:44.0380,-1.09,0.83,11.44,11.52
2022-11-15 11:10:44.0530,-1.32,-0.46,11.77,11.85
2022-11-15 11:10:44.0560,-1.42,-1.6,10.73,10.94
2022-11-15 11:10:44.0670,-1.16,-2.08,8.54,8.86
2022-11-15 11:10:44.0700,-0.6,-1.8,5.75,6.05
2022-11-15 11:10:44.0870,0.05,-1.01,2.83,3.0
2022-11-15 11:10:44.0890,0.65,-0.1,-0.13,0.67
2022-11-15 11:10:44.1030,1.36,0.74,-2.71,3.12
2022-11-15 11:10:44.1050,1.93,1.32,-4.3,4.89
2022-11-15 11:10:44.1200,2.08,1.61,-4.53,5.23
2022-11-15 11:10:44.1230,1.68,1.62,-3.51,4.21
2022-11-15 11:10:44.1360,1.1,1.51,-1.59,2.45
2022-11-15 11:10:44.1380,0.52,1.23,0.4,1.39
2022-11-15 11:10:44.1510,-0.23,0.72,1.88,2.02
2022-11-15 11:10:44.1530,-0.99,0.1,2.66,2.84
2022-11-15 11:10:44.1710,-1.27,-0.34,2.46,2.78
2022-11-15 11:10:44.1730,-0.95,-0.35,1.46,1.77
2022-11-15 11:10:44.1870,-0.35,0.03,0.16,0.38
2022-11-15 11:10:44.1880,0.23,0.45,-1.03,1.14
2022-11-15 11:10:44.2030,0.51,0.67,-1.91,2.08
2022-11-15 11:10:44.2060,0.46,0.48,-2.45,2.53
2022-11-15 11:10:44.2200,0.21,-0.12,-2.77,2.78
2022-11-15 11:10:44.2230,-0.52,-1.11,-2.77,3.02
2022-11-15 11:10:44.2340,-1.55,-2.12,-2.16,3.4
2022-11-15 11:10:44.2360,-2.05,-2.6,-1.62,3.68
2022-11-15 11:10:44.2540,-2.12,-2.54,-1.49,3.62
2022-11-15 11:10:44.2560,-1.91,-1.86,-1.58,3.09
2022-11-15 11:10:44.2710,-0.96,-0.51,-1.72,2.03
2022-11-15 11:10:44.2740,-0.02,1.12,-2.04,2.32
2022-11-15 11:10:44.2860,0.27,2.28,-2.4,3.32
2022-11-15 11:10:44.2890,0.31,2.47,-2.71,3.67
2022-11-15 11:10:44.3030,0.2,1.87,-2.76,3.33
2022-11-15 11:10:44.3060,-0.01,0.9,-2.65,2.79
2022-11-15 11:10:44.3180,-0.22,-0.03,-2.39,2.4
2022-11-15 11:10:44.3200,-0.18,-0.61,-1.74,1.85
2022-11-15 11:10:44.3370,-0.17,-0.86,-0.67,1.1
2022-11-15 11:10:44.3390,-0.47,-0.94,0.6,1.21
2022-11-15 11:10:44.3530,-0.75,-0.87,1.66,2.01
2022-11-15 11:10:44.3550,-0.75,-0.65,2.07,2.29
2022-11-15 11:10:44.3700,-0.7,-0.27,1.82,1.96
2022-11-15 11:10:44.3720,-0.67,0.22,1.15,1.34
2022-11-15 11:10:44.3860,-0.45,0.64,0.71,1.05
2022-11-15 11:10:44.3890,-0.07,0.83,0.96,1.27
2022-11-15 11:10:44.4010,0.57,1.11,1.44,1.9
2022-11-15 11:10:44.4030,1.07,1.48,2.03,2.73
2022-11-15 11:10:44.4210,1.24,1.56,2.93,3.54
2022-11-15 11:10:44.4230,1.16,1.18,3.9,4.23
2022-11-15 11:10:44.4360,0.84,0.62,4.58,4.69
2022-11-15 11:10:44.4390,0.54,0.13,4.98,5.01
2022-11-15 11:10:44.4530,0.2,-0.42,4.99,5.01
2022-11-15 11:10:44.4560,-0.23,-1.2,4.71,4.86
2022-11-15 11:10:44.4680,-0.5,-1.87,4.07,4.5
2022-11-15 11:10:44.4700,-0.73,-2.2,3.03,3.81
2022-11-15 11:10:44.4840,-0.7,-2.19,1.78,2.9
2022-11-15 11:10:44.4860,-0.58,-1.91,0.55,2.07
2022-11-15 11:10:44.5040,-0.61,-1.59,-0.24,1.71
2022-11-15 11:10:44.5060,-0.64,-1.27,-0.6,1.54
2022-11-15 11:10:44.5210,-0.53,-0.86,-0.74,1.25
2022-11-15 11:10:44.5240,-0.47,-0.57,-0.93,1.18
2022-11-15 11:10:44.5360,-0.54,-0.46,-1.09,1.3
2022-11-15 11:10:44.5380,-0.72,-0.39,-1.02,1.3
2022-11-15 11:10:44.5520,-0.79,-0.22,-0.82,1.15
2022-11-15 11:10:44.5550,-0.77,-0.07,-0.6,0.97
2022-11-15 11:10:44.5670,-0.76,-0.12,-0.35,0.84
2022-11-15 11:10:44.5700,-0.79,-0.34,-0.28,0.9
2022-11-15 11:10:44.5870,-0.79,-0.66,-0.51,1.14
2022-11-15 11:10:44.5890,-0.73,-0.96,-1.04,1.59
2022-11-15 11:10:44.6040,-0.63,-1.1,-1.83,2.22
2022-11-15 11:10:44.6060,-0.48,-1.09,-2.68,2.93
2022-11-15 11:10:44.6180,-0.34,-0.99,-3.42,3.57
2022-11-15 11:10:44.6220,-0.1,-0.83,-3.77,3.86
2022-11-15 11:10:44.6360,-0.01,-0.63,-3.66,3.71
2022-11-15 11:10:44.6390,-0.04,-0.44,-3.21,3.24
2022-11-15 11:10:44.6520,-0.03,-0.22,-2.54,2.54
2022-11-15 11:10:44.6540,0.07,0.02,-1.91,1.91
2022-11-15 11:10:44.6710,0.14,0.2,-1.57,1.58
2022-11-15 11:10:44.6730,0.0,0.25,-1.73,1.74
2022-11-15 11:10:44.6870,-0.24,0.13,-2.42,2.43
2022-11-15 11:10:44.6880,-0.34,-0.01,-3.01,3.02
2022-11-15 11:10:44.7030,-0.47,-0.12,-3.19,3.22
2022-11-15 11:10:44.7060,-0.33,0.04,-3.02,3.03
2022-11-15 11:10:44.7180,-0.01,0.46,-2.65,2.68
2022-11-15 11:10:44.7200,0.31,0.93,-2.11,2.32
2022-11-15 11:10:44.7360,0.4,1.19,-1.49,1.94
2022-11-15 11:10:44.7380,0.34,1.16,-1.0,1.56
2022-11-15 11:10:44.7540,0.43,1.04,-0.69,1.32
2022-11-15 11:10:44.7560,0.49,0.85,-0.35,1.04
2022-11-15 11:10:44.7710,0.3,0.54,-0.02,0.61
2022-11-15 11:10:44.7730,0.12,0.19,0.54,0.58
2022-11-15 11:10:44.7860,0.04,-0.12,1.13,1.13
2022-11-15 11:10:44.7890,0.19,0.0,1.51,1.52
2022-11-15 11:10:44.8010,0.38,0.38,1.92,1.99
2022-11-15 11:10:44.8040,0.44,0.59,2.34,2.45
2022-11-15 11:10:44.8170,0.28,0.67,2.67,2.76
2022-11-15 11:10:44.8200,0.11,0.87,2.58,2.72
2022-11-15 11:10:44.8370,0.03,1.0,2.38,2.58
2022-11-15 11:10:44.8390,0.06,1.04,2.11,2.35
2022-11-15 11:10:44.8550,0.24,1.12,1.65,2.0
2022-11-15 11:10:44.8580,0.65,1.19,1.08,1.73
2022-11-15 11:10:44.8700,0.88,1.02,0.74,1.53
2022-11-15 11:10:44.8720,1.16,0.69,0.82,1.57
2022-11-15 11:10:44.8860,1.4,0.35,1.61,2.16
2022-11-15 11:10:44.8890,1.2,-0.19,2.89,3.13
2022-11-15 11:10:44.9010,0.87,-0.87,4.31,4.48
2022-11-15 11:10:44.9030,0.5,-1.53,5.46,5.69
2022-11-15 11:10:44.9210,0.08,-2.09,5.72,6.09
2022-11-15 11:10:44.9230,-0.29,-2.53,4.98,5.59
2022-11-15 11:10:44.9360,-0.28,-2.53,3.56,4.37
2022-11-15 11:10:44.9390,-0.13,-2.18,1.89,2.88
2022-11-15 11:10:44.9530,0.18,-1.59,0.28,1.62
2022-11-15 11:10:44.9560,0.59,-0.98,-1.07,1.56
2022-11-15 11:10:44.9680,0.81,-0.53,-1.9,2.13
2022-11-15 11:10:44.9710,0.86,-0.34,-2.11,2.3
2022-11-15 11:10:44.9850,0.84,-0.31,-1.8,2.01
2022-11-15 11:10:44.9870,0.66,-0.3,-1.12,1.33
2022-11-15 11:10:45.0040,0.5,-0.22,-0.41,0.68
2022-11-15 11:10:45.0060,0.32,-0.12,0.16,0.37
2022-11-15 11:10:45.0180,0.11,-0.04,0.47,0.48
2022-11-15 11:10:45.0210,-0.14,-0.03,0.48,0.5
2022-11-15 11:10:45.0360,-0.28,-0.07,0.11,0.3
2022-11-15 11:10:45.0390,-0.42,-0.12,-0.48,0.64
2022-11-15 11:10:45.0510,-0.55,-0.22,-1.03,1.18
2022-11-15 11:10:45.0540,-0.62,-0.33,-1.57,1.71
2022-11-15 11:10:45.0690,-0.72,-0.51,-2.15,2.32
2022-11-15 11:10:45.0710,-0.77,-0.64,-2.67,2.85
2022-11-15 11:10:45.0880,-0.79,-0.7,-3.07,3.24
2022-11-15 11:10:45.0890,-0.8,-0.7,-3.36,3.52
2022-11-15 11:10:45.1040,-0.69,-0.59,-3.4,3.51
2022-11-15 11:10:45.1070,-0.54,-0.39,-3.07,3.14
2022-11-15 11:10:45.1180,-0.38,-0.18,-2.6,2.63
2022-11-15 11:10:45.1210,-0.29,-0.03,-2.24,2.25
2022-11-15 11:10:45.1360,-0.32,0.07,-2.07,2.09
2022-11-15 11:10:45.1390,-0.32,0.16,-2.07,2.1
2022-11-15 11:10:45.1510,-0.18,0.27,-2.17,2.19
2022-11-15 11:10:45.1530,-0.15,0.28,-2.2,2.22
2022-11-15 11:10:45.1710,-0.08,0.26,-1.97,1.98
2022-11-15 11:10:45.1730,-0.02,0.28,-1.53,1.55
2022-11-15 11:10:45.1870,0.02,0.3,-1.03,1.07
2022-11-15 11:10:45.1900,0.17,0.29,-0.33,0.47
2022-11-15 11:10:45.2030,0.37,0.29,0.54,0.71
2022-11-15 11:10:45.2060,0.35,0.18,1.39,1.44
2022-11-15 11:10:45.2190,0.13,-0.14,2.12,2.12
2022-11-15 11:10:45.2220,-0.04,-0.53,2.67,2.72
2022-11-15 11:10:45.2340,-0.16,-0.85,3.01,3.13
2022-11-15 11:10:45.2360,-0.29,-1.07,3.11,3.3
2022-11-15 11:10:45.2540,-0.34,-1.09,2.94,3.15
2022-11-15 11:10:45.2560,-0.24,-0.81,2.61,2.74
2022-11-15 11:10:45.2700,-0.15,-0.45,2.27,2.31
2022-11-15 11:10:45.2720,0.01,-0.07,1.98,1.98
2022-11-15 11:10:45.2860,0.12,0.28,1.65,1.67
2022-11-15 11:10:45.2890,0.2,0.5,1.34,1.44
2022-11-15 11:10:45.3030,0.21,0.57,1.09,1.24
2022-11-15 11:10:45.3050,0.25,0.61,0.95,1.15
2022-11-15 11:10:45.3170,0.55,0.84,0.91,1.35
2022-11-15 11:10:45.3200,0.86,1.13,1.17,1.83
2022-11-15 11:10:45.3370,1.03,1.25,2.06,2.62
2022-11-15 11:10:45.3390,1.1,1.15,3.51,3.85
2022-11-15 11:10:45.3540,1.05,0.91,5.17,5.35
2022-11-15 11:10:45.3570,0.78,0.5,6.63,6.69
2022-11-15 11:10:45.3700,0.47,-0.05,7.64,7.65
2022-11-15 11:10:45.3730,0.3,-0.64,7.87,7.9
2022-11-15 11:10:45.3870,0.03,-1.27,7.35,7.45
2022-11-15 11:10:45.3900,-0.56,-1.88,6.18,6.48
2022-11-15 11:10:45.4010,-1.29,-2.44,4.24,5.05
2022-11-15 11:10:45.4030,-1.62,-2.32,2.41,3.71
2022-11-15 11:10:45.4210,-1.62,-1.61,0.82,2.42
2022-11-15 11:10:45.4230,-1.55,-0.78,-0.51,1.8
2022-11-15 11:10:45.4360,-1.54,-0.12,-1.6,2.22
2022-11-15 11:10:45.4380,-1.57,0.35,-2.55,3.01
2022-11-15 11:10:45.4530,-1.55,0.71,-3.33,3.74
2022-11-15 11:10:45.4560,-1.47,0.93,-3.82,4.19
2022-11-15 11:10:45.4680,-1.42,0.96,-3.85,4.21
2022-11-15 11:10:45.4700,-1.57,0.72,-3.4,3.81
2022-11-15 11:10:45.4860,-1.93,0.16,-2.71,3.33
2022-11-15 11:10:45.4880,-2.05,-0.48,-2.3,3.11
2022-11-15 11:10:45.5040,-2.08,-1.08,-2.24,3.24
2022-11-15 11:10:45.5060,-2.09,-1.54,-2.32,3.48
2022-11-15 11:10:45.5200,-2.05,-1.87,-2.47,3.71
2022-11-15 11:10:45.5220,-1.82,-2.03,-2.9,3.98
2022-11-15 11:10:45.5360,-1.55,-2.13,-3.54,4.41
2022-11-15 11:10:45.5390,-1.34,-2.18,-4.2,4.91
2022-11-15 11:10:45.5530,-1.2,-2.16,-4.8,5.39
2022-11-15 11:10:45.5550,-1.14,-2.14,-5.22,5.75
2022-11-15 11:10:45.5680,-1.03,-2.01,-5.38,5.83
2022-11-15 11:10:45.5700,-0.8,-1.72,-5.3,5.62
2022-11-15 11:10:45.5880,-0.62,-1.38,-5.0,5.22
2022-11-15 11:10:45.5900,-0.7,-1.09,-4.63,4.8
2022-11-15 11:10:45.6030,-0.76,-0.79,-4.23,4.36
2022-11-15 11:10:45.6050,-0.67,-0.39,-3.73,3.8
2022-11-15 11:10:45.6190,-0.56,0.03,-3.22,3.26
2022-11-15 11:10:45.6210,-0.51,0.33,-2.66,2.72
2022-11-15 11:10:45.6370,-0.37,0.54,-2.0,2.1
2022-11-15 11:10:45.6400,-0.1,0.73,-1.4,1.58
2022-11-15 11:10:45.6510,-0.04,0.82,-0.88,1.2
2022-11-15 11:10:45.6530,0.04,0.91,-0.31,0.96
2022-11-15 11:10:45.6710,0.18,1.09,0.18,1.11
2022-11-15 11:10:45.6730,0.3,1.31,0.56,1.45
2022-11-15 11:10:45.6870,0.41,1.56,0.95,1.87
2022-11-15 11:10:45.6900,0.55,1.83,1.41,2.37
2022-11-15 11:10:45.7020,0.71,2.13,1.87,2.92
2022-11-15 11:10:45.7040,0.88,2.41,2.29,3.43
2022-11-15 11:10:45.7180,1.15,2.6,2.59,3.84
2022-11-15 11:10:45.7210,1.38,2.65,2.8,4.09
2022-11-15 11:10:45.7350,1.41,2.52,3.08,4.22
2022-11-15 11:10:45.7370,1.37,2.19,3.33,4.21
2022-11-15 11:10:45.7540,1.26,1.73,3.45,4.05
2022-11-15 11:10:45.7560,0.95,1.3,3.55,3.89
2022-11-15 11:10:45.7700,0.64,0.98,3.57,3.75
2022-11-15 11:10:45.7720,0.6,0.91,3.2,3.38
2022-11-15 11:10:45.7850,0.72,1.11,2.43,2.76
2022-11-15 11:10:45.7880,0.94,1.45,1.64,2.38
2022-11-15 11:10:45.8010,1.22,1.77,1.02,2.37
2022-11-15 11:10:45.8040,1.61,2.1,0.62,2.71
2022-11-15 11:10:45.8180,2.11,2.47,0.68,3.31
2022-11-15 11:10:45.8210,2.54,2.71,1.41,3.97
2022-11-15 11:10:45.8380,2.52,2.43,2.52,4.31
2022-11-15 11:10:45.8400,2.26,1.66,3.65,4.6
2022-11-15 11:10:45.8530,1.77,0.61,4.55,4.92
2022-11-15 11:10:45.8550,1.17,-0.55,5.13,5.29
2022-11-15 11:10:45.8680,0.56,-1.63,5.07,5.35
2022-11-15 11:10:45.8710,0.13,-2.42,4.31,4.94
2022-11-15 11:10:45.8850,-0.06,-2.77,3.05,4.12
2022-11-15 11:10:45.8880,0.07,-2.56,1.67,3.05
2022-11-15 11:10:45.9010,0.44,-2.05,0.38,2.13
2022-11-15 11:10:45.9030,0.65,-1.59,-0.67,1.84
2022-11-15 11:10:45.9210,0.77,-1.27,-1.48,2.09
2022-11-15 11:10:45.9230,0.82,-1.09,-2.0,2.42
2022-11-15 11:10:45.9360,0.74,-1.01,-2.33,2.64
2022-11-15 11:10:45.9380,0.58,-1.01,-2.47,2.73
2022-11-15 11:10:45.9530,0.38,-1.05,-2.39,2.63
2022-11-15 11:10:45.9560,0.2,-1.07,-2.13,2.39
2022-11-15 11:10:45.9680,0.11,-1.01,-1.74,2.01
2022-11-15 11:10:45.9710,0.06,-0.93,-1.35,1.64
2022-11-15 11:10:45.9840,-0.07,-0.94,-1.08,1.43
2022-11-15 11:10:45.9860,-0.26,-1.12,-0.94,1.48
2022-11-15 11:10:46.0040,-0.48,-1.4,-1.02,1.79
2022-11-15 11:10:46.0060,-0.64,-1.68,-1.41,2.28
2022-11-15 11:10:46.0210,-0.7,-1.81,-1.98,2.77
2022-11-15 11:10:46.0230,-0.88,-1.88,-2.67,3.38
2022-11-15 11:10:46.0360,-1.11,-1.86,-3.41,4.03
2022-11-15 11:10:46.0390,-1.24,-1.65,-4.19,4.67
2022-11-15 11:10:46.0520,-1.15,-1.3,-4.78,5.08
2022-11-15 11:10:46.0540,-0.94,-0.87,-5.03,5.19
2022-11-15 11:10:46.0690,-0.71,-0.44,-4.97,5.03
2022-11-15 11:10:46.0710,-0.54,-0.12,-4.54,4.57
2022-11-15 11:10:46.0870,-0.35,0.07,-3.82,3.83
2022-11-15 11:10:46.0890,-0.3,0.02,-3.05,3.06
2022-11-15 11:10:46.1040,-0.34,-0.22,-2.4,2.43
2022-11-15 11:10:46.1070,-0.22,-0.36,-1.81,1.85
2022-11-15 11:10:46.1180,-0.09,-0.36,-1.3,1.35
2022-11-15 11:10:46.1210,-0.01,-0.32,-0.9,0.95
2022-11-15 11:10:46.1360,0.1,-0.26,-0.52,0.58
2022-11-15 11:10:46.1390,0.14,-0.24,-0.06,0.28
2022-11-15 11:10:46.1510,0.15,-0.25,0.53,0.6
2022-11-15 11:10:46.1530,0.22,-0.28,1.19,1.24
2022-11-15 11:10:46.1710,0.17,-0.35,1.96,1.99
2022-11-15 11:10:46.1730,0.04,-0.42,2.83,2.86
2022-11-15 11:10:46.1870,0.13,-0.32,3.36,3.37
2022-11-15 11:10:46.1890,0.25,-0.13,3.33,3.34
2022-11-15 11:10:46.2020,0.31,0.09,2.89,2.9
2022-11-15 11:10:46.2040,0.3,0.21,2.22,2.25
2022-11-15 11:10:46.2200,0.26,0.3,1.48,1.53
2022-11-15 11:10:46.2230,0.2,0.5,0.96,1.1
2022-11-15 11:10:46.2340,0.14,0.86,0.83,1.2
2022-11-15 11:10:46.2370,0.14,1.33,1.04,1.69
2022-11-15 11:10:46.2540,0.16,1.79,1.23,2.17
2022-11-15 11:10:46.2560,0.18,2.1,1.4,2.53
2022-11-15 11:10:46.2690,0.29,2.32,1.57,2.81
2022-11-15 11:10:46.2710,0.59,2.58,1.65,3.11
2022-11-15 11:10:46.2850,1.04,3.01,1.82,3.66
2022-11-15 11:10:46.2880,1.52,3.48,2.33,4.45
2022-11-15 11:10:46.3010,1.87,3.71,3.23,5.26
2022-11-15 11:10:46.3040,1.82,3.33,4.46,5.85
2022-11-15 11:10:46.3180,1.51,2.41,5.65,6.32
2022-11-15 11:10:46.3200,0.99,1.28,6.69,6.88
2022-11-15 11:10:46.3370,0.14,-0.15,7.32,7.32
2022-11-15 11:10:46.3390,-0.79,-1.78,7.05,7.31
2022-11-15 11:10:46.3530,-1.5,-3.17,6.03,6.97
2022-11-15 11:10:46.3550,-1.84,-3.9,4.61,6.31
2022-11-15 11:10:46.3690,-1.85,-3.86,2.75,5.08
2022-11-15 11:10:46.3720,-1.85,-3.39,0.64,3.91
2022-11-15 11:10:46.3850,-1.68,-2.79,-1.05,3.42
2022-11-15 11:10:46.3880,-1.36,-2.16,-2.26,3.4
2022-11-15 11:10:46.4010,-1.15,-1.62,-2.91,3.52
2022-11-15 11:10:46.4030,-1.2,-1.27,-3.05,3.51
2022-11-15 11:10:46.4210,-1.32,-1.1,-2.86,3.33
2022-11-15 11:10:46.4220,-1.32,-0.97,-2.4,2.9
2022-11-15 11:10:46.4370,-1.33,-0.86,-1.86,2.44
2022-11-15 11:10:46.4400,-1.36,-0.79,-1.5,2.17
2022-11-15 11:10:46.4540,-1.34,-0.83,-1.56,2.21
2022-11-15 11:10:46.4560,-1.27,-0.95,-2.01,2.56
2022-11-15 11:10:46.4690,-1.15,-1.12,-2.59,3.04
2022-11-15 11:10:46.4710,-1.13,-1.39,-3.25,3.71
2022-11-15 11:10:46.4840,-1.09,-1.69,-3.89,4.37
2022-11-15 11:10:46.4870,-0.99,-1.9,-4.4,4.89
2022-11-15 11:10:46.5040,-0.87,-2.02,-4.76,5.24
2022-11-15 11:10:46.5060,-0.72,-2.04,-5.05,5.49
2022-11-15 11:10:46.5200,-0.49,-1.96,-5.27,5.64
2022-11-15 11:10:46.5220,-0.34,-1.83,-5.34,5.65
2022-11-15 11:10:46.5370,-0.31,-1.68,-5.25,5.52
2022-11-15 11:10:46.5400,-0.24,-1.43,-4.89,5.1
2022-11-15 11:10:46.5510,-0.23,-1.12,-4.37,4.51
2022-11-15 11:10:46.5540,-0.29,-0.75,-3.84,3.92
2022-11-15 11:10:46.5680,-0.27,-0.3,-3.33,3.35
2022-11-15 11:10:46.5700,-0.13,0.19,-2.84,2.84
2022-11-15 11:10:46.5870,0.04,0.61,-2.29,2.37
2022-11-15 11:10:46.5890,0.19,0.88,-1.75,1.96
2022-11-15 11:10:46.6030,0.36,1.0,-1.25,1.64
2022-11-15 11:10:46.6050,0.45,0.96,-0.76,1.3
2022-11-15 11:10:46.6190,0.55,0.98,-0.26,1.15
2022-11-15 11:10:46.6220,0.66,1.18,0.28,1.38
2022-11-15 11:10:46.6370,0.61,1.47,0.85,1.8
2022-11-15 11:10:46.6400,0.38,1.8,1.56,2.41
2022-11-15 11:10:46.6520,0.26,2.23,2.2,3.14
2022-11-15 11:10:46.6540,0.41,2.68,2.67,3.8
2022-11-15 11:10:46.6710,0.62,2.92,3.09,4.29
2022-11-15 11:10:46.6730,0.69,2.91,3.45,4.56
2022-11-15 11:10:46.6860,0.67,2.57,3.82,4.65
2022-11-15 11:10:46.6880,0.55,2.05,4.12,4.63
2022-11-15 11:10:46.7020,0.4,1.53,4.2,4.48
2022-11-15 11:10:46.7040,0.44,1.24,4.06,4.26
2022-11-15 11:10:46.7190,0.59,1.25,3.93,4.16
2022-11-15 11:10:46.7220,0.7,1.36,3.7,4.0
2022-11-15 11:10:46.7340,0.72,1.43,3.11,3.49
2022-11-15 11:10:46.7360,0.69,1.43,2.28,2.77
2022-11-15 11:10:46.7540,0.84,1.56,1.44,2.28
2022-11-15 11:10:46.7560,1.12,1.87,0.64,2.27
2022-11-15 11:10:46.7690,1.7,2.32,0.15,2.88
2022-11-15 11:10:46.7720,2.47,2.73,0.3,3.69
2022-11-15 11:10:46.7850,2.89,2.77,1.28,4.2
2022-11-15 11:10:46.7870,2.79,2.0,2.67,4.34
2022-11-15 11:10:46.8020,2.49,0.79,3.84,4.64
2022-11-15 11:10:46.8040,2.02,-0.61,4.67,5.12
2022-11-15 11:10:46.8180,1.3,-2.16,4.76,5.38
2022-11-15 11:10:46.8200,0.68,-3.45,4.12,5.41
2022-11-15 11:10:46.8370,0.41,-4.14,3.0,5.12
2022-11-15 11:10:46.8390,0.53,-4.23,1.6,4.55
2022-11-15 11:10:46.8530,0.7,-3.9,0.09,3.96
2022-11-15 11:10:46.8550,0.8,-3.4,-1.2,3.69
2022-11-15 11:10:46.8690,0.9,-2.83,-2.28,3.74
2022-11-15 11:10:46.8730,0.98,-2.21,-2.96,3.82
2022-11-15 11:10:46.8860,0.95,-1.63,-3.21,3.72
2022-11-15 11:10:46.8880,0.85,-1.09,-3.15,3.43
2022-11-15 11:10:46.9010,0.76,-0.65,-2.78,2.95
2022-11-15 11:10:46.9030,0.59,-0.47,-2.14,2.26
2022-11-15 11:10:46.9210,0.24,-0.49,-1.47,1.56
2022-11-15 11:10:46.9220,-0.07,-0.54,-0.95,1.09
2022-11-15 11:10:46.9380,-0.29,-0.63,-0.77,1.03
2022-11-15 11:10:46.9400,-0.49,-0.82,-0.9,1.31
2022-11-15 11:10:46.9540,-0.72,-1.13,-1.37,1.91
2022-11-15 11:10:46.9560,-0.82,-1.39,-2.05,2.6
2022-11-15 11:10:46.9690,-0.84,-1.51,-2.74,3.23
2022-11-15 11:10:46.9720,-0.86,-1.55,-3.27,3.71
2022-11-15 11:10:46.9840,-0.75,-1.52,-3.68,4.05
2022-11-15 11:10:46.9860,-0.61,-1.43,-3.87,4.17
2022-11-15 11:10:47.0040,-0.53,-1.35,-3.77,4.03
2022-11-15 11:10:47.0060,-0.6,-1.29,-3.39,3.67
2022-11-15 11:10:47.0190,-0.63,-1.2,-2.72,3.03
2022-11-15 11:10:47.0220,-0.65,-1.16,-2.03,2.42
2022-11-15 11:10:47.0370,-0.82,-1.12,-1.43,1.99
2022-11-15 11:10:47.0390,-0.86,-0.94,-0.93,1.57
2022-11-15 11:10:47.0510,-0.64,-0.58,-0.64,1.07
2022-11-15 11:10:47.0540,-0.49,-0.3,-0.43,0.71
2022-11-15 11:10:47.0690,-0.43,-0.22,-0.26,0.54
2022-11-15 11:10:47.0710,-0.39,-0.26,-0.05,0.47
2022-11-15 11:10:47.0880,-0.48,-0.32,0.21,0.61
2022-11-15 11:10:47.0890,-0.62,-0.36,0.56,0.9
2022-11-15 11:10:47.1030,-0.75,-0.35,0.93,1.24
2022-11-15 11:10:47.1050,-0.9,-0.27,1.29,1.59
2022-11-15 11:10:47.1190,-0.94,-0.07,1.53,1.79
2022-11-15 11:10:47.1220,-0.76,0.15,1.61,1.78
2022-11-15 11:10:47.1350,-0.64,0.28,1.65,1.79
2022-11-15 11:10:47.1380,-0.67,0.3,1.63,1.78
2022-11-15 11:10:47.1510,-0.65,0.37,1.55,1.72
2022-11-15 11:10:47.1530,-0.53,0.55,1.3,1.5
2022-11-15 11:10:47.1710,-0.34,0.77,1.0,1.3
2022-11-15 11:10:47.1730,-0.23,0.95,0.83,1.28
2022-11-15 11:10:47.1880,-0.21,1.1,0.8,1.37
2022-11-15 11:10:47.1900,-0.15,1.27,0.99,1.61
2022-11-15 11:10:47.2030,-0.06,1.48,1.3,1.97
2022-11-15 11:10:47.2060,0.0,1.74,1.54,2.32
2022-11-15 11:10:47.2190,0.06,2.07,1.69,2.67
2022-11-15 11:10:47.2220,0.17,2.41,1.82,3.02
2022-11-15 11:10:47.2340,0.41,2.76,2.01,3.43
2022-11-15 11:10:47.2370,0.72,3.11,2.47,4.03
2022-11-15 11:10:47.2540,0.91,3.17,3.3,4.66
2022-11-15 11:10:47.2560,0.78,2.76,4.24,5.11
2022-11-15 11:10:47.2700,0.57,2.07,5.1,5.53
2022-11-15 11:10:47.2720,0.17,1.17,5.72,5.84
2022-11-15 11:10:47.2870,-0.55,-0.05,5.83,5.85
2022-11-15 11:10:47.2900,-1.3,-1.4,5.27,5.6
2022-11-15 11:10:47.3030,-1.99,-2.54,4.2,5.29
2022-11-15 11:10:47.3060,-2.46,-3.22,2.65,4.84
2022-11-15 11:10:47.3180,-2.6,-3.31,0.94,4.31
2022-11-15 11:10:47.3200,-2.51,-3.01,-0.64,3.97
2022-11-15 11:10:47.3370,-2.38,-2.56,-1.89,3.97
2022-11-15 11:10:47.3390,-2.26,-2.05,-2.7,4.07
2022-11-15 11:10:47.3540,-2.18,-1.58,-3.11,4.11
2022-11-15 11:10:47.3570,-2.16,-1.16,-3.26,4.07
2022-11-15 11:10:47.3690,-2.12,-0.75,-3.19,3.9
2022-11-15 11:10:47.3700,-1.95,-0.35,-2.9,3.51
2022-11-15 11:10:47.3850,-1.69,-0.02,-2.51,3.02
2022-11-15 11:10:47.3880,-1.56,-0.02,-2.02,2.55
2022-11-15 11:10:47.4020,-1.6,-0.39,-1.65,2.33
2022-11-15 11:10:47.4040,-1.63,-0.92,-1.65,2.49
2022-11-15 11:10:47.4210,-1.55,-1.42,-2.01,2.9
2022-11-15 11:10:47.4220,-1.35,-1.77,-2.6,3.42
2022-11-15 11:10:47.4370,-1.16,-2.0,-3.23,3.97
2022-11-15 11:10:47.4400,-1.02,-2.13,-3.89,4.55
2022-11-15 11:10:47.4530,-0.94,-2.15,-4.63,5.19
2022-11-15 11:10:47.4560,-0.89,-2.05,-5.28,5.73
2022-11-15 11:10:47.4690,-0.84,-1.79,-5.59,5.92
2022-11-15 11:10:47.4720,-0.62,-1.31,-5.33,5.52
2022-11-15 11:10:47.4840,-0.39,-0.82,-4.57,4.65
2022-11-15 11:10:47.4860,-0.38,-0.52,-3.76,3.81
2022-11-15 11:10:47.5040,-0.44,-0.33,-3.03,3.07
2022-11-15 11:10:47.5060,-0.45,-0.16,-2.48,2.52
2022-11-15 11:10:47.5200,-0.5,0.0,-2.15,2.2
2022-11-15 11:10:47.5220,-0.6,0.17,-2.06,2.15
2022-11-15 11:10:47.5370,-0.72,0.42,-2.23,2.38
2022-11-15 11:10:47.5400,-0.75,0.76,-2.46,2.68
2022-11-15 11:10:47.5530,-0.65,1.13,-2.62,2.92
2022-11-15 11:10:47.5560,-0.35,1.52,-2.52,2.96
2022-11-15 11:10:47.5680,0.0,1.79,-2.1,2.75
2022-11-15 11:10:47.5700,0.18,1.71,-1.42,2.23
2022-11-15 11:10:47.5870,0.2,1.34,-0.52,1.45
2022-11-15 11:10:47.5890,0.25,1.13,0.7,1.35
2022-11-15 11:10:47.6030,0.36,1.18,2.31,2.61
2022-11-15 11:10:47.6050,0.59,1.44,3.71,4.02
2022-11-15 11:10:47.6190,1.02,1.89,4.7,5.16
2022-11-15 11:10:47.6210,1.37,2.24,5.29,5.9
2022-11-15 11:10:47.6370,1.56,2.24,5.41,6.05
2022-11-15 11:10:47.6400,1.58,1.95,5.14,5.72
2022-11-15 11:10:47.6510,1.52,1.58,4.74,5.22
2022-11-15 11:10:47.6530,1.61,1.34,4.38,4.85
2022-11-15 11:10:47.6710,1.76,1.21,4.2,4.71
2022-11-15 11:10:47.6730,1.75,1.09,4.12,4.6
2022-11-15 11:10:47.6860,1.73,0.99,3.95,4.42
2022-11-15 11:10:47.6880,1.84,1.03,3.62,4.18
2022-11-15 11:10:47.7010,2.09,1.28,3.12,3.96
2022-11-15 11:10:47.7040,2.39,1.56,2.75,3.96
2022-11-15 11:10:47.7190,2.49,1.66,2.89,4.16
2022-11-15 11:10:47.7220,2.14,1.4,3.56,4.38
2022-11-15 11:10:47.7340,1.69,0.86,4.28,4.68
2022-11-15 11:10:47.7360,1.3,0.22,4.87,5.04
2022-11-15 11:10:47.7540,0.93,-0.41,5.19,5.28
2022-11-15 11:10:47.7560,0.59,-1.09,5.07,5.21
2022-11-15 11:10:47.7700,0.26,-1.72,4.46,4.78
2022-11-15 11:10:47.7720,0.01,-2.16,3.28,3.92
2022-11-15 11:10:47.7870,0.06,-2.31,1.71,2.87
2022-11-15 11:10:47.7890,0.26,-2.22,0.13,2.23
2022-11-15 11:10:47.8020,0.36,-1.98,-1.24,2.36
2022-11-15 11:10:47.8050,0.45,-1.66,-2.29,2.86
2022-11-15 11:10:47.8180,0.45,-1.36,-2.92,3.25
2022-11-15 11:10:47.8200,0.27,-1.19,-3.18,3.4
2022-11-15 11:10:47.8380,0.07,-1.17,-3.03,3.24
2022-11-15 11:10:47.8400,-0.05,-1.26,-2.46,2.76
2022-11-15 11:10:47.8530,-0.23,-1.41,-1.82,2.31
2022-11-15 11:10:47.8550,-0.54,-1.58,-1.18,2.04
2022-11-15 11:10:47.8700,-0.83,-1.83,-0.79,2.15
2022-11-15 11:10:47.8730,-1.01,-2.04,-0.68,2.37
2022-11-15 11:10:47.8850,-1.12,-2.16,-0.95,2.61
2022-11-15 11:10:47.8880,-1.17,-2.18,-1.57,2.93
2022-11-15 11:10:47.9020,-1.19,-2.12,-2.3,3.34
2022-11-15 11:10:47.9040,-1.08,-1.99,-2.92,3.69
2022-11-15 11:10:47.9180,-0.97,-1.94,-3.36,3.99
2022-11-15 11:10:47.9200,-1.05,-2.09,-3.68,4.36
2022-11-15 11:10:47.9360,-1.23,-2.25,-3.93,4.69
2022-11-15 11:10:47.9370,-1.24,-2.12,-4.07,4.75
2022-11-15 11:10:47.9520,-1.07,-1.72,-4.04,4.51
2022-11-15 11:10:47.9540,-0.91,-1.17,-3.9,4.17
2022-11-15 11:10:47.9690,-0.67,-0.68,-3.59,3.71
2022-11-15 11:10:47.9720,-0.42,-0.35,-3.12,3.16
2022-11-15 11:10:47.9830,-0.2,-0.21,-2.54,2.55
2022-11-15 11:10:47.9830,-0.07,-0.22,-1.84,1.85
2022-11-15 11:10:48.0020,0.11,-0.26,-1.14,1.17
2022-11-15 11:10:48.0040,0.28,-0.3,-0.39,0.56
2022-11-15 11:10:48.0190,0.34,-0.29,0.31,0.54
2022-11-15 11:10:48.0220,0.33,-0.16,1.0,1.06
2022-11-15 11:10:48.0350,0.22,0.03,1.71,1.72
2022-11-15 11:10:48.0380,0.12,0.33,2.24,2.26
2022-11-15 11:10:48.0520,-0.01,0.64,2.57,2.64
2022-11-15 11:10:48.0550,-0.14,0.96,2.73,2.89
2022-11-15 11:10:48.0670,-0.18,1.24,2.64,2.92
2022-11-15 11:10:48.0700,-0.16,1.49,2.4,2.82
2022-11-15 11:10:48.0880,-0.14,1.63,2.14,2.69
2022-11-15 11:10:48.0890,-0.1,1.75,2.0,2.65
2022-11-15 11:10:48.1020,-0.11,1.85,1.86,2.62
2022-11-15 11:10:48.1050,-0.15,1.97,1.58,2.52
2022-11-15 11:10:48.1200,-0.04,2.19,1.27,2.53
2022-11-15 11:10:48.1220,0.23,2.35,1.07,2.59
2022-11-15 11:10:48.1350,0.29,2.33,0.87,2.5
2022-11-15 11:10:48.1370,0.29,2.18,0.56,2.26
2022-11-15 11:10:48.1520,0.37,2.0,0.2,2.04
2022-11-15 11:10:48.1550,0.51,1.86,-0.08,1.93
2022-11-15 11:10:48.1700,0.69,1.81,-0.28,1.95
2022-11-15 11:10:48.1720,1.06,2.05,-0.37,2.33
2022-11-15 11:10:48.1860,1.7,2.64,-0.14,3.14
2022-11-15 11:10:48.1880,2.36,3.23,0.59,4.04
2022-11-15 11:10:48.2030,2.52,3.22,1.76,4.45
2022-11-15 11:10:48.2060,2.14,2.57,3.18,4.61
2022-11-15 11:10:48.2200,1.58,1.64,4.7,5.22
2022-11-15 11:10:48.2230,0.79,0.59,6.24,6.31
2022-11-15 11:10:48.2340,-0.05,-0.57,7.23,7.25
2022-11-15 11:10:48.2360,-0.85,-1.69,7.37,7.6
2022-11-15 11:10:48.2540,-1.52,-2.53,6.66,7.28
2022-11-15 11:10:48.2560,-1.99,-2.98,5.32,6.41
2022-11-15 11:10:48.2690,-2.14,-3.1,3.57,5.18
2022-11-15 11:10:48.2710,-2.07,-2.97,1.66,3.98
2022-11-15 11:10:48.2860,-2.03,-2.76,-0.16,3.42
2022-11-15 11:10:48.2880,-1.9,-2.44,-1.58,3.47
2022-11-15 11:10:48.3010,-1.74,-2.13,-2.58,3.77
2022-11-15 11:10:48.3040,-1.64,-1.9,-3.17,4.04
2022-11-15 11:10:48.3170,-1.6,-1.77,-3.28,4.05
2022-11-15 11:10:48.3200,-1.61,-1.71,-2.94,3.76
2022-11-15 11:10:48.3370,-1.67,-1.77,-2.42,3.43
2022-11-15 11:10:48.3390,-1.79,-1.94,-2.01,3.31
2022-11-15 11:10:48.3510,-1.83,-2.09,-1.91,3.37
2022-11-15 11:10:48.3530,-1.72,-2.11,-2.06,3.41
2022-11-15 11:10:48.3700,-1.6,-2.05,-2.44,3.56
2022-11-15 11:10:48.3720,-1.52,-2.01,-3.15,4.03
2022-11-15 11:10:48.3840,-1.23,-1.94,-3.98,4.59
2022-11-15 11:10:48.3870,-0.87,-1.89,-4.8,5.23
2022-11-15 11:10:48.4030,-0.62,-1.92,-5.39,5.75
2022-11-15 11:10:48.4050,-0.52,-1.94,-5.76,6.1
2022-11-15 11:10:48.4210,-0.33,-1.76,-5.79,6.06
2022-11-15 11:10:48.4220,-0.13,-1.43,-5.54,5.72
2022-11-15 11:10:48.4360,0.01,-1.05,-5.05,5.15
2022-11-15 11:10:48.4380,0.0,-0.71,-4.43,4.48
2022-11-15 11:10:48.4510,-0.11,-0.44,-3.74,3.76
2022-11-15 11:10:48.4540,-0.11,-0.1,-3.05,3.05
2022-11-15 11:10:48.4700,0.03,0.43,-2.54,2.57
2022-11-15 11:10:48.4730,0.2,0.85,-2.1,2.27
2022-11-15 11:10:48.4850,0.37,1.03,-1.86,2.15
2022-11-15 11:10:48.4880,0.64,1.26,-1.78,2.27
2022-11-15 11:10:48.5040,0.91,1.6,-1.56,2.41
2022-11-15 11:10:48.5060,1.1,1.97,-0.96,2.45
2022-11-15 11:10:48.5200,1.22,2.36,-0.01,2.65
2022-11-15 11:10:48.5230,1.38,2.64,0.99,3.13
2022-11-15 11:10:48.5360,1.43,2.65,1.85,3.53
2022-11-15 11:10:48.5390,1.24,2.44,2.18,3.49
2022-11-15 11:10:48.5530,1.26,2.14,2.07,3.23
2022-11-15 11:10:48.5560,1.6,2.03,1.8,3.14
2022-11-15 11:10:48.5680,2.01,2.02,1.7,3.31
2022-11-15 11:10:48.5700,2.3,1.95,1.94,3.58
2022-11-15 11:10:48.5870,2.35,1.79,2.45,3.83
2022-11-15 11:10:48.5890,2.09,1.43,3.19,4.07
2022-11-15 11:10:48.6030,1.66,0.78,3.87,4.28
2022-11-15 11:10:48.6050,1.14,-0.05,4.26,4.41
2022-11-15 11:10:48.6200,0.78,-0.68,4.52,4.63
2022-11-15 11:10:48.6220,0.67,-0.92,4.6,4.73
2022-11-15 11:10:48.6350,0.56,-0.93,4.29,4.42
2022-11-15 11:10:48.6380,0.6,-0.74,3.52,3.64
2022-11-15 11:10:48.6530,0.74,-0.39,2.65,2.77
2022-11-15 11:10:48.6550,0.99,0.12,1.91,2.15
2022-11-15 11:10:48.6710,1.32,0.73,1.63,2.22
2022-11-15 11:10:48.6730,1.42,1.11,1.94,2.64
2022-11-15 11:10:48.6860,1.09,0.86,2.63,2.97
2022-11-15 11:10:48.6880,0.57,-0.04,3.26,3.3
2022-11-15 11:10:48.7030,0.13,-1.09,3.46,3.62
2022-11-15 11:10:48.7060,-0.39,-2.03,3.17,3.78
2022-11-15 11:10:48.7190,-0.59,-2.58,2.39,3.56
2022-11-15 11:10:48.7220,-0.46,-2.68,1.08,2.92
2022-11-15 11:10:48.7340,-0.28,-2.48,-0.38,2.52
2022-11-15 11:10:48.7360,-0.05,-2.13,-1.71,2.73
2022-11-15 11:10:48.7540,0.34,-1.75,-2.74,3.26
2022-11-15 11:10:48.7560,0.69,-1.48,-3.37,3.74
2022-11-15 11:10:48.7700,0.82,-1.4,-3.59,3.93
2022-11-15 11:10:48.7710,0.82,-1.43,-3.36,3.74
2022-11-15 11:10:48.7860,0.67,-1.5,-2.75,3.2
2022-11-15 11:10:48.7890,0.44,-1.65,-1.84,2.51
2022-11-15 11:10:48.8020,0.22,-1.69,-0.85,1.9
2022-11-15 11:10:48.8050,0.04,-1.64,-0.11,1.64
2022-11-15 11:10:48.8170,-0.27,-1.63,0.46,1.71
2022-11-15 11:10:48.8200,-0.52,-1.6,0.66,1.8
2022-11-15 11:10:48.8370,-0.57,-1.54,0.33,1.67
2022-11-15 11:10:48.8390,-0.62,-1.54,-0.29,1.68
2022-11-15 11:10:48.8530,-0.66,-1.58,-0.87,1.92
2022-11-15 11:10:48.8550,-0.66,-1.62,-1.42,2.25
2022-11-15 11:10:48.8700,-0.79,-1.65,-2.02,2.72
2022-11-15 11:10:48.8730,-0.81,-1.6,-2.69,3.23
2022-11-15 11:10:48.8850,-0.64,-1.38,-3.28,3.61
2022-11-15 11:10:48.8880,-0.59,-1.05,-3.65,3.84
2022-11-15 11:10:48.9010,-0.46,-0.59,-3.74,3.81
2022-11-15 11:10:48.9030,-0.22,-0.08,-3.53,3.53
2022-11-15 11:10:48.9210,-0.05,0.35,-3.09,3.11
2022-11-15 11:10:48.9230,-0.09,0.56,-2.59,2.65
2022-11-15 11:10:48.9360,-0.12,0.59,-2.15,2.23
2022-11-15 11:10:48.9390,-0.02,0.57,-1.91,1.99
2022-11-15 11:10:48.9520,-0.04,0.44,-1.7,1.75
2022-11-15 11:10:48.9550,-0.09,0.31,-1.34,1.37
2022-11-15 11:10:48.9700,-0.1,0.21,-0.9,0.92
2022-11-15 11:10:48.9730,-0.2,0.12,-0.34,0.41
2022-11-15 11:10:48.9850,-0.13,0.22,0.17,0.3
2022-11-15 11:10:48.9870,0.09,0.6,0.57,0.83
2022-11-15 11:10:49.0040,0.1,0.96,0.95,1.35
2022-11-15 11:10:49.0060,0.04,1.1,1.24,1.65
2022-11-15 11:10:49.0190,0.02,1.17,1.55,1.94
2022-11-15 11:10:49.0210,0.06,1.28,1.88,2.27
2022-11-15 11:10:49.0350,-0.07,1.25,2.21,2.53
2022-11-15 11:10:49.0370,-0.1,1.12,2.31,2.56
2022-11-15 11:10:49.0520,-0.2,0.8,2.14,2.29
2022-11-15 11:10:49.0550,-0.23,0.56,1.82,1.91
2022-11-15 11:10:49.0670,0.12,0.7,1.29,1.47
2022-11-15 11:10:49.0690,0.5,1.18,0.59,1.41
2022-11-15 11:10:49.0870,0.69,1.71,0.01,1.84
2022-11-15 11:10:49.0890,0.78,2.12,-0.11,2.26
2022-11-15 11:10:49.1030,0.76,2.41,0.15,2.53
2022-11-15 11:10:49.1050,0.58,2.46,0.47,2.57
2022-11-15 11:10:49.1200,0.48,2.3,0.67,2.44
2022-11-15 11:10:49.1230,0.36,2.03,0.89,2.24
2022-11-15 11:10:49.1360,0.25,1.54,1.4,2.09
2022-11-15 11:10:49.1390,0.27,1.03,2.2,2.44
2022-11-15 11:10:49.1510,0.23,0.62,3.29,3.35
2022-11-15 11:10:49.1530,0.15,0.27,4.45,4.46
2022-11-15 11:10:49.1710,0.02,-0.2,5.16,5.16
2022-11-15 11:10:49.1730,-0.22,-0.76,5.14,5.2
2022-11-15 11:10:49.1870,-0.49,-1.33,4.59,4.8
2022-11-15 11:10:49.1890,-0.7,-1.8,3.73,4.2
2022-11-15 11:10:49.2020,-0.88,-2.13,2.62,3.48
2022-11-15 11:10:49.2050,-0.95,-2.28,1.4,2.83
2022-11-15 11:10:49.2200,-0.83,-2.18,0.38,2.36
2022-11-15 11:10:49.2230,-0.74,-1.87,-0.34,2.03
2022-11-15 11:10:49.2350,-0.7,-1.49,-0.83,1.84
2022-11-15 11:10:49.2370,-0.63,-1.2,-1.21,1.81
2022-11-15 11:10:49.2540,-0.64,-1.03,-1.63,2.03
2022-11-15 11:10:49.2560,-0.71,-0.97,-1.94,2.28
2022-11-15 11:10:49.2700,-0.81,-1.08,-1.95,2.37
2022-11-15 11:10:49.2730,-0.79,-1.23,-1.57,2.14
2022-11-15 11:10:49.2860,-0.76,-1.4,-1.02,1.89
2022-11-15 11:10:49.2890,-0.75,-1.63,-0.67,1.91
2022-11-15 11:10:49.3020,-0.67,-1.84,-0.73,2.08
2022-11-15 11:10:49.3050,-0.47,-1.93,-1.18,2.31
2022-11-15 11:10:49.3170,-0.26,-1.87,-1.8,2.6
2022-11-15 11:10:49.3200,-0.03,-1.59,-2.49,2.95
2022-11-15 11:10:49.3370,0.22,-1.09,-3.22,3.4
2022-11-15 11:10:49.3390,0.4,-0.56,-3.84,3.9
2022-11-15 11:10:49.3520,0.56,-0.12,-4.23,4.26
2022-11-15 11:10:49.3550,0.74,0.13,-4.35,4.41
2022-11-15 11:10:49.3700,0.85,0.2,-4.23,4.31
2022-11-15 11:10:49.3730,0.8,0.06,-3.9,3.98
2022-11-15 11:10:49.3860,0.72,-0.09,-3.5,3.57
2022-11-15 11:10:49.3890,0.66,-0.14,-3.15,3.22
2022-11-15 11:10:49.4010,0.51,-0.1,-2.69,2.73
2022-11-15 11:10:49.4030,0.4,0.04,-2.05,2.08
2022-11-15 11:10:49.4200,0.23,0.14,-1.32,1.34
2022-11-15 11:10:49.4220,0.08,0.21,-0.61,0.65
2022-11-15 11:10:49.4370,0.12,0.46,-0.26,0.54
2022-11-15 11:10:49.4400,0.33,0.81,-0.25,0.9
2022-11-15 11:10:49.4520,0.43,1.04,-0.28,1.15
2022-11-15 11:10:49.4550,0.47,1.13,-0.23,1.24
2022-11-15 11:10:49.4700,0.59,1.07,-0.15,1.23
2022-11-15 11:10:49.4720,0.62,0.85,0.06,1.05
2022-11-15 11:10:49.4840,0.61,0.59,0.43,0.95
2022-11-15 11:10:49.4860,0.57,0.51,0.86,1.15
2022-11-15 11:10:49.5040,0.53,0.71,1.27,1.54
2022-11-15 11:10:49.5060,0.57,1.02,1.59,1.97
2022-11-15 11:10:49.5210,0.6,1.17,1.88,2.29
2022-11-15 11:10:49.5230,0.45,1.05,2.18,2.46
2022-11-15 11:10:49.5360,0.34,0.83,2.44,2.59
2022-11-15 11:10:49.5390,0.35,0.65,2.57,2.67
2022-11-15 11:10:49.5520,0.33,0.51,2.42,2.49
2022-11-15 11:10:49.5550,0.29,0.32,2.24,2.28
2022-11-15 11:10:49.5670,0.39,0.15,2.21,2.24
2022-11-15 11:10:49.5690,0.56,0.17,2.16,2.23
2022-11-15 11:10:49.5870,0.69,0.32,1.97,2.11
2022-11-15 11:10:49.5890,0.65,0.41,1.52,1.7
2022-11-15 11:10:49.6030,0.68,0.68,0.9,1.31
2022-11-15 11:10:49.6050,0.78,1.07,0.23,1.34
2022-11-15 11:10:49.6200,0.87,1.41,0.02,1.65
2022-11-15 11:10:49.6230,1.22,1.71,0.22,2.11
2022-11-15 11:10:49.6350,1.5,1.81,0.86,2.5
2022-11-15 11:10:49.6380,1.34,1.38,1.96,2.74
2022-11-15 11:10:49.6510,1.09,0.66,3.12,3.37
2022-11-15 11:10:49.6530,0.64,-0.21,3.97,4.02
2022-11-15 11:10:49.6720,0.14,-1.09,4.03,4.17
2022-11-15 11:10:49.6750,-0.05,-1.61,3.11,3.5
2022-11-15 11:10:49.6850,0.04,-1.67,1.68,2.36
2022-11-15 11:10:49.6870,0.21,-1.57,-0.01,1.58
2022-11-15 11:10:49.7020,1.11,-1.11,-0.85,1.78
2022-11-15 11:10:49.7050,1.09,-0.86,-1.48,2.02
2022-11-15 11:10:49.7200,1.22,-1.02,-2.03,2.57
2022-11-15 11:10:49.7220,1.38,-1.21,-2.07,2.76
2022-11-15 11:10:49.7340,1.16,-1.31,-1.49,2.29
2022-11-15 11:10:49.7370,0.9,-1.23,-0.81,1.72
2022-11-15 11:10:49.7540,0.59,-0.96,-0.38,1.18
2022-11-15 11:10:49.7560,0.35,-0.58,-0.12,0.68
2022-11-15 11:10:49.7690,0.31,-0.24,-0.07,0.39
2022-11-15 11:10:49.7710,0.24,-0.1,-0.01,0.26
2022-11-15 11:10:49.7860,0.06,-0.21,0.15,0.26
2022-11-15 11:10:49.7890,-0.21,-0.53,0.78,0.96
2022-11-15 11:10:49.8020,-0.53,-0.93,1.14,1.56
2022-11-15 11:10:49.8050,-0.86,-1.32,0.71,1.72
2022-11-15 11:10:49.8170,-0.78,-1.35,0.26,1.58
2022-11-15 11:10:49.8190,-0.64,-1.02,-0.67,1.37
2022-11-15 11:10:49.8370,-0.58,-0.63,-1.83,2.02
2022-11-15 11:10:49.8390,-0.56,-0.54,-2.79,2.89
2022-11-15 11:10:49.8530,-0.59,-0.17,-3.86,3.9
2022-11-15 11:10:49.8560,-0.8,0.38,-4.7,4.78
2022-11-15 11:10:49.8700,-0.49,0.8,-5.19,5.27
2022-11-15 11:10:49.8720,0.18,0.89,-5.54,5.61
2022-11-15 11:10:49.8850,0.61,1.0,-4.65,4.79
2022-11-15 11:10:49.8880,0.43,0.66,-2.97,3.07
2022-11-15 11:10:49.9010,0.03,-0.03,-1.41,1.41
2022-11-15 11:10:49.9030,-0.11,-0.43,-0.02,0.44
2022-11-15 11:10:49.9210,0.07,-0.54,0.61,0.81
2022-11-15 11:10:49.9220,0.07,-0.47,0.52,0.7
2022-11-15 11:10:49.9370,-0.05,0.04,0.27,0.27
2022-11-15 11:10:49.9400,-0.04,0.83,0.13,0.84
2022-11-15 11:10:49.9520,-0.02,1.53,0.24,1.54
2022-11-15 11:10:49.9550,-0.07,1.86,0.45,1.91
2022-11-15 11:10:49.9700,-0.26,1.78,0.63,1.9
2022-11-15 11:10:49.9730,-0.41,1.46,0.96,1.79
2022-11-15 11:10:49.9840,-0.42,1.12,1.48,1.9
2022-11-15 11:10:49.9860,-0.51,0.75,2.2,2.37
2022-11-15 11:10:50.0040,-0.68,0.46,2.98,3.09
2022-11-15 11:10:50.0060,-0.81,0.19,3.99,4.07
2022-11-15 11:10:50.0190,-1.01,0.22,4.05,4.17
2022-11-15 11:10:50.0210,-1.06,0.63,2.91,3.16
2022-11-15 11:10:50.0350,-0.66,1.22,2.11,2.52
2022-11-15 11:10:50.0380,-0.23,1.79,1.14,2.13
2022-11-15 11:10:50.0530,0.02,2.14,0.4,2.17
2022-11-15 11:10:50.0560,0.23,2.26,0.31,2.29
2022-11-15 11:10:50.0680,0.48,2.24,0.78,2.42
2022-11-15 11:10:50.0700,0.49,1.96,2.0,2.84
2022-11-15 11:10:50.0870,0.0,1.31,3.59,3.82
2022-11-15 11:10:50.0890,-0.61,0.38,5.12,5.17
2022-11-15 11:10:50.1030,-1.16,-0.67,6.23,6.37
2022-11-15 11:10:50.1060,-1.75,-1.66,6.66,7.08
2022-11-15 11:10:50.1200,-2.19,-2.39,6.27,7.05
2022-11-15 11:10:50.1230,-2.36,-2.79,4.85,6.07
2022-11-15 11:10:50.1360,-2.2,-2.76,2.88,4.55
2022-11-15 11:10:50.1390,-2.01,-2.48,0.87,3.3
2022-11-15 11:10:50.1510,-1.89,-2.18,-0.92,3.02
2022-11-15 11:10:50.1530,-1.71,-1.91,-2.21,3.38
2022-11-15 11:10:50.1710,-1.5,-1.7,-3.03,3.78
2022-11-15 11:10:50.1720,-1.4,-1.5,-3.4,3.97
2022-11-15 11:10:50.1860,-1.41,-1.25,-3.45,3.93
2022-11-15 11:10:50.1880,-1.42,-0.94,-3.19,3.61
2022-11-15 11:10:50.2030,-1.35,-0.75,-2.79,3.18
2022-11-15 11:10:50.2060,-1.25,-0.72,-2.45,2.84
2022-11-15 11:10:50.2180,-1.13,-0.72,-2.2,2.57
2022-11-15 11:10:50.2210,-1.06,-0.71,-1.9,2.28
2022-11-15 11:10:50.2340,-0.97,-0.78,-1.36,1.84
2022-11-15 11:10:50.2360,-0.84,-0.56,-0.85,1.31
2022-11-15 11:10:50.2540,-0.56,-0.56,-0.57,0.97
2022-11-15 11:10:50.2560,-0.45,-0.91,-0.76,1.26
2022-11-15 11:10:50.2700,-0.45,-1.42,-1.54,2.14
2022-11-15 11:10:50.2730,-0.32,-1.97,-2.64,3.3
2022-11-15 11:10:50.2860,-0.43,-2.3,-3.64,4.32
2022-11-15 11:10:50.2890,-0.65,-2.35,-4.44,5.06
2022-11-15 11:10:50.3030,-0.7,-2.2,-4.83,5.35
2022-11-15 11:10:50.3060,-0.74,-1.87,-4.69,5.1
2022-11-15 11:10:50.3170,-0.61,-1.43,-4.22,4.49
2022-11-15 11:10:50.3190,-0.46,-0.85,-3.48,3.61
2022-11-15 11:10:50.3370,-0.23,-0.25,-2.69,2.71
2022-11-15 11:10:50.3390,-0.17,0.27,-2.0,2.02
2022-11-15 11:10:50.3530,-0.23,0.52,-1.52,1.62
2022-11-15 11:10:50.3560,-0.31,0.5,-1.26,1.39
2022-11-15 11:10:50.3700,-0.33,0.32,-1.25,1.33
2022-11-15 11:10:50.3720,-0.3,0.22,-1.4,1.44
2022-11-15 11:10:50.3840,-0.13,0.31,-1.54,1.57
2022-11-15 11:10:50.3870,0.12,0.63,-1.5,1.63
2022-11-15 11:10:50.4010,0.4,1.05,-1.26,1.68
2022-11-15 11:10:50.4030,0.7,1.37,-1.04,1.85
2022-11-15 11:10:50.4210,0.95,1.51,-0.92,2.0
2022-11-15 11:10:50.4220,1.08,1.49,-0.74,1.98
2022-11-15 11:10:50.4370,1.14,1.45,-0.44,1.89
2022-11-15 11:10:50.4400,1.15,1.36,0.05,1.78
2022-11-15 11:10:50.4530,1.09,1.31,0.74,1.85
2022-11-15 11:10:50.4550,0.98,1.25,1.51,2.19
2022-11-15 11:10:50.4690,0.88,1.11,2.26,2.66
2022-11-15 11:10:50.4720,0.69,1.0,2.87,3.11
2022-11-15 11:10:50.4840,0.46,0.92,3.36,3.51
2022-11-15 11:10:50.4860,0.26,0.74,3.56,3.64
2022-11-15 11:10:50.5040,0.07,0.43,3.59,3.61
2022-11-15 11:10:50.5060,-0.02,0.26,3.48,3.48
2022-11-15 11:10:50.5200,0.05,0.35,3.14,3.15
2022-11-15 11:10:50.5230,0.1,0.5,2.47,2.52
2022-11-15 11:10:50.5340,0.22,0.71,1.73,1.88
2022-11-15 11:10:50.5360,0.49,1.12,0.97,1.56
2022-11-15 11:10:50.5530,0.84,1.75,0.54,2.01
2022-11-15 11:10:50.5560,1.25,2.37,1.0,2.85
2022-11-15 11:10:50.5670,1.33,2.68,2.25,3.74
2022-11-15 11:10:50.5700,1.0,2.45,3.54,4.41
2022-11-15 11:10:50.5870,0.62,1.65,4.71,5.02
2022-11-15 11:10:50.5890,0.12,0.54,5.49,5.51
2022-11-15 11:10:50.6030,-0.4,-0.63,5.68,5.72
2022-11-15 11:10:50.6050,-0.85,-1.66,5.0,5.33
2022-11-15 11:10:50.6180,-0.9,-2.25,3.63,4.36
2022-11-15 11:10:50.6210,-0.49,-2.27,2.12,3.14
2022-11-15 11:10:50.6350,-0.12,-1.95,0.69,2.07
2022-11-15 11:10:50.6380,0.2,-1.52,-0.59,1.64
2022-11-15 11:10:50.6510,0.5,-1.19,-1.63,2.07
2022-11-15 11:10:50.6530,0.63,-0.97,-2.24,2.52
2022-11-15 11:10:50.6710,0.51,-0.88,-2.4,2.6
2022-11-15 11:10:50.6730,0.28,-0.88,-2.01,2.21
2022-11-15 11:10:50.6860,0.0,-0.94,-1.18,1.5
2022-11-15 11:10:50.6880,-0.33,-1.06,-0.38,1.17
2022-11-15 11:10:50.7030,-0.65,-1.16,0.04,1.33
2022-11-15 11:10:50.7060,-0.88,-1.19,0.05,1.48
2022-11-15 11:10:50.7180,-0.97,-1.17,-0.28,1.54
2022-11-15 11:10:50.7210,-0.95,-1.07,-0.86,1.66
2022-11-15 11:10:50.7340,-0.94,-0.91,-1.63,2.09
2022-11-15 11:10:50.7360,-0.92,-0.8,-2.35,2.64
2022-11-15 11:10:50.7540,-0.95,-0.83,-3.02,3.27
2022-11-15 11:10:50.7560,-1.0,-0.94,-3.7,3.94
2022-11-15 11:10:50.7700,-0.95,-1.0,-4.23,4.44
2022-11-15 11:10:50.7730,-0.86,-0.97,-4.55,4.73
2022-11-15 11:10:50.7860,-0.77,-0.87,-4.7,4.84
2022-11-15 11:10:50.7890,-0.64,-0.69,-4.77,4.86
2022-11-15 11:10:50.8030,-0.45,-0.31,-4.8,4.83
2022-11-15 11:10:50.8050,-0.26,0.17,-4.68,4.69
2022-11-15 11:10:50.8190,-0.1,0.74,-4.46,4.52
2022-11-15 11:10:50.8210,0.27,1.47,-4.04,4.3
2022-11-15 11:10:50.8370,0.74,2.23,-3.33,4.07
2022-11-15 11:10:50.8390,1.08,2.7,-2.15,3.61
2022-11-15 11:10:50.8540,1.27,2.79,-0.57,3.11
2022-11-15 11:10:50.8560,1.15,2.39,1.27,2.94
2022-11-15 11:10:50.8680,0.77,1.6,2.97,3.46
2022-11-15 11:10:50.8710,0.26,0.69,4.24,4.3
2022-11-15 11:10:50.8850,-0.25,-0.16,4.93,4.93
2022-11-15 11:10:50.8880,-0.62,-0.8,5.02,5.12
2022-11-15 11:10:50.9010,-0.83,-1.11,4.59,4.79
2022-11-15 11:10:50.9030,-0.87,-1.14,3.78,4.04
2022-11-15 11:10:50.9190,-0.86,-1.11,2.89,3.21
2022-11-15 11:10:50.9200,-0.96,-1.0,2.12,2.53
2022-11-15 11:10:50.9360,-1.0,-0.75,1.43,1.89
2022-11-15 11:10:50.9380,-0.96,-0.44,0.81,1.33
2022-11-15 11:10:50.9520,-0.92,-0.11,0.27,0.96
2022-11-15 11:10:50.9540,-0.89,0.34,-0.16,0.96
2022-11-15 11:10:50.9680,-0.78,0.87,-0.37,1.22
2022-11-15 11:10:50.9700,-0.78,1.36,-0.36,1.6
2022-11-15 11:10:50.9850,-0.86,1.75,-0.08,1.95
2022-11-15 11:10:50.9870,-0.82,2.0,0.31,2.18
2022-11-15 11:10:51.0040,-0.62,2.09,0.65,2.27
2022-11-15 11:10:51.0060,-0.54,1.92,1.02,2.24
2022-11-15 11:10:51.0200,-0.54,1.62,1.44,2.23
2022-11-15 11:10:51.0230,-0.37,1.51,2.02,2.54
2022-11-15 11:10:51.0370,-0.15,1.47,2.76,3.13
2022-11-15 11:10:51.0400,0.01,1.35,3.7,3.93
2022-11-15 11:10:51.0520,0.01,1.12,4.62,4.75
2022-11-15 11:10:51.0550,-0.06,0.74,5.32,5.37
2022-11-15 11:10:51.0680,-0.19,0.11,5.48,5.48
2022-11-15 11:10:51.0700,-0.44,-0.82,4.9,4.98
2022-11-15 11:10:51.0860,-0.85,-1.98,3.63,4.22
2022-11-15 11:10:51.0880,-1.31,-2.96,1.99,3.79
2022-11-15 11:10:51.1010,-1.74,-3.45,0.3,3.87
2022-11-15 11:10:51.1030,-1.78,-3.28,-1.06,3.87
2022-11-15 11:10:51.1200,-1.39,-2.55,-2.04,3.54
2022-11-15 11:10:51.1230,-0.9,-1.69,-2.37,3.04
2022-11-15 11:10:51.1340,-0.54,-1.07,-2.06,2.38
2022-11-15 11:10:51.1370,-0.48,-0.94,-1.25,1.63
2022-11-15 11:10:51.1520,-0.71,-1.24,-0.4,1.48
2022-11-15 11:10:51.1540,-1.05,-1.68,0.13,1.98
2022-11-15 11:10:51.1700,-1.24,-2.02,0.29,2.38
2022-11-15 11:10:51.1720,-1.32,-2.2,0.03,2.56
2022-11-15 11:10:51.1850,-1.24,-2.14,-0.67,2.56
2022-11-15 11:10:51.1870,-0.93,-1.78,-1.59,2.56
2022-11-15 11:10:51.2030,-0.66,-1.2,-2.53,2.87
2022-11-15 11:10:51.2060,-0.41,-0.42,-3.53,3.57
2022-11-15 11:10:51.2190,0.06,0.37,-4.46,4.47
2022-11-15 11:10:51.2220,0.54,0.87,-4.87,4.97
2022-11-15 11:10:51.2340,0.68,1.02,-4.81,4.96
2022-11-15 11:10:51.2360,0.68,0.87,-4.6,4.73
2022-11-15 11:10:51.2540,0.79,0.56,-4.41,4.51
2022-11-15 11:10:51.2560,0.84,0.21,-4.11,4.2
2022-11-15 11:10:51.2690,0.84,-0.16,-3.61,3.7
2022-11-15 11:10:51.2710,0.95,-0.37,-3.04,3.2
2022-11-15 11:10:51.2850,1.0,-0.32,-2.66,2.85
2022-11-15 11:10:51.2880,0.94,-0.22,-2.43,2.61
2022-11-15 11:10:51.3030,0.84,-0.18,-2.24,2.39
2022-11-15 11:10:51.3060,0.68,-0.02,-2.09,2.19
2022-11-15 11:10:51.3180,0.69,0.23,-1.9,2.03
2022-11-15 11:10:51.3200,0.82,0.45,-1.73,1.96
2022-11-15 11:10:51.3370,0.85,0.55,-1.7,1.97
2022-11-15 11:10:51.3390,0.84,0.5,-1.76,2.01
2022-11-15 11:10:51.3540,0.88,0.35,-1.72,1.96
2022-11-15 11:10:51.3560,0.98,0.2,-1.49,1.79
2022-11-15 11:10:51.3680,1.09,0.06,-1.14,1.57
2022-11-15 11:10:51.3700,1.28,-0.02,-0.68,1.44
2022-11-15 11:10:51.3850,1.48,0.08,-0.25,1.5
2022-11-15 11:10:51.3890,1.56,0.37,0.22,1.61
2022-11-15 11:10:51.4010,1.63,0.72,0.66,1.9
2022-11-15 11:10:51.4030,1.59,0.95,1.18,2.19
2022-11-15 11:10:51.4200,1.53,1.0,1.69,2.48
2022-11-15 11:10:51.4220,1.48,0.94,2.04,2.68
2022-11-15 11:10:51.4370,1.25,0.79,2.41,2.82
2022-11-15 11:10:51.4400,0.99,0.64,2.73,2.97
2022-11-15 11:10:51.4530,0.8,0.62,2.91,3.08
2022-11-15 11:10:51.4560,0.71,0.81,3.01,3.19
2022-11-15 11:10:51.4700,0.76,1.19,3.0,3.31
2022-11-15 11:10:51.4720,0.9,1.65,2.79,3.36
2022-11-15 11:10:51.4840,1.12,2.07,2.42,3.37
2022-11-15 11:10:51.4860,1.46,2.46,2.2,3.6
2022-11-15 11:10:51.5040,1.96,2.88,2.49,4.28
2022-11-15 11:10:51.5060,2.3,2.99,3.29,5.0
2022-11-15 11:10:51.5190,2.23,2.49,4.28,5.43
2022-11-15 11:10:51.5210,1.73,1.54,5.23,5.71
2022-11-15 11:10:51.5360,1.05,0.43,5.95,6.05
2022-11-15 11:10:51.5390,0.49,-0.68,6.08,6.13
2022-11-15 11:10:51.5510,0.0,-1.6,5.52,5.74
2022-11-15 11:10:51.5530,-0.36,-2.17,4.27,4.8
2022-11-15 11:10:51.5680,-0.28,-2.23,2.69,3.5
2022-11-15 11:10:51.5710,-0.04,-1.97,0.99,2.2
2022-11-15 11:10:51.5870,0.02,-1.67,-0.79,1.84
2022-11-15 11:10:51.5890,0.22,-1.48,-2.09,2.57
2022-11-15 11:10:51.6040,0.33,-1.41,-2.76,3.11
2022-11-15 11:10:51.6070,0.25,-1.49,-2.85,3.22
2022-11-15 11:10:51.6180,0.1,-1.63,-2.52,3.0
2022-11-15 11:10:51.6210,-0.04,-1.6,-1.95,2.52
2022-11-15 11:10:51.6350,-0.34,-1.47,-1.5,2.12
2022-11-15 11:10:51.6380,-0.56,-1.34,-1.31,1.95
2022-11-15 11:10:51.6510,-0.65,-1.26,-1.45,2.02
2022-11-15 11:10:51.6530,-0.88,-1.37,-1.82,2.44
2022-11-15 11:10:51.6710,-1.1,-1.56,-2.37,3.04
2022-11-15 11:10:51.6730,-1.2,-1.75,-3.05,3.71
2022-11-15 11:10:51.6860,-1.37,-1.95,-3.69,4.39
2022-11-15 11:10:51.6890,-1.4,-2.01,-4.16,4.82
2022-11-15 11:10:51.7030,-1.4,-1.96,-4.48,5.08
2022-11-15 11:10:51.7060,-1.3,-1.79,-4.53,5.04
2022-11-15 11:10:51.7180,-1.09,-1.52,-4.28,4.67
2022-11-15 11:10:51.7210,-0.89,-1.23,-3.9,4.18
