time,ax,ay,az,atotal
2022-11-15 11:10:30.1390,-0.05,-0.56,-2.24,2.3
2022-11-15 11:10:30.1430,-0.08,-0.33,-2.19,2.21
2022-11-15 11:10:30.1500,-0.1,-0.16,-2.23,2.23
2022-11-15 11:10:30.1510,-0.07,-0.04,-2.26,2.26
2022-11-15 11:10:30.1670,-0.05,-0.02,-2.14,2.14
2022-11-15 11:10:30.1690,-0.05,-0.06,-1.92,1.92
2022-11-15 11:10:30.1820,-0.03,-0.14,-1.86,1.86
2022-11-15 11:10:30.1850,0.04,-0.23,-1.8,1.81
2022-11-15 11:10:30.1980,0.2,-0.27,-1.72,1.75
2022-11-15 11:10:30.2000,0.36,-0.25,-1.77,1.82
2022-11-15 11:10:30.2170,0.51,-0.27,-2.08,2.15
2022-11-15 11:10:30.2180,0.58,-0.34,-2.44,2.53
2022-11-15 11:10:30.2340,0.58,-0.35,-2.58,2.66
2022-11-15 11:10:30.2360,0.56,-0.19,-2.3,2.37
2022-11-15 11:10:30.2490,0.39,0.04,-1.6,1.64
2022-11-15 11:10:30.2520,0.08,0.29,-0.94,0.98
2022-11-15 11:10:30.2650,-0.06,0.57,-0.56,0.8
2022-11-15 11:10:30.2680,-0.04,0.74,-0.2,0.76
2022-11-15 11:10:30.2810,0.05,0.8,0.05,0.8
2022-11-15 11:10:30.2830,0.08,0.87,0.09,0.87
2022-11-15 11:10:30.3020,-0.11,0.98,0.12,0.99
2022-11-15 11:10:30.3050,-0.4,1.07,0.33,1.18
2022-11-15 11:10:30.3150,-0.61,1.18,0.64,1.47
2022-11-15 11:10:30.3170,-0.63,1.44,0.91,1.81
2022-11-15 11:10:30.3330,-0.65,1.65,1.16,2.11
2022-11-15 11:10:30.3360,-0.65,1.73,1.64,2.47
2022-11-15 11:10:30.3490,-0.56,1.64,2.12,2.73
2022-11-15 11:10:30.3520,-0.47,1.6,2.25,2.8
2022-11-15 11:10:30.3650,-0.57,1.67,2.11,2.75
2022-11-15 11:10:30.3670,-0.69,1.78,1.99,2.75
2022-11-15 11:10:30.3840,-0.61,1.78,1.93,2.69
2022-11-15 11:10:30.3860,-0.51,1.44,2.15,2.63
2022-11-15 11:10:30.4010,-0.7,0.9,2.8,3.02
2022-11-15 11:10:30.4030,-0.86,0.55,3.34,3.49
2022-11-15 11:10:30.4150,-0.83,0.28,3.59,3.69
2022-11-15 11:10:30.4170,-0.42,-0.15,3.7,3.72
2022-11-15 11:10:30.4330,0.19,-0.74,3.63,3.7
2022-11-15 11:10:30.4360,0.78,-1.29,3.27,3.6
2022-11-15 11:10:30.4480,1.13,-1.78,2.76,3.47
2022-11-15 11:10:30.4500,1.45,-2.12,2.26,3.42
2022-11-15 11:10:30.4680,1.66,-2.2,1.76,3.27
2022-11-15 11:10:30.4690,1.59,-2.05,1.17,2.84
2022-11-15 11:10:30.4840,1.31,-1.75,0.59,2.26
2022-11-15 11:10:30.4860,0.89,-1.4,0.11,1.66
2022-11-15 11:10:30.5000,0.48,-1.06,-0.35,1.21
2022-11-15 11:10:30.5030,0.2,-0.79,-0.81,1.14
2022-11-15 11:10:30.5150,0.05,-0.65,-1.22,1.38
2022-11-15 11:10:30.5170,0.05,-0.63,-1.55,1.67
2022-11-15 11:10:30.5310,0.22,-0.68,-1.68,1.82
2022-11-15 11:10:30.5330,0.45,-0.75,-1.51,1.74
2022-11-15 11:10:30.5510,0.68,-0.79,-1.12,1.53
2022-11-15 11:10:30.5540,0.91,-0.79,-1.03,1.58
2022-11-15 11:10:30.5650,1.11,-0.72,-1.3,1.85
2022-11-15 11:10:30.5680,1.25,-0.59,-1.81,2.27
2022-11-15 11:10:30.5830,1.24,-0.42,-2.4,2.73
2022-11-15 11:10:30.5850,1.03,-0.23,-3.0,3.18
2022-11-15 11:10:30.5990,0.79,-0.04,-3.5,3.58
2022-11-15 11:10:30.6020,0.56,0.15,-3.94,3.98
2022-11-15 11:10:30.6150,0.32,0.3,-4.15,4.17
2022-11-15 11:10:30.6170,0.07,0.39,-4.15,4.16
2022-11-15 11:10:30.6340,-0.03,0.37,-4.0,4.01
2022-11-15 11:10:30.6360,-0.03,0.29,-3.77,3.78
2022-11-15 11:10:30.6510,0.17,0.14,-3.66,3.66
2022-11-15 11:10:30.6540,0.62,-0.15,-3.61,3.66
2022-11-15 11:10:30.6650,1.1,-0.51,-2.93,3.17
2022-11-15 11:10:30.6680,1.45,-0.72,-1.82,2.43
2022-11-15 11:10:30.6830,0.98,-0.56,-1.49,1.86
2022-11-15 11:10:30.6860,0.45,-0.26,-1.42,1.51
2022-11-15 11:10:30.6980,-0.26,0.17,-0.97,1.01
2022-11-15 11:10:30.7000,-0.85,0.74,-0.46,1.21
2022-11-15 11:10:30.7180,-1.29,1.21,-0.31,1.79
2022-11-15 11:10:30.7190,-1.51,1.41,-0.29,2.08
2022-11-15 11:10:30.7340,-1.4,1.36,-0.36,1.98
2022-11-15 11:10:30.7360,-1.02,1.34,-0.23,1.69
2022-11-15 11:10:30.7500,-0.5,1.32,0.53,1.5
2022-11-15 11:10:30.7530,-0.17,1.13,1.38,1.79
2022-11-15 11:10:30.7650,-0.26,1.03,1.95,2.22
2022-11-15 11:10:30.7680,-0.64,1.22,2.58,2.92
2022-11-15 11:10:30.7820,-1.27,1.49,3.06,3.63
2022-11-15 11:10:30.7840,-1.82,1.62,3.13,3.96
2022-11-15 11:10:30.8010,-2.13,1.6,3.21,4.17
2022-11-15 11:10:30.8030,-2.12,1.5,3.25,4.16
2022-11-15 11:10:30.8160,-2.12,1.47,2.9,3.88
2022-11-15 11:10:30.8180,-1.99,1.61,2.71,3.72
2022-11-15 11:10:30.8340,-1.89,1.74,3.04,3.98
2022-11-15 11:10:30.8360,-2.04,2.02,2.97,4.13
2022-11-15 11:10:30.8490,-2.4,2.16,3.16,4.51
2022-11-15 11:10:30.8510,-2.84,2.05,3.65,5.05
2022-11-15 11:10:30.8650,-3.1,1.55,3.92,5.23
2022-11-15 11:10:30.8670,-2.89,0.6,3.86,4.85
2022-11-15 11:10:30.8840,-2.22,-0.47,3.49,4.16
2022-11-15 11:10:30.8860,-1.65,-1.25,3.2,3.81
2022-11-15 11:10:30.8990,-1.37,-1.6,2.94,3.61
2022-11-15 11:10:30.9020,-1.16,-1.8,2.52,3.3
2022-11-15 11:10:30.9160,-0.9,-1.99,2.0,2.96
2022-11-15 11:10:30.9190,-0.61,-1.94,1.36,2.44
2022-11-15 11:10:30.9330,-0.39,-1.61,0.63,1.77
2022-11-15 11:10:30.9360,-0.31,-1.22,-0.16,1.26
2022-11-15 11:10:30.9480,-0.32,-0.93,-0.89,1.32
2022-11-15 11:10:30.9500,-0.35,-0.77,-1.36,1.6
2022-11-15 11:10:30.9690,-0.36,-0.56,-1.58,1.71
2022-11-15 11:10:30.9710,-0.33,-0.33,-1.73,1.79
2022-11-15 11:10:30.9840,-0.19,-0.21,-1.91,1.93
2022-11-15 11:10:30.9870,0.04,-0.18,-1.92,1.92
2022-11-15 11:10:30.9980,0.14,-0.25,-1.74,1.76
2022-11-15 11:10:31.0010,0.25,-0.45,-1.83,1.9
2022-11-15 11:10:31.0160,0.6,-0.64,-2.03,2.21
2022-11-15 11:10:31.0190,0.99,-0.78,-2.24,2.57
2022-11-15 11:10:31.0310,1.31,-0.8,-2.72,3.12
2022-11-15 11:10:31.0330,1.52,-0.74,-3.2,3.61
2022-11-15 11:10:31.0520,1.8,-0.61,-3.39,3.88
2022-11-15 11:10:31.0550,1.99,-0.46,-3.35,3.92
2022-11-15 11:10:31.0660,1.71,-0.25,-3.31,3.73
2022-11-15 11:10:31.0690,1.13,-0.1,-3.37,3.55
2022-11-15 11:10:31.0830,0.77,-0.02,-3.61,3.69
2022-11-15 11:10:31.0860,0.75,0.03,-3.76,3.83
2022-11-15 11:10:31.0980,0.66,0.1,-3.61,3.67
2022-11-15 11:10:31.1010,0.34,0.15,-3.39,3.41
2022-11-15 11:10:31.1150,0.0,0.14,-3.13,3.13
2022-11-15 11:10:31.1160,-0.16,0.17,-2.86,2.86
2022-11-15 11:10:31.1340,-0.25,0.24,-2.5,2.52
2022-11-15 11:10:31.1360,-0.24,0.23,-2.25,2.27
2022-11-15 11:10:31.1490,-0.25,0.17,-1.87,1.89
2022-11-15 11:10:31.1520,-0.35,0.29,-1.39,1.46
2022-11-15 11:10:31.1670,-0.5,0.48,-0.98,1.2
2022-11-15 11:10:31.1700,-0.74,0.49,-0.33,0.94
2022-11-15 11:10:31.1830,-1.02,0.43,0.32,1.15
2022-11-15 11:10:31.1860,-1.29,0.36,0.84,1.58
2022-11-15 11:10:31.1980,-1.42,0.27,1.31,1.95
2022-11-15 11:10:31.2000,-1.27,0.18,1.78,2.19
2022-11-15 11:10:31.2010,-1.06,0.11,2.41,2.63
2022-11-15 11:10:31.2030,-0.95,0.09,2.98,3.12
2022-11-15 11:10:31.2190,-0.66,0.05,3.08,3.15
2022-11-15 11:10:31.2200,-0.26,0.0,2.89,2.9
2022-11-15 11:10:31.2330,-0.09,0.07,2.6,2.6
2022-11-15 11:10:31.2350,-0.1,0.21,2.26,2.27
2022-11-15 11:10:31.2490,-0.15,0.37,1.9,1.94
2022-11-15 11:10:31.2510,-0.24,0.76,1.69,1.86
2022-11-15 11:10:31.2650,-0.36,1.29,1.79,2.23
2022-11-15 11:10:31.2670,-0.5,1.74,2.47,3.06
2022-11-15 11:10:31.2840,-1.1,2.0,3.74,4.38
2022-11-15 11:10:31.2850,-2.03,2.14,4.57,5.43
2022-11-15 11:10:31.2990,-2.27,2.06,4.46,5.41
2022-11-15 11:10:31.3020,-1.62,1.29,4.11,4.6
2022-11-15 11:10:31.3170,-0.71,0.4,3.87,3.95
2022-11-15 11:10:31.3190,0.1,-0.42,3.35,3.37
2022-11-15 11:10:31.3320,0.94,-1.2,2.76,3.15
2022-11-15 11:10:31.3350,1.54,-1.85,2.17,3.24
2022-11-15 11:10:31.3480,1.67,-2.24,1.49,3.16
2022-11-15 11:10:31.3500,1.46,-2.33,0.82,2.86
2022-11-15 11:10:31.3690,1.43,-2.17,0.26,2.61
2022-11-15 11:10:31.3720,1.22,-2.02,-0.15,2.36
2022-11-15 11:10:31.3850,0.93,-1.86,-0.66,2.18
2022-11-15 11:10:31.3870,1.03,-1.62,-1.2,2.26
2022-11-15 11:10:31.3990,1.21,-1.38,-1.5,2.37
2022-11-15 11:10:31.4010,1.25,-1.21,-1.76,2.47
2022-11-15 11:10:31.4160,1.17,-1.07,-1.97,2.52
2022-11-15 11:10:31.4190,1.03,-0.85,-2.13,2.51
2022-11-15 11:10:31.4310,0.93,-0.56,-2.4,2.63
2022-11-15 11:10:31.4330,0.88,-0.33,-2.78,2.93
2022-11-15 11:10:31.4510,0.72,-0.16,-3.01,3.09
2022-11-15 11:10:31.4530,0.47,0.01,-3.05,3.08
2022-11-15 11:10:31.4670,0.13,0.21,-3.0,3.01
2022-11-15 11:10:31.4700,-0.27,0.39,-2.84,2.87
2022-11-15 11:10:31.4830,-0.5,0.42,-2.67,2.74
2022-11-15 11:10:31.4860,-0.44,0.3,-2.41,2.46
2022-11-15 11:10:31.4990,-0.3,0.23,-2.2,2.23
2022-11-15 11:10:31.5010,-0.17,0.16,-2.3,2.31
2022-11-15 11:10:31.5140,-0.07,0.16,-2.41,2.41
2022-11-15 11:10:31.5160,-0.1,0.2,-2.34,2.35
2022-11-15 11:10:31.5340,-0.42,0.35,-2.19,2.25
2022-11-15 11:10:31.5360,-0.76,0.57,-2.15,2.35
2022-11-15 11:10:31.5490,-0.88,0.85,-2.09,2.42
2022-11-15 11:10:31.5510,-1.12,1.07,-1.98,2.51
2022-11-15 11:10:31.5670,-1.31,1.23,-1.91,2.62
2022-11-15 11:10:31.5700,-1.2,1.35,-1.77,2.52
2022-11-15 11:10:31.5820,-0.99,1.42,-1.58,2.34
2022-11-15 11:10:31.5850,-0.79,1.51,-1.53,2.29
2022-11-15 11:10:31.5980,-0.55,1.92,-1.6,2.55
2022-11-15 11:10:31.6000,-0.48,1.58,-1.29,2.09
2022-11-15 11:10:31.6180,-0.45,1.48,-0.95,1.81
2022-11-15 11:10:31.6200,-0.73,1.8,-0.64,2.04
2022-11-15 11:10:31.6340,-1.22,2.22,-0.22,2.54
2022-11-15 11:10:31.6370,-1.59,2.5,0.22,2.97
2022-11-15 11:10:31.6480,-1.79,2.54,0.57,3.15
2022-11-15 11:10:31.6510,-1.84,2.43,1.05,3.22
2022-11-15 11:10:31.6660,-1.69,2.24,1.18,3.04
2022-11-15 11:10:31.6690,-1.48,1.88,1.34,2.74
2022-11-15 11:10:31.6810,-1.37,1.48,1.52,2.52
2022-11-15 11:10:31.6830,-1.4,1.19,1.4,2.3
2022-11-15 11:10:31.7010,-1.57,0.97,1.38,2.3
2022-11-15 11:10:31.7020,-1.86,1.17,2.52,3.34
2022-11-15 11:10:31.7170,-2.58,1.5,3.58,4.66
2022-11-15 11:10:31.7200,-3.59,1.49,3.9,5.5
2022-11-15 11:10:31.7320,-3.88,1.18,3.82,5.57
2022-11-15 11:10:31.7340,-3.28,0.43,3.66,4.93
2022-11-15 11:10:31.7490,-2.57,-0.54,3.57,4.43
2022-11-15 11:10:31.7510,-2.13,-1.32,3.51,4.31
2022-11-15 11:10:31.7650,-1.92,-1.79,3.46,4.34
2022-11-15 11:10:31.7670,-1.87,-2.06,3.5,4.47
2022-11-15 11:10:31.7840,-1.69,-2.27,3.5,4.5
2022-11-15 11:10:31.7860,-1.34,-2.42,3.09,4.14
2022-11-15 11:10:31.7990,-0.92,-2.47,2.41,3.57
2022-11-15 11:10:31.8010,-0.63,-2.38,1.61,2.94
2022-11-15 11:10:31.8160,-0.61,-2.19,0.91,2.44
2022-11-15 11:10:31.8180,-0.83,-1.9,0.5,2.13
2022-11-15 11:10:31.8320,-1.2,-1.65,0.47,2.09
2022-11-15 11:10:31.8340,-1.45,-1.53,0.62,2.19
2022-11-15 11:10:31.8480,-1.54,-1.57,0.68,2.3
2022-11-15 11:10:31.8500,-1.32,-1.76,0.38,2.23
2022-11-15 11:10:31.8680,-0.93,-1.96,0.01,2.16
2022-11-15 11:10:31.8700,-0.42,-1.99,-0.46,2.08
2022-11-15 11:10:31.8840,0.08,-1.99,-1.03,2.24
2022-11-15 11:10:31.8870,0.41,-2.0,-1.74,2.68
2022-11-15 11:10:31.8990,0.56,-1.88,-2.42,3.11
2022-11-15 11:10:31.9010,0.72,-1.58,-2.76,3.26
2022-11-15 11:10:31.9170,0.71,-1.15,-3.09,3.37
2022-11-15 11:10:31.9190,0.22,-0.82,-3.28,3.38
2022-11-15 11:10:31.9310,-0.48,-0.77,-3.42,3.53
2022-11-15 11:10:31.9330,-0.91,-0.92,-3.48,3.71
2022-11-15 11:10:31.9510,-1.12,-1.11,-3.41,3.75
2022-11-15 11:10:31.9530,-1.23,-1.49,-3.52,4.01
2022-11-15 11:10:31.9670,-0.87,-2.0,-3.73,4.32
2022-11-15 11:10:31.9700,-0.26,-2.34,-3.72,4.4
2022-11-15 11:10:31.9820,0.38,-2.39,-3.34,4.12
2022-11-15 11:10:31.9840,0.66,-2.16,-2.92,3.69
2022-11-15 11:10:31.9990,0.61,-1.66,-2.89,3.38
2022-11-15 11:10:32.0020,0.39,-1.02,-3.02,3.21
2022-11-15 11:10:32.0150,0.06,-0.48,-2.93,2.96
2022-11-15 11:10:32.0170,-0.23,-0.05,-2.68,2.69
2022-11-15 11:10:32.0350,-0.32,0.21,-2.61,2.63
2022-11-15 11:10:32.0380,-0.29,0.32,-2.47,2.5
2022-11-15 11:10:32.0490,-0.02,0.29,-2.34,2.35
2022-11-15 11:10:32.0520,0.67,0.24,-1.45,1.61
2022-11-15 11:10:32.0660,1.01,0.16,-0.39,1.09
2022-11-15 11:10:32.0690,0.9,0.05,-0.02,0.9
2022-11-15 11:10:32.0810,0.88,-0.04,-0.03,0.88
2022-11-15 11:10:32.0840,1.0,-0.12,0.11,1.01
2022-11-15 11:10:32.0980,0.91,-0.15,0.61,1.1
2022-11-15 11:10:32.1000,0.83,-0.17,0.95,1.27
2022-11-15 11:10:32.1170,0.91,-0.25,0.91,1.31
2022-11-15 11:10:32.1180,0.79,-0.32,1.08,1.37
2022-11-15 11:10:32.1320,0.53,-0.2,1.28,1.39
2022-11-15 11:10:32.1350,0.37,0.01,1.6,1.64
2022-11-15 11:10:32.1490,0.45,0.12,2.17,2.21
2022-11-15 11:10:32.1520,0.37,0.18,2.46,2.49
2022-11-15 11:10:32.1660,0.19,0.19,2.3,2.31
2022-11-15 11:10:32.1680,0.13,0.26,2.23,2.24
2022-11-15 11:10:32.1820,0.02,0.38,2.41,2.43
2022-11-15 11:10:32.1840,-0.12,0.4,2.85,2.88
2022-11-15 11:10:32.2010,-0.27,0.25,3.46,3.47
2022-11-15 11:10:32.2030,-0.33,-0.08,4.04,4.05
2022-11-15 11:10:32.2160,-0.11,-0.49,4.28,4.3
2022-11-15 11:10:32.2180,0.45,-0.83,4.24,4.34
2022-11-15 11:10:32.2320,0.96,-1.13,4.17,4.42
2022-11-15 11:10:32.2340,1.4,-1.33,3.93,4.37
2022-11-15 11:10:32.2490,1.91,-1.37,3.47,4.19
2022-11-15 11:10:32.2510,2.31,-1.32,2.94,3.96
2022-11-15 11:10:32.2650,2.27,-1.3,2.7,3.75
2022-11-15 11:10:32.2670,1.83,-1.39,2.32,3.26
2022-11-15 11:10:32.2840,1.7,-1.44,1.65,2.77
2022-11-15 11:10:32.2860,1.79,-1.43,0.85,2.44
2022-11-15 11:10:32.3000,1.76,-1.28,-0.08,2.17
2022-11-15 11:10:32.3010,1.87,-0.91,-0.83,2.23
2022-11-15 11:10:32.3170,1.95,-0.38,-1.46,2.46
2022-11-15 11:10:32.3200,1.7,0.19,-1.99,2.62
2022-11-15 11:10:32.3330,1.23,0.71,-2.28,2.68
2022-11-15 11:10:32.3360,0.97,1.15,-2.59,2.99
2022-11-15 11:10:32.3480,0.85,1.58,-2.95,3.45
2022-11-15 11:10:32.3500,0.6,1.97,-3.29,3.88
2022-11-15 11:10:32.3680,0.21,2.14,-3.59,4.18
2022-11-15 11:10:32.3690,-0.21,2.05,-3.62,4.16
2022-11-15 11:10:32.3830,-0.66,1.82,-3.42,3.92
2022-11-15 11:10:32.3860,-0.96,1.5,-3.33,3.77
2022-11-15 11:10:32.4000,-0.96,1.18,-3.19,3.53
2022-11-15 11:10:32.4020,-0.96,0.95,-2.57,2.9
2022-11-15 11:10:32.4150,-0.97,0.74,-1.94,2.29
2022-11-15 11:10:32.4180,-0.85,0.55,-1.5,1.8
2022-11-15 11:10:32.4310,-0.82,0.46,-0.99,1.36
2022-11-15 11:10:32.4330,-0.88,0.47,-0.66,1.19
2022-11-15 11:10:32.4500,-0.79,0.58,-0.74,1.22
2022-11-15 11:10:32.4530,-0.85,0.65,-0.91,1.4
2022-11-15 11:10:32.4660,-1.03,0.73,-1.08,1.66
2022-11-15 11:10:32.4690,-1.07,0.8,-1.21,1.8
2022-11-15 11:10:32.4820,-1.08,0.75,-1.25,1.81
2022-11-15 11:10:32.4840,-1.15,0.56,-1.07,1.66
2022-11-15 11:10:32.5000,-1.34,0.43,-0.73,1.58
2022-11-15 11:10:32.5030,-1.57,0.52,-0.52,1.73
2022-11-15 11:10:32.5140,-1.71,0.79,-0.29,1.9
2022-11-15 11:10:32.5160,-1.82,1.08,0.25,2.13
2022-11-15 11:10:32.5350,-1.98,1.29,1.05,2.58
2022-11-15 11:10:32.5380,-2.09,1.41,1.58,2.97
2022-11-15 11:10:32.5490,-2.03,1.45,1.58,2.95
2022-11-15 11:10:32.5510,-1.93,1.26,1.7,2.86
2022-11-15 11:10:32.5660,-1.96,0.85,2.31,3.14
2022-11-15 11:10:32.5700,-2.19,0.35,2.68,3.47
2022-11-15 11:10:32.5820,-2.23,-0.07,2.69,3.49
2022-11-15 11:10:32.5850,-1.8,-0.57,2.79,3.36
2022-11-15 11:10:32.5980,-1.22,-1.21,3.05,3.5
2022-11-15 11:10:32.6000,-0.45,-1.75,3.38,3.83
2022-11-15 11:10:32.6190,0.27,-2.12,3.8,4.35
2022-11-15 11:10:32.6210,0.83,-2.41,4.13,4.85
2022-11-15 11:10:32.6340,1.42,-2.53,4.18,5.08
2022-11-15 11:10:32.6360,1.9,-2.58,3.96,5.09
2022-11-15 11:10:32.6500,2.21,-2.73,3.5,4.95
2022-11-15 11:10:32.6520,2.35,-2.8,2.67,4.52
2022-11-15 11:10:32.6650,2.32,-2.66,1.78,3.95
2022-11-15 11:10:32.6680,2.03,-2.38,1.34,3.4
2022-11-15 11:10:32.6810,1.57,-2.09,1.01,2.8
2022-11-15 11:10:32.6830,1.15,-1.9,0.48,2.27
2022-11-15 11:10:32.7010,0.92,-1.8,-0.13,2.02
2022-11-15 11:10:32.7030,0.8,-1.7,-0.6,1.97
2022-11-15 11:10:32.7170,0.63,-1.52,-0.8,1.82
2022-11-15 11:10:32.7200,0.39,-1.36,-0.89,1.67
2022-11-15 11:10:32.7330,0.35,-1.27,-0.89,1.58
2022-11-15 11:10:32.7350,0.49,-1.26,-0.84,1.59
2022-11-15 11:10:32.7490,0.5,-1.31,-0.91,1.67
2022-11-15 11:10:32.7510,0.46,-1.35,-1.06,1.77
2022-11-15 11:10:32.7650,0.44,-1.38,-1.01,1.76
2022-11-15 11:10:32.7670,0.37,-1.47,-0.93,1.77
2022-11-15 11:10:32.7840,0.29,-1.62,-0.91,1.88
2022-11-15 11:10:32.7860,0.26,-1.71,-1.0,1.99
2022-11-15 11:10:32.8010,0.38,-1.74,-1.16,2.12
2022-11-15 11:10:32.8030,0.65,-1.66,-1.34,2.23
2022-11-15 11:10:32.8160,0.79,-1.47,-1.45,2.21
2022-11-15 11:10:32.8190,0.65,-1.22,-1.35,1.93
2022-11-15 11:10:32.8320,0.28,-1.01,-1.03,1.46
2022-11-15 11:10:32.8340,-0.04,-0.87,-0.96,1.29
2022-11-15 11:10:32.8500,-0.13,-0.77,-0.99,1.26
2022-11-15 11:10:32.8520,-0.18,-0.72,-0.86,1.13
2022-11-15 11:10:32.8680,-0.12,-0.65,-0.8,1.03
2022-11-15 11:10:32.8690,0.02,-0.54,-0.77,0.94
2022-11-15 11:10:32.8840,0.17,-0.43,-0.67,0.81
2022-11-15 11:10:32.8870,0.25,-0.34,-0.56,0.7
2022-11-15 11:10:32.9000,0.17,-0.32,-0.37,0.51
2022-11-15 11:10:32.9030,0.02,-0.34,-0.35,0.48
2022-11-15 11:10:32.9150,-0.17,-0.4,-0.39,0.58
2022-11-15 11:10:32.9180,-0.32,-0.49,-0.36,0.68
2022-11-15 11:10:32.9310,-0.28,-0.58,-0.25,0.69
2022-11-15 11:10:32.9330,-0.12,-0.74,0.1,0.75
2022-11-15 11:10:32.9510,-0.07,-0.9,0.64,1.1
2022-11-15 11:10:32.9530,-0.03,-0.96,1.15,1.49
2022-11-15 11:10:32.9670,0.15,-0.88,1.63,1.85
2022-11-15 11:10:32.9710,0.37,-0.77,1.76,1.95
2022-11-15 11:10:32.9820,0.65,-0.58,1.48,1.71
2022-11-15 11:10:32.9850,0.73,-0.35,1.37,1.59
2022-11-15 11:10:32.9980,0.33,-0.19,1.37,1.42
2022-11-15 11:10:33.0010,-0.09,-0.08,1.28,1.28
2022-11-15 11:10:33.0140,-0.2,0.12,1.01,1.03
2022-11-15 11:10:33.0160,-0.13,0.35,0.97,1.03
2022-11-15 11:10:33.0340,0.2,0.62,1.28,1.43
2022-11-15 11:10:33.0360,0.56,0.77,1.77,2.0
2022-11-15 11:10:33.0500,0.72,0.54,2.4,2.56
2022-11-15 11:10:33.0530,0.96,-0.01,2.91,3.06
2022-11-15 11:10:33.0650,1.48,-0.68,3.09,3.49
2022-11-15 11:10:33.0680,2.11,-1.25,2.94,3.82
2022-11-15 11:10:33.0820,2.58,-1.63,2.75,4.1
2022-11-15 11:10:33.0850,2.78,-1.91,2.35,4.11
2022-11-15 11:10:33.0980,2.72,-2.09,1.79,3.86
2022-11-15 11:10:33.1000,2.45,-2.15,1.16,3.45
2022-11-15 11:10:33.1180,2.17,-2.12,0.49,3.07
2022-11-15 11:10:33.1190,2.08,-1.97,-0.2,2.87
2022-11-15 11:10:33.1330,1.86,-1.81,-0.92,2.75
2022-11-15 11:10:33.1360,1.5,-1.62,-1.51,2.67
2022-11-15 11:10:33.1490,1.03,-1.36,-1.91,2.56
2022-11-15 11:10:33.1510,0.54,-1.09,-2.22,2.53
2022-11-15 11:10:33.1650,0.12,-0.89,-2.26,2.43
2022-11-15 11:10:33.1670,-0.26,-0.77,-1.94,2.1
2022-11-15 11:10:33.1820,-0.41,-0.7,-1.57,1.76
2022-11-15 11:10:33.1840,-0.26,-0.7,-1.44,1.62
2022-11-15 11:10:33.2020,-0.17,-0.75,-1.32,1.52
2022-11-15 11:10:33.2040,-0.15,-0.72,-1.14,1.35
2022-11-15 11:10:33.2170,-0.15,-0.63,-0.88,1.09
2022-11-15 11:10:33.2190,-0.15,-0.69,-0.73,1.01
2022-11-15 11:10:33.2320,-0.03,-0.88,-0.68,1.11
2022-11-15 11:10:33.2350,0.11,-1.05,-0.76,1.3
2022-11-15 11:10:33.2500,0.15,-1.1,-0.83,1.38
2022-11-15 11:10:33.2530,0.08,-1.1,-0.85,1.39
2022-11-15 11:10:33.2660,0.03,-1.08,-0.85,1.37
2022-11-15 11:10:33.2670,0.06,-1.09,-0.84,1.37
2022-11-15 11:10:33.2840,0.17,-1.05,-0.93,1.41
2022-11-15 11:10:33.2860,0.31,-0.85,-0.98,1.33
2022-11-15 11:10:33.3010,0.35,-0.62,-0.9,1.14
2022-11-15 11:10:33.3030,0.41,-0.58,-0.79,1.06
2022-11-15 11:10:33.3150,0.55,-0.63,-0.67,1.07
2022-11-15 11:10:33.3180,0.68,-0.67,-0.56,1.1
2022-11-15 11:10:33.3330,0.75,-0.69,-0.43,1.1
2022-11-15 11:10:33.3350,0.8,-0.71,-0.23,1.09
2022-11-15 11:10:33.3480,0.74,-0.82,0.02,1.1
2022-11-15 11:10:33.3500,0.72,-0.96,0.32,1.24
2022-11-15 11:10:33.3680,0.83,-1.03,0.65,1.47
2022-11-15 11:10:33.3690,0.95,-0.99,0.92,1.65
2022-11-15 11:10:33.3840,1.06,-0.88,1.17,1.8
2022-11-15 11:10:33.3870,1.18,-0.84,1.37,1.99
2022-11-15 11:10:33.4000,1.15,-0.94,1.65,2.22
2022-11-15 11:10:33.4020,1.11,-1.01,1.8,2.34
2022-11-15 11:10:33.4150,1.1,-1.02,1.64,2.22
2022-11-15 11:10:33.4180,1.09,-1.01,1.3,1.97
2022-11-15 11:10:33.4310,1.02,-0.96,0.86,1.64
2022-11-15 11:10:33.4330,0.83,-0.81,0.38,1.22
2022-11-15 11:10:33.4510,0.58,-0.56,-0.06,0.8
2022-11-15 11:10:33.4530,0.35,-0.29,-0.42,0.61
2022-11-15 11:10:33.4650,0.36,0.01,-0.64,0.73
2022-11-15 11:10:33.4680,0.5,0.4,-0.72,0.96
2022-11-15 11:10:33.4830,0.48,0.75,-0.76,1.17
2022-11-15 11:10:33.4850,0.32,0.99,-0.69,1.24
2022-11-15 11:10:33.4990,0.21,1.11,-0.56,1.26
2022-11-15 11:10:33.5020,0.15,1.17,-0.6,1.32
2022-11-15 11:10:33.5150,0.08,1.11,-0.53,1.23
2022-11-15 11:10:33.5170,0.09,0.91,-0.35,0.97
2022-11-15 11:10:33.5340,0.25,0.66,-0.39,0.8
2022-11-15 11:10:33.5360,0.41,0.41,-0.69,0.9
2022-11-15 11:10:33.5490,0.48,0.09,-0.88,1.0
2022-11-15 11:10:33.5520,0.41,-0.16,-0.8,0.91
2022-11-15 11:10:33.5660,0.24,-0.35,-0.57,0.71
2022-11-15 11:10:33.5680,0.24,-0.6,-0.35,0.73
2022-11-15 11:10:33.5830,0.37,-1.02,-1.05,1.5
2022-11-15 11:10:33.5860,0.34,-1.51,-0.88,1.78
2022-11-15 11:10:33.5990,0.29,-1.66,0.11,1.68
2022-11-15 11:10:33.6010,0.39,-1.5,0.4,1.6
2022-11-15 11:10:33.6040,0.42,-1.37,0.36,1.47
2022-11-15 11:10:33.6060,0.46,-1.25,0.61,1.46
2022-11-15 11:10:33.6090,0.24,-1.05,1.08,1.52
2022-11-15 11:10:33.6110,0.03,-0.75,1.09,1.32
2022-11-15 11:10:33.6130,0.33,-0.56,1.33,1.48
2022-11-15 11:10:33.6140,0.88,-0.49,0.91,1.35
2022-11-15 11:10:33.6330,0.79,-0.56,-0.52,1.09
2022-11-15 11:10:33.6350,0.29,-0.65,-0.62,0.94
2022-11-15 11:10:33.6490,-0.05,-0.52,-0.46,0.69
2022-11-15 11:10:33.6500,0.19,-0.23,-1.15,1.18
2022-11-15 11:10:33.6660,0.62,0.24,-1.41,1.55
2022-11-15 11:10:33.6680,0.06,0.91,-0.99,1.34
2022-11-15 11:10:33.6830,-0.37,0.94,-0.55,1.15
2022-11-15 11:10:33.6850,-0.89,0.17,-0.27,0.94
2022-11-15 11:10:33.6990,-0.87,0.02,-0.69,1.11
2022-11-15 11:10:33.7010,-0.22,0.04,-0.72,0.75
2022-11-15 11:10:33.7160,0.11,-0.5,-0.13,0.52
2022-11-15 11:10:33.7180,0.11,-1.23,-0.32,1.27
2022-11-15 11:10:33.7310,0.24,-1.66,-0.41,1.72
2022-11-15 11:10:33.7330,0.65,-2.0,-0.02,2.1
2022-11-15 11:10:33.7510,1.6,-3.19,2.83,4.55
2022-11-15 11:10:33.7530,1.01,-3.52,0.01,3.66
2022-11-15 11:10:33.7670,-0.73,-4.59,-1.52,4.88
2022-11-15 11:10:33.7700,-0.51,-3.64,-2.43,4.4
2022-11-15 11:10:33.7830,0.95,-2.23,-5.65,6.14
2022-11-15 11:10:33.7850,0.95,-1.05,-6.95,7.09
2022-11-15 11:10:33.8000,0.39,0.1,-6.98,6.99
2022-11-15 11:10:33.8020,-1.35,2.23,-1.8,3.16
2022-11-15 11:10:33.8140,-4.15,5.52,10.22,12.33
2022-11-15 11:10:33.8170,-3.13,2.31,1.05,4.02
2022-11-15 11:10:33.8340,-1.77,-0.72,-5.22,5.55
2022-11-15 11:10:33.8360,-2.26,-0.82,-2.97,3.82
2022-11-15 11:10:33.8500,-2.82,-0.24,-0.38,2.85
2022-11-15 11:10:33.8520,-2.1,0.36,-0.92,2.32
2022-11-15 11:10:33.8650,-1.22,0.43,-1.72,2.15
2022-11-15 11:10:33.8670,-1.07,0.07,-0.41,1.14
2022-11-15 11:10:33.8830,-1.25,-0.33,0.79,1.51
2022-11-15 11:10:33.8860,-1.15,-0.57,0.61,1.42
2022-11-15 11:10:33.8980,-0.05,-0.92,0.28,0.96
2022-11-15 11:10:33.9000,2.8,-0.52,3.0,4.13
2022-11-15 11:10:33.9170,3.58,-0.03,0.38,3.6
2022-11-15 11:10:33.9190,1.83,0.07,0.33,1.86
2022-11-15 11:10:33.9340,0.26,0.27,0.39,0.54
2022-11-15 11:10:33.9360,-0.38,0.22,-0.61,0.75
2022-11-15 11:10:33.9490,0.22,0.06,-1.46,1.47
2022-11-15 11:10:33.9510,1.63,0.08,-1.42,2.16
2022-11-15 11:10:33.9650,2.11,-0.17,-1.11,2.39
2022-11-15 11:10:33.9670,0.44,-0.76,-0.35,0.94
2022-11-15 11:10:33.9810,-0.82,-1.07,-0.03,1.34
2022-11-15 11:10:33.9830,-0.44,-1.05,-0.88,1.43
2022-11-15 11:10:34.0010,1.02,-0.91,-1.39,1.94
2022-11-15 11:10:34.0040,1.76,-0.34,-1.59,2.39
2022-11-15 11:10:34.0160,2.03,0.24,-1.92,2.8
2022-11-15 11:10:34.0180,3.15,0.14,-1.85,3.65
2022-11-15 11:10:34.0330,2.52,-0.13,-1.94,3.18
2022-11-15 11:10:34.0360,1.05,-0.31,-3.02,3.21
2022-11-15 11:10:34.0490,0.38,-0.13,-4.38,4.39
2022-11-15 11:10:34.0510,0.52,0.41,-4.93,4.97
2022-11-15 11:10:34.0640,1.43,0.91,-4.22,4.54
2022-11-15 11:10:34.0660,1.82,0.86,-2.54,3.24
2022-11-15 11:10:34.0850,1.25,-0.21,-1.13,1.69
2022-11-15 11:10:34.0870,1.82,-1.19,-0.27,2.19
2022-11-15 11:10:34.1010,1.08,-2.25,0.82,2.62
2022-11-15 11:10:34.1030,3.37,-2.86,0.22,4.42
2022-11-15 11:10:34.1150,4.64,-3.39,-0.15,5.74
2022-11-15 11:10:34.1170,2.36,-3.52,-0.58,4.27
2022-11-15 11:10:34.1330,0.46,-2.6,-1.64,3.1
2022-11-15 11:10:34.1360,0.07,-1.76,-2.11,2.74
2022-11-15 11:10:34.1480,0.44,-1.57,-2.22,2.75
2022-11-15 11:10:34.1500,-0.29,-1.73,-1.86,2.55
2022-11-15 11:10:34.1670,-0.4,-2.0,-0.82,2.19
2022-11-15 11:10:34.1690,2.88,-2.09,-0.33,3.57
2022-11-15 11:10:34.1840,2.57,-2.67,-2.08,4.24
2022-11-15 11:10:34.1870,1.44,-4.77,-0.5,5.0
2022-11-15 11:10:34.1980,3.01,-7.79,4.08,9.29
2022-11-15 11:10:34.2010,2.5,-8.33,4.93,9.99
2022-11-15 11:10:34.2160,0.86,-5.19,2.81,5.96
2022-11-15 11:10:34.2180,-0.36,-1.38,2.18,2.6
2022-11-15 11:10:34.2310,-0.89,1.62,2.82,3.37
2022-11-15 11:10:34.2330,-0.08,2.51,0.45,2.55
2022-11-15 11:10:34.2510,1.3,2.01,0.98,2.58
2022-11-15 11:10:34.2530,2.47,-0.39,2.96,3.87
2022-11-15 11:10:34.2660,0.77,-3.12,2.24,3.91
2022-11-15 11:10:34.2680,1.66,-4.18,3.35,5.6
2022-11-15 11:10:34.2830,4.69,-3.73,7.85,9.87
2022-11-15 11:10:34.2860,5.3,-2.09,8.3,10.06
2022-11-15 11:10:34.2980,3.28,-1.58,6.97,7.86
2022-11-15 11:10:34.3010,1.22,-0.28,4.6,4.76
2022-11-15 11:10:34.3140,0.05,0.79,3.59,3.67
2022-11-15 11:10:34.3160,-0.63,0.97,2.28,2.55
2022-11-15 11:10:34.3340,-1.39,1.16,1.09,2.11
2022-11-15 11:10:34.3360,-1.05,1.86,-0.26,2.15
2022-11-15 11:10:34.3500,-1.56,0.24,-0.43,1.63
2022-11-15 11:10:34.3520,-1.64,-1.27,-0.47,2.12
2022-11-15 11:10:34.3660,-2.0,-1.4,-0.44,2.48
2022-11-15 11:10:34.3680,-1.8,-0.64,-0.56,1.99
2022-11-15 11:10:34.3830,-1.44,-0.13,-0.41,1.5
2022-11-15 11:10:34.3860,-1.51,-0.42,-0.74,1.73
2022-11-15 11:10:34.3980,-1.28,-0.53,-1.27,1.87
2022-11-15 11:10:34.4000,-1.66,-0.98,-1.59,2.49
2022-11-15 11:10:34.4170,-1.26,-1.25,-1.61,2.39
2022-11-15 11:10:34.4190,-1.63,-1.13,-1.06,2.24
2022-11-15 11:10:34.4320,-2.5,-1.03,-0.83,2.82
2022-11-15 11:10:34.4350,-2.57,-1.82,-0.29,3.16
2022-11-15 11:10:34.4480,-3.44,-2.19,0.14,4.08
2022-11-15 11:10:34.4510,-3.72,-2.15,0.57,4.33
2022-11-15 11:10:34.4660,-3.0,-1.27,1.11,3.44
2022-11-15 11:10:34.4690,-1.04,0.15,2.16,2.4
2022-11-15 11:10:34.4810,0.74,1.44,3.95,4.26
2022-11-15 11:10:34.4830,0.79,2.27,4.29,4.91
2022-11-15 11:10:34.5020,1.18,3.03,4.79,5.78
2022-11-15 11:10:34.5040,0.48,2.78,3.7,4.65
2022-11-15 11:10:34.5170,-1.56,1.35,2.5,3.24
2022-11-15 11:10:34.5200,-3.43,0.47,2.11,4.05
2022-11-15 11:10:34.5330,-3.73,0.77,2.05,4.32
2022-11-15 11:10:34.5350,-1.83,0.73,2.95,3.54
2022-11-15 11:10:34.5490,-0.99,0.75,2.96,3.21
2022-11-15 11:10:34.5510,0.59,1.48,2.9,3.3
2022-11-15 11:10:34.5640,0.55,2.27,2.91,3.73
2022-11-15 11:10:34.5660,-0.15,3.26,1.38,3.54
2022-11-15 11:10:34.5840,0.42,3.74,1.45,4.03
2022-11-15 11:10:34.5860,0.81,3.78,2.21,4.45
2022-11-15 11:10:34.6010,0.73,3.42,2.79,4.47
2022-11-15 11:10:34.6030,-0.59,2.71,2.48,3.72
2022-11-15 11:10:34.6160,-0.81,2.97,2.26,3.81
2022-11-15 11:10:34.6190,0.61,2.93,2.6,3.96
2022-11-15 11:10:34.6330,2.59,3.12,2.65,4.84
2022-11-15 11:10:34.6360,2.84,3.39,2.37,5.01
2022-11-15 11:10:34.6480,1.62,3.12,1.02,3.66
2022-11-15 11:10:34.6500,0.94,2.77,0.3,2.94
2022-11-15 11:10:34.6670,0.52,2.21,-0.19,2.27
2022-11-15 11:10:34.6690,0.39,1.49,0.06,1.54
2022-11-15 11:10:34.6840,0.22,1.29,0.46,1.38
2022-11-15 11:10:34.6860,-0.09,1.75,0.39,1.79
2022-11-15 11:10:34.6980,0.5,1.83,0.63,1.99
2022-11-15 11:10:34.7010,0.92,1.35,1.43,2.17
2022-11-15 11:10:34.7160,0.55,0.89,0.49,1.15
2022-11-15 11:10:34.7190,0.51,0.41,0.93,1.13
2022-11-15 11:10:34.7310,0.81,-0.2,0.96,1.27
2022-11-15 11:10:34.7330,0.94,-0.24,0.65,1.16
2022-11-15 11:10:34.7510,1.04,-0.21,0.48,1.16
2022-11-15 11:10:34.7520,0.78,0.2,-0.13,0.81
2022-11-15 11:10:34.7660,0.38,0.76,-0.14,0.86
2022-11-15 11:10:34.7690,-0.01,1.02,-0.41,1.09
2022-11-15 11:10:34.7820,-0.28,0.92,0.01,0.96
2022-11-15 11:10:34.7840,-0.28,0.6,-0.08,0.66
2022-11-15 11:10:34.7980,-0.22,0.37,-0.18,0.46
2022-11-15 11:10:34.8010,-0.09,-0.1,-0.21,0.24
2022-11-15 11:10:34.8140,-0.16,-0.3,-0.49,0.59
2022-11-15 11:10:34.8160,-0.23,-0.21,-0.32,0.44
2022-11-15 11:10:34.8350,-0.62,0.13,0.07,0.63
2022-11-15 11:10:34.8380,-0.97,1.17,0.25,1.54
2022-11-15 11:10:34.8510,-1.48,1.47,0.44,2.13
2022-11-15 11:10:34.8530,-1.54,1.25,0.86,2.16
2022-11-15 11:10:34.8660,-1.59,1.19,0.91,2.18
2022-11-15 11:10:34.8690,-1.66,1.1,0.91,2.18
2022-11-15 11:10:34.8820,-1.64,0.86,0.81,2.02
2022-11-15 11:10:34.8850,-1.76,0.76,0.39,1.95
2022-11-15 11:10:34.8970,-1.6,1.23,-0.03,2.01
2022-11-15 11:10:34.8990,-1.1,1.78,-0.48,2.14
2022-11-15 11:10:34.9180,-0.44,2.14,-0.19,2.19
2022-11-15 11:10:34.9210,0.2,1.79,0.04,1.8
2022-11-15 11:10:34.9320,1.0,1.38,0.35,1.73
2022-11-15 11:10:34.9330,1.02,0.42,-0.18,1.11
2022-11-15 11:10:34.9480,0.68,-0.79,-1.29,1.65
2022-11-15 11:10:34.9510,1.06,-0.03,-1.9,2.17
2022-11-15 11:10:34.9660,0.86,0.1,-2.15,2.31
2022-11-15 11:10:34.9690,0.84,0.0,-1.83,2.01
2022-11-15 11:10:34.9810,0.32,0.06,-1.23,1.27
2022-11-15 11:10:34.9830,0.03,0.29,-0.76,0.81
2022-11-15 11:10:35.0020,-0.42,-0.11,-0.45,0.62
2022-11-15 11:10:35.0050,-0.53,-0.13,0.25,0.6
2022-11-15 11:10:35.0170,-0.57,-0.35,0.56,0.87
2022-11-15 11:10:35.0190,-0.81,-0.2,0.52,0.98
2022-11-15 11:10:35.0320,-0.33,-0.35,0.24,0.53
2022-11-15 11:10:35.0340,-0.44,-0.92,-0.73,1.25
2022-11-15 11:10:35.0480,-0.11,-0.87,-1.31,1.57
2022-11-15 11:10:35.0510,0.13,-0.8,-1.36,1.58
2022-11-15 11:10:35.0650,0.39,-0.69,-0.79,1.11
2022-11-15 11:10:35.0670,-0.11,-0.66,-0.5,0.83
2022-11-15 11:10:35.0860,-0.43,-0.5,-0.51,0.83
2022-11-15 11:10:35.0880,0.51,0.03,0.17,0.53
2022-11-15 11:10:35.0980,-0.09,0.07,0.61,0.62
2022-11-15 11:10:35.1010,-0.85,-0.51,0.85,1.3
2022-11-15 11:10:35.1160,-1.24,-0.61,0.62,1.51
2022-11-15 11:10:35.1190,-0.58,-0.49,0.39,0.85
2022-11-15 11:10:35.1320,0.47,-0.04,0.11,0.48
2022-11-15 11:10:35.1350,0.35,0.57,-0.41,0.78
2022-11-15 11:10:35.1480,-0.36,0.47,-0.79,0.98
2022-11-15 11:10:35.1500,-0.81,-0.06,-0.61,1.01
2022-11-15 11:10:35.1670,-0.7,-0.16,-0.33,0.79
2022-11-15 11:10:35.1690,0.13,-0.2,-0.53,0.58
2022-11-15 11:10:35.1840,0.69,0.09,-0.27,0.74
2022-11-15 11:10:35.1860,0.41,0.46,-0.06,0.61
2022-11-15 11:10:35.1980,-0.09,0.76,1.2,1.42
2022-11-15 11:10:35.2010,-0.72,0.61,2.16,2.35
2022-11-15 11:10:35.2160,-1.35,0.28,2.21,2.6
2022-11-15 11:10:35.2190,-1.33,0.18,1.86,2.29
2022-11-15 11:10:35.2310,-1.19,-0.02,1.44,1.86
2022-11-15 11:10:35.2330,-0.71,-0.13,1.16,1.36
2022-11-15 11:10:35.2510,-0.12,0.15,0.53,0.56
2022-11-15 11:10:35.2520,0.17,0.45,-0.01,0.48
2022-11-15 11:10:35.2670,0.03,0.82,-0.64,1.04
2022-11-15 11:10:35.2700,-0.59,1.05,-1.35,1.8
2022-11-15 11:10:35.2820,-0.97,0.56,-1.44,1.82
2022-11-15 11:10:35.2840,-1.02,-0.28,-0.41,1.13
2022-11-15 11:10:35.2990,-1.24,-1.14,0.68,1.81
2022-11-15 11:10:35.3020,-0.85,-1.83,1.32,2.41
2022-11-15 11:10:35.3140,0.4,-1.14,1.71,2.09
2022-11-15 11:10:35.3160,1.76,0.48,0.75,1.97
2022-11-15 11:10:35.3350,2.45,0.71,-0.38,2.57
2022-11-15 11:10:35.3370,2.95,0.44,-0.44,3.01
2022-11-15 11:10:35.3500,3.44,0.21,-0.15,3.44
2022-11-15 11:10:35.3520,3.62,-0.41,1.84,4.08
2022-11-15 11:10:35.3660,3.18,-0.71,2.95,4.39
2022-11-15 11:10:35.3690,1.22,-1.82,1.82,2.84
2022-11-15 11:10:35.3830,-1.92,-2.87,-0.59,3.5
2022-11-15 11:10:35.3860,-2.55,-2.18,-1.72,3.77
2022-11-15 11:10:35.3980,-1.66,-0.85,-2.12,2.82
2022-11-15 11:10:35.4000,-1.12,0.18,-1.95,2.25
2022-11-15 11:10:35.4170,-0.46,0.6,-1.29,1.49
2022-11-15 11:10:35.4190,0.31,0.31,-1.01,1.1
2022-11-15 11:10:35.4340,0.27,-0.49,-0.87,1.03
2022-11-15 11:10:35.4370,-0.12,-1.05,-0.05,1.05
2022-11-15 11:10:35.4490,-0.51,-1.05,1.35,1.78
2022-11-15 11:10:35.4530,-0.59,-0.87,1.52,1.84
2022-11-15 11:10:35.4540,-0.35,-0.89,1.08,1.44
2022-11-15 11:10:35.4660,-0.16,-0.76,0.47,0.9
2022-11-15 11:10:35.4760,-0.82,-0.47,-0.27,0.98
2022-11-15 11:10:35.4810,-1.57,-0.86,-0.71,1.92
2022-11-15 11:10:35.4830,-1.95,-1.4,-0.8,2.53
2022-11-15 11:10:35.4990,-1.95,-1.31,-1.63,2.85
2022-11-15 11:10:35.5010,-1.49,-0.91,-2.11,2.73
2022-11-15 11:10:35.5160,-1.58,-0.6,-1.86,2.51
2022-11-15 11:10:35.5190,-1.11,-0.85,-1.22,1.85
2022-11-15 11:10:35.5330,-0.34,-1.03,-0.38,1.14
2022-11-15 11:10:35.5350,0.68,-1.21,1.66,2.16
2022-11-15 11:10:35.5490,1.77,-0.53,4.44,4.8
2022-11-15 11:10:35.5600,2.52,0.49,5.04,5.65
2022-11-15 11:10:35.5650,2.76,0.09,5.78,6.4
2022-11-15 11:10:35.5670,2.09,0.05,5.51,5.89
2022-11-15 11:10:35.5840,0.83,0.06,3.42,3.51
2022-11-15 11:10:35.5860,-0.28,-0.14,1.6,1.63
2022-11-15 11:10:35.5990,-1.02,0.15,0.66,1.22
2022-11-15 11:10:35.6020,-0.63,0.33,-0.52,0.88
2022-11-15 11:10:35.6150,-0.74,0.29,-1.41,1.61
2022-11-15 11:10:35.6180,-0.98,1.01,-1.51,2.06
2022-11-15 11:10:35.6320,-0.84,1.7,-1.42,2.36
2022-11-15 11:10:35.6430,-0.69,1.95,-0.83,2.22
2022-11-15 11:10:35.6480,-1.02,1.95,-0.2,2.2
2022-11-15 11:10:35.6500,-1.2,1.63,0.4,2.06
2022-11-15 11:10:35.6670,-1.02,1.24,1.57,2.24
2022-11-15 11:10:35.6700,-0.15,1.28,1.73,2.15
2022-11-15 11:10:35.6820,1.06,1.21,1.2,2.0
2022-11-15 11:10:35.6840,1.87,1.08,0.62,2.24
2022-11-15 11:10:35.6990,2.44,1.24,-0.26,2.74
2022-11-15 11:10:35.7020,2.43,1.65,-1.16,3.15
2022-11-15 11:10:35.7150,1.28,1.76,-1.63,2.71
2022-11-15 11:10:35.7270,-0.14,1.48,-1.42,2.05
2022-11-15 11:10:35.7320,-0.66,1.22,-1.1,1.77
2022-11-15 11:10:35.7330,-0.37,0.95,-0.45,1.11
2022-11-15 11:10:35.7490,-0.16,0.6,0.54,0.82
2022-11-15 11:10:35.7510,0.36,0.41,0.96,1.1
2022-11-15 11:10:35.7660,0.68,0.09,1.11,1.3
2022-11-15 11:10:35.7690,0.87,0.1,0.94,1.28
2022-11-15 11:10:35.7810,0.73,0.26,0.48,0.91
2022-11-15 11:10:35.7840,0.13,0.2,-0.13,0.27
2022-11-15 11:10:35.7990,-0.67,-0.11,-0.71,0.98
2022-11-15 11:10:35.8110,-1.09,-0.66,-0.91,1.56
2022-11-15 11:10:35.8150,-0.61,-0.58,-0.84,1.18
2022-11-15 11:10:35.8170,-0.01,-0.18,-0.6,0.62
2022-11-15 11:10:35.8330,0.3,-0.01,-0.45,0.54
2022-11-15 11:10:35.8340,0.41,0.24,-0.46,0.66
2022-11-15 11:10:35.8490,0.27,0.18,-0.55,0.63
2022-11-15 11:10:35.8520,0.4,-0.16,-0.2,0.47
2022-11-15 11:10:35.8650,0.6,-0.18,-0.28,0.68
2022-11-15 11:10:35.8680,0.23,-0.24,-0.53,0.62
2022-11-15 11:10:35.8820,-0.16,-0.12,-0.72,0.74
2022-11-15 11:10:35.8940,-0.63,-0.07,-0.76,0.98
2022-11-15 11:10:35.8980,-0.87,-0.19,-0.63,1.09
2022-11-15 11:10:35.9000,-0.56,-0.2,-0.5,0.77
2022-11-15 11:10:35.9170,-0.03,-0.34,-0.3,0.45
2022-11-15 11:10:35.9200,0.64,-0.44,-0.13,0.78
2022-11-15 11:10:35.9320,1.01,-0.5,-0.05,1.12
2022-11-15 11:10:35.9340,0.79,-0.5,0.0,0.93
2022-11-15 11:10:35.9490,0.32,-0.57,-0.04,0.65
2022-11-15 11:10:35.9510,0.38,-0.26,-0.11,0.47
2022-11-15 11:10:35.9650,0.09,0.29,-0.12,0.32
2022-11-15 11:10:35.9760,-0.42,0.36,-0.19,0.58
2022-11-15 11:10:35.9820,-0.67,0.27,-0.28,0.77
2022-11-15 11:10:35.9830,-0.65,0.13,-0.32,0.73
2022-11-15 11:10:36.0000,-0.72,-0.21,-0.19,0.77
2022-11-15 11:10:36.0010,-0.63,-0.41,-0.31,0.81
2022-11-15 11:10:36.0160,-0.41,-0.56,-0.52,0.86
2022-11-15 11:10:36.0190,-0.2,-0.67,-0.55,0.88
2022-11-15 11:10:36.0310,-0.07,-0.62,-0.44,0.76
2022-11-15 11:10:36.0340,-0.16,-0.52,-0.14,0.56
2022-11-15 11:10:36.0500,-0.45,-0.22,-0.04,0.5
2022-11-15 11:10:36.0610,-0.67,-0.15,0.02,0.68
2022-11-15 11:10:36.0650,-0.71,-0.28,0.08,0.76
2022-11-15 11:10:36.0670,-0.54,-0.2,-0.03,0.57
2022-11-15 11:10:36.0830,-0.37,-0.14,-0.16,0.42
2022-11-15 11:10:36.0850,-0.17,0.08,-0.15,0.24
2022-11-15 11:10:36.0990,-0.14,0.35,0.01,0.37
2022-11-15 11:10:36.1000,-0.39,0.26,0.31,0.56
2022-11-15 11:10:36.1170,-0.45,0.17,0.53,0.71
2022-11-15 11:10:36.1200,-0.09,0.3,0.71,0.77
2022-11-15 11:10:36.1310,0.15,0.46,0.71,0.85
2022-11-15 11:10:36.1420,-0.06,0.31,0.31,0.44
2022-11-15 11:10:36.1480,-0.23,0.18,-0.04,0.29
2022-11-15 11:10:36.1500,-0.27,0.15,-0.13,0.33
2022-11-15 11:10:36.1660,-0.03,0.1,0.06,0.12
2022-11-15 11:10:36.1680,0.44,0.37,0.45,0.73
2022-11-15 11:10:36.1810,0.67,0.65,0.84,1.25
2022-11-15 11:10:36.1840,0.71,0.79,1.06,1.5
2022-11-15 11:10:36.2000,0.63,0.77,1.07,1.46
2022-11-15 11:10:36.2020,0.31,0.55,0.81,1.02
2022-11-15 11:10:36.2150,0.01,0.37,0.37,0.52
2022-11-15 11:10:36.2270,0.09,0.15,-0.06,0.18
2022-11-15 11:10:36.2320,0.59,-0.08,-0.24,0.64
2022-11-15 11:10:36.2330,0.97,-0.14,-0.22,1.0
2022-11-15 11:10:36.2510,0.79,-0.04,-0.09,0.79
2022-11-15 11:10:36.2530,0.37,0.16,-0.03,0.4
2022-11-15 11:10:36.2650,-0.01,0.32,0.0,0.32
2022-11-15 11:10:36.2670,-0.15,0.45,0.0,0.47
2022-11-15 11:10:36.2820,-0.07,0.47,-0.01,0.47
2022-11-15 11:10:36.2840,-0.08,0.34,0.05,0.35
2022-11-15 11:10:36.2990,-0.05,0.29,-0.07,0.3
2022-11-15 11:10:36.3110,0.11,0.38,-0.24,0.46
2022-11-15 11:10:36.3150,0.17,0.59,-0.46,0.76
2022-11-15 11:10:36.3160,-0.01,0.87,-0.56,1.03
2022-11-15 11:10:36.3340,-0.34,0.85,-0.62,1.1
2022-11-15 11:10:36.3360,-0.76,0.72,-0.39,1.11
2022-11-15 11:10:36.3500,-0.92,0.65,-0.28,1.16
2022-11-15 11:10:36.3520,-0.83,0.53,-0.19,1.0
2022-11-15 11:10:36.3660,-0.72,0.44,-0.03,0.84
2022-11-15 11:10:36.3690,-0.65,0.35,0.06,0.74
2022-11-15 11:10:36.3820,-0.63,0.34,0.14,0.72
2022-11-15 11:10:36.3920,-0.28,0.47,0.14,0.56
2022-11-15 11:10:36.3980,0.01,0.58,0.13,0.59
2022-11-15 11:10:36.4000,0.03,0.68,0.27,0.73
2022-11-15 11:10:36.4170,-0.1,0.73,0.25,0.77
2022-11-15 11:10:36.4200,-0.41,0.6,0.11,0.73
2022-11-15 11:10:36.4210,-0.51,0.35,0.06,0.62
2022-11-15 11:10:36.4230,-0.17,0.19,-0.06,0.26
2022-11-15 11:10:36.4310,0.18,0.19,-0.17,0.31
2022-11-15 11:10:36.4330,0.47,0.3,-0.11,0.56
2022-11-15 11:10:36.4500,0.49,0.4,0.11,0.64
2022-11-15 11:10:36.4600,0.26,0.55,0.35,0.7
2022-11-15 11:10:36.4640,0.12,0.88,0.34,0.95
2022-11-15 11:10:36.4660,0.04,0.97,0.1,0.97
2022-11-15 11:10:36.4840,-0.19,0.73,-0.2,0.78
2022-11-15 11:10:36.4860,-0.42,0.35,-0.34,0.64
2022-11-15 11:10:36.5000,-0.31,0.13,-0.38,0.5
2022-11-15 11:10:36.5020,-0.08,0.3,-0.35,0.46
2022-11-15 11:10:36.5150,0.28,0.11,-0.07,0.3
2022-11-15 11:10:36.5180,0.68,0.12,-0.05,0.69
2022-11-15 11:10:36.5320,0.86,0.17,0.01,0.87
2022-11-15 11:10:36.5430,1.01,0.05,-0.16,1.02
2022-11-15 11:10:36.5480,0.94,0.1,-0.29,0.98
2022-11-15 11:10:36.5500,0.36,0.24,-0.48,0.64
2022-11-15 11:10:36.5660,-0.54,0.12,-0.25,0.6
2022-11-15 11:10:36.5680,-1.17,0.11,0.17,1.18
2022-11-15 11:10:36.5820,-1.23,0.28,0.4,1.32
2022-11-15 11:10:36.5840,-0.81,0.4,0.5,1.03
2022-11-15 11:10:36.6000,-0.24,0.31,0.38,0.54
2022-11-15 11:10:36.6020,0.19,-0.2,0.21,0.34
2022-11-15 11:10:36.6150,0.19,-0.73,-0.15,0.76
2022-11-15 11:10:36.6250,0.39,-1.26,-0.76,1.52
2022-11-15 11:10:36.6320,0.64,-1.39,-1.43,2.09
2022-11-15 11:10:36.6330,0.91,-0.89,-1.7,2.12
2022-11-15 11:10:36.6490,0.97,-0.17,-1.43,1.73
2022-11-15 11:10:36.6510,-0.14,0.05,-0.76,0.77
2022-11-15 11:10:36.6660,-1.24,0.04,-0.19,1.25
2022-11-15 11:10:36.6690,-1.68,0.04,0.19,1.69
2022-11-15 11:10:36.6820,-1.52,-0.01,0.32,1.55
2022-11-15 11:10:36.6850,-0.71,-0.33,0.15,0.79
2022-11-15 11:10:36.6980,0.13,-0.57,0.04,0.58
2022-11-15 11:10:36.7090,0.4,-0.77,0.01,0.86
2022-11-15 11:10:36.7150,0.29,-1.04,0.01,1.07
2022-11-15 11:10:36.7160,0.1,-1.25,0.17,1.26
2022-11-15 11:10:36.7330,0.32,-1.31,0.44,1.41
2022-11-15 11:10:36.7340,0.76,-1.12,0.68,1.51
2022-11-15 11:10:36.7500,0.77,-0.67,0.87,1.34
2022-11-15 11:10:36.7530,0.34,-0.63,0.78,1.05
2022-11-15 11:10:36.7650,-0.36,-0.74,0.41,0.91
2022-11-15 11:10:36.7670,-0.65,-0.61,0.18,0.9
2022-11-15 11:10:36.7820,-0.38,-0.35,0.06,0.52
2022-11-15 11:10:36.7940,-0.19,-0.16,0.12,0.27
2022-11-15 11:10:36.7980,-0.03,-0.01,0.32,0.32
2022-11-15 11:10:36.8000,0.2,0.12,0.47,0.52
2022-11-15 11:10:36.8160,0.31,0.24,0.5,0.63
2022-11-15 11:10:36.8180,0.22,0.31,0.55,0.66
2022-11-15 11:10:36.8330,0.04,0.27,0.55,0.61
2022-11-15 11:10:36.8350,-0.21,0.19,0.42,0.5
2022-11-15 11:10:36.8490,-0.22,0.06,0.2,0.3
2022-11-15 11:10:36.8510,-0.03,-0.03,-0.02,0.04
2022-11-15 11:10:36.8650,0.18,0.04,-0.15,0.23
2022-11-15 11:10:36.8760,0.28,0.28,-0.18,0.43
2022-11-15 11:10:36.8820,0.09,0.47,-0.1,0.48
2022-11-15 11:10:36.8830,-0.4,0.55,0.04,0.68
2022-11-15 11:10:36.8990,-0.71,0.54,0.06,0.89
2022-11-15 11:10:36.9010,-0.48,0.63,-0.01,0.79
2022-11-15 11:10:36.9160,-0.15,0.73,-0.06,0.74
2022-11-15 11:10:36.9190,0.02,0.77,0.01,0.77
2022-11-15 11:10:36.9320,0.02,0.72,0.17,0.74
2022-11-15 11:10:36.9350,-0.1,0.7,0.31,0.77
2022-11-15 11:10:36.9490,-0.08,0.78,0.44,0.89
2022-11-15 11:10:36.9600,0.08,0.83,0.5,0.97
2022-11-15 11:10:36.9650,0.21,0.7,0.42,0.84
2022-11-15 11:10:36.9670,0.41,0.47,0.34,0.71
2022-11-15 11:10:36.9840,0.57,0.32,0.2,0.68
2022-11-15 11:10:36.9870,0.55,0.21,0.07,0.59
2022-11-15 11:10:36.9990,0.46,0.19,0.01,0.49
2022-11-15 11:10:37.0010,0.31,0.28,-0.02,0.41
2022-11-15 11:10:37.0160,0.02,0.33,-0.01,0.33
2022-11-15 11:10:37.0190,-0.21,0.34,0.04,0.4
2022-11-15 11:10:37.0330,-0.23,0.34,0.03,0.41
2022-11-15 11:10:37.0440,-0.18,0.27,-0.08,0.33
2022-11-15 11:10:37.0480,-0.28,0.02,-0.21,0.35
2022-11-15 11:10:37.0500,-0.29,-0.3,-0.32,0.52
2022-11-15 11:10:37.0660,-0.19,-0.5,-0.32,0.62
2022-11-15 11:10:37.0680,-0.07,-0.47,-0.31,0.56
2022-11-15 11:10:37.0820,-0.11,-0.41,-0.3,0.51
2022-11-15 11:10:37.0840,-0.34,-0.45,-0.19,0.59
2022-11-15 11:10:37.0990,-0.34,-0.47,-0.13,0.59
2022-11-15 11:10:37.1020,-0.11,-0.48,-0.13,0.5
2022-11-15 11:10:37.1150,0.15,-0.28,-0.05,0.32
2022-11-15 11:10:37.1260,0.07,0.14,0.21,0.26
2022-11-15 11:10:37.1310,-0.63,-0.04,-0.19,0.65
2022-11-15 11:10:37.1330,-1.33,-0.16,-0.34,1.38
2022-11-15 11:10:37.1490,-0.66,0.49,-0.04,0.82
2022-11-15 11:10:37.1510,-0.2,0.78,0.04,0.8
2022-11-15 11:10:37.1650,-0.09,0.52,0.26,0.58
2022-11-15 11:10:37.1680,-0.04,0.65,0.91,1.11
2022-11-15 11:10:37.1830,0.08,1.06,1.16,1.57
2022-11-15 11:10:37.1850,0.28,0.96,0.84,1.3
2022-11-15 11:10:37.1980,0.15,0.75,0.22,0.79
2022-11-15 11:10:37.2090,-0.03,0.51,-0.41,0.65
2022-11-15 11:10:37.2150,-0.01,0.35,-0.86,0.92
2022-11-15 11:10:37.2170,0.18,0.26,-1.19,1.23
2022-11-15 11:10:37.2330,0.27,0.07,-1.37,1.39
2022-11-15 11:10:37.2340,0.39,-0.06,-1.25,1.31
2022-11-15 11:10:37.2500,0.27,0.3,-0.89,0.97
2022-11-15 11:10:37.2530,-0.02,0.83,-0.47,0.95
2022-11-15 11:10:37.2650,-0.45,1.04,-0.18,1.14
2022-11-15 11:10:37.2670,-0.56,0.97,-0.21,1.13
2022-11-15 11:10:37.2830,-0.18,1.0,-0.45,1.11
2022-11-15 11:10:37.2950,-0.03,1.03,-0.69,1.24
2022-11-15 11:10:37.2980,-0.47,0.65,-0.92,1.22
2022-11-15 11:10:37.3000,-0.78,-0.07,-1.06,1.31
2022-11-15 11:10:37.3160,-0.5,-0.56,-1.19,1.4
2022-11-15 11:10:37.3180,-0.16,-0.63,-1.2,1.36
2022-11-15 11:10:37.3330,-0.17,-0.02,-1.49,1.49
2022-11-15 11:10:37.3360,-0.77,0.34,-1.29,1.54
2022-11-15 11:10:37.3480,-0.83,-0.18,-0.58,1.02
2022-11-15 11:10:37.3510,-0.6,-0.99,-0.48,1.25
2022-11-15 11:10:37.3650,-0.3,-1.35,-0.59,1.5
2022-11-15 11:10:37.3760,0.16,-0.99,0.05,1.0
2022-11-15 11:10:37.3820,0.58,0.0,0.77,0.96
2022-11-15 11:10:37.3830,0.77,0.35,1.44,1.67
2022-11-15 11:10:37.4000,0.49,-0.28,1.58,1.67
2022-11-15 11:10:37.4030,0.12,-0.95,1.26,1.58
2022-11-15 11:10:37.4160,0.05,-1.42,0.75,1.6
2022-11-15 11:10:37.4190,0.08,-1.71,0.2,1.72
2022-11-15 11:10:37.4330,-0.05,-1.36,-0.25,1.38
2022-11-15 11:10:37.4350,-0.3,-0.85,-0.3,0.95
2022-11-15 11:10:37.4500,-0.36,-0.47,-0.15,0.61
2022-11-15 11:10:37.4600,-0.52,-0.43,-0.24,0.71
2022-11-15 11:10:37.4650,-0.57,-0.17,-0.12,0.6
2022-11-15 11:10:37.4670,-0.66,0.14,0.17,0.69
2022-11-15 11:10:37.4830,-0.67,-0.07,0.7,0.97
2022-11-15 11:10:37.4850,-0.68,-0.31,1.09,1.32
2022-11-15 11:10:37.5000,-0.36,-0.35,1.22,1.31
2022-11-15 11:10:37.5020,0.12,-0.16,1.09,1.1
2022-11-15 11:10:37.5150,0.49,-0.02,0.69,0.84
2022-11-15 11:10:37.5170,0.42,-0.09,0.12,0.44
2022-11-15 11:10:37.5330,-0.28,-0.3,-0.15,0.43
2022-11-15 11:10:37.5430,-0.38,-0.27,-0.28,0.54
2022-11-15 11:10:37.5480,-0.27,-0.13,-0.1,0.31
2022-11-15 11:10:37.5500,-0.23,0.15,0.17,0.32
2022-11-15 11:10:37.5660,0.02,0.62,0.53,0.81
2022-11-15 11:10:37.5680,0.14,1.08,0.82,1.36
2022-11-15 11:10:37.5830,-0.08,1.33,0.85,1.58
2022-11-15 11:10:37.5850,-0.57,1.3,1.02,1.74
2022-11-15 11:10:37.5980,-1.29,1.11,0.95,1.94
2022-11-15 11:10:37.6010,-1.67,0.49,0.26,1.75
2022-11-15 11:10:37.6150,-1.31,-0.11,-0.21,1.33
2022-11-15 11:10:37.6260,-1.54,-0.36,-0.18,1.59
2022-11-15 11:10:37.6310,-1.01,0.02,-0.05,1.01
2022-11-15 11:10:37.6330,0.32,0.76,-0.02,0.82
2022-11-15 11:10:37.6500,0.68,1.05,-0.37,1.3
2022-11-15 11:10:37.6510,0.66,1.04,-0.47,1.31
2022-11-15 11:10:37.6650,0.32,0.72,-0.7,1.05
2022-11-15 11:10:37.6680,0.25,0.33,-0.74,0.84
2022-11-15 11:10:37.6820,0.67,-0.26,-0.62,0.94
2022-11-15 11:10:37.6850,-0.09,-0.77,-0.55,0.95
2022-11-15 11:10:37.6980,0.13,-0.28,0.03,0.31
2022-11-15 11:10:37.7090,1.15,0.33,0.2,1.21
2022-11-15 11:10:37.7150,0.97,0.56,0.68,1.31
2022-11-15 11:10:37.7170,1.68,0.71,0.53,1.89
2022-11-15 11:10:37.7340,0.54,0.36,-0.18,0.67
2022-11-15 11:10:37.7360,0.0,0.29,-0.18,0.34
2022-11-15 11:10:37.7490,-0.19,0.18,-0.14,0.29
2022-11-15 11:10:37.7520,-0.36,0.27,-0.21,0.49
2022-11-15 11:10:37.7650,-1.03,0.15,-0.13,1.04
2022-11-15 11:10:37.7680,-1.68,-0.57,0.09,1.77
2022-11-15 11:10:37.7830,-0.58,-1.09,0.03,1.23
2022-11-15 11:10:37.7940,1.9,-0.88,0.21,2.1
2022-11-15 11:10:37.7980,2.66,-0.67,0.09,2.74
2022-11-15 11:10:37.8000,1.44,-0.45,-0.09,1.51
2022-11-15 11:10:37.8160,-0.62,-0.8,0.41,1.09
2022-11-15 11:10:37.8180,-2.74,-2.1,0.67,3.51
2022-11-15 11:10:37.8330,-3.36,-2.71,0.11,4.31
2022-11-15 11:10:37.8350,-2.12,-2.27,-0.39,3.13
2022-11-15 11:10:37.8480,-0.32,-1.44,-0.79,1.67
2022-11-15 11:10:37.8510,1.58,-0.04,-1.26,2.02
2022-11-15 11:10:37.8650,2.55,1.05,-1.49,3.13
2022-11-15 11:10:37.8770,1.93,1.83,-1.38,2.99
2022-11-15 11:10:37.8820,-0.66,1.58,-1.39,2.2
2022-11-15 11:10:37.8830,-2.37,0.63,-1.44,2.84
2022-11-15 11:10:37.9000,-2.47,-0.24,-1.11,2.71
2022-11-15 11:10:37.9030,-1.97,-1.13,-0.94,2.45
2022-11-15 11:10:37.9150,-1.09,-1.07,-1.63,2.23
2022-11-15 11:10:37.9180,-0.09,-0.2,-2.26,2.27
2022-11-15 11:10:37.9330,0.15,1.11,-3.17,3.36
2022-11-15 11:10:37.9360,1.26,2.31,-2.77,3.82
2022-11-15 11:10:37.9480,3.94,3.73,2.74,6.07
2022-11-15 11:10:37.9600,3.67,5.94,6.08,9.25
2022-11-15 11:10:37.9650,1.21,6.22,4.08,7.53
2022-11-15 11:10:37.9670,-1.11,5.0,3.1,5.98
2022-11-15 11:10:37.9830,-2.46,3.68,3.41,5.58
2022-11-15 11:10:37.9850,-2.7,2.87,3.5,5.27
2022-11-15 11:10:37.9980,-2.21,2.3,3.68,4.86
2022-11-15 11:10:38.0010,-1.7,1.39,3.2,3.88
2022-11-15 11:10:38.0160,-0.11,-0.02,1.61,1.61
2022-11-15 11:10:38.0180,2.34,-0.99,0.23,2.55
2022-11-15 11:10:38.0320,3.75,-0.98,-0.27,3.88
2022-11-15 11:10:38.0430,2.51,-1.14,-0.74,2.85
2022-11-15 11:10:38.0480,0.54,-1.25,-1.45,1.98
2022-11-15 11:10:38.0500,-0.74,-1.85,-1.55,2.52
2022-11-15 11:10:38.0520,-1.06,-1.6,-1.41,2.38
2022-11-15 11:10:38.0550,-0.53,-1.0,-0.37,1.19
2022-11-15 11:10:38.0570,-0.27,-0.15,0.61,0.68
2022-11-15 11:10:38.0590,-0.29,0.34,0.64,0.78
2022-11-15 11:10:38.0610,-0.22,0.09,0.51,0.56
2022-11-15 11:10:38.0630,-0.73,-0.68,0.04,0.99
2022-11-15 11:10:38.0640,-1.12,-1.23,0.18,1.67
2022-11-15 11:10:38.0820,-1.45,-1.65,0.38,2.22
2022-11-15 11:10:38.0830,-1.72,-1.95,0.33,2.62
2022-11-15 11:10:38.0990,-1.16,-1.31,-0.14,1.75
2022-11-15 11:10:38.1000,-0.48,-0.31,-0.33,0.65
2022-11-15 11:10:38.1160,-0.02,0.74,-0.75,1.05
2022-11-15 11:10:38.1180,-0.3,1.01,-0.29,1.09
2022-11-15 11:10:38.1320,-0.18,1.54,1.55,2.19
2022-11-15 11:10:38.1330,-0.01,2.35,1.73,2.91
2022-11-15 11:10:38.1490,-0.59,1.21,-0.53,1.44
2022-11-15 11:10:38.1510,0.2,-0.16,-1.56,1.58
2022-11-15 11:10:38.1650,0.01,-1.31,0.52,1.4
2022-11-15 11:10:38.1670,-1.27,-2.43,1.52,3.13
2022-11-15 11:10:38.1840,-1.89,-2.74,0.99,3.47
2022-11-15 11:10:38.1850,-1.84,-2.3,0.04,2.94
2022-11-15 11:10:38.1990,-1.26,-1.06,-0.86,1.85
2022-11-15 11:10:38.2010,0.4,0.58,-0.67,0.97
2022-11-15 11:10:38.2160,0.89,1.09,0.22,1.42
2022-11-15 11:10:38.2190,0.54,0.79,0.54,1.09
2022-11-15 11:10:38.2310,-0.01,0.35,0.54,0.64
2022-11-15 11:10:38.2340,-0.79,-0.42,0.49,1.02
2022-11-15 11:10:38.2480,-0.59,-1.22,-0.07,1.35
2022-11-15 11:10:38.2490,0.32,-1.2,-0.69,1.42
2022-11-15 11:10:38.2670,0.49,-0.9,-1.0,1.43
2022-11-15 11:10:38.2690,-0.13,-1.04,-1.2,1.59
2022-11-15 11:10:38.2840,-0.74,-2.18,-0.9,2.47
2022-11-15 11:10:38.2870,-0.62,-2.35,-1.11,2.67
2022-11-15 11:10:38.2980,0.09,-1.31,-0.31,1.34
2022-11-15 11:10:38.3010,0.36,-0.04,0.19,0.4
2022-11-15 11:10:38.3160,0.16,0.44,0.02,0.46
2022-11-15 11:10:38.3190,0.1,0.39,-0.48,0.62
2022-11-15 11:10:38.3310,0.12,-0.04,-0.93,0.93
2022-11-15 11:10:38.3330,0.63,-0.45,-1.4,1.59
2022-11-15 11:10:38.3510,1.09,-0.74,-1.65,2.11
2022-11-15 11:10:38.3520,0.82,-0.61,-2.07,2.3
2022-11-15 11:10:38.3660,-0.14,-0.1,-1.85,1.85
2022-11-15 11:10:38.3690,-0.19,0.95,-0.45,1.06
2022-11-15 11:10:38.3830,0.0,2.76,1.1,2.97
2022-11-15 11:10:38.3850,-0.35,3.71,1.82,4.14
2022-11-15 11:10:38.3980,-1.27,2.83,1.75,3.56
2022-11-15 11:10:38.4000,-1.69,1.29,2.25,3.09
2022-11-15 11:10:38.4150,-0.16,0.96,2.32,2.51
2022-11-15 11:10:38.4170,1.29,0.73,1.81,2.33
2022-11-15 11:10:38.4340,1.96,1.17,0.88,2.44
2022-11-15 11:10:38.4360,2.64,2.47,-0.28,3.62
2022-11-15 11:10:38.4480,3.36,3.25,-0.25,4.68
2022-11-15 11:10:38.4490,4.03,3.62,0.05,5.41
2022-11-15 11:10:38.4660,3.37,2.82,0.77,4.46
2022-11-15 11:10:38.4690,2.94,2.49,0.56,3.89
2022-11-15 11:10:38.4810,2.47,2.23,0.63,3.38
2022-11-15 11:10:38.4840,-12.98,-5.05,-5.88,15.11
2022-11-15 11:10:38.4970,-15.93,-5.97,-2.26,17.16
2022-11-15 11:10:38.4990,-0.49,4.13,5.0,6.5
2022-11-15 11:10:38.5180,-1.62,4.57,-0.44,4.86
2022-11-15 11:10:38.5210,-1.42,3.09,0.72,3.47
2022-11-15 11:10:38.5310,-1.88,0.79,0.92,2.23
2022-11-15 11:10:38.5330,-2.03,-1.15,1.81,2.95
2022-11-15 11:10:38.5490,-0.82,-1.41,3.18,3.57
2022-11-15 11:10:38.5520,0.64,-0.45,1.72,1.88
2022-11-15 11:10:38.5650,1.2,-0.2,-0.52,1.32
2022-11-15 11:10:38.5680,0.77,-0.02,-2.0,2.14
2022-11-15 11:10:38.5810,0.22,1.26,-2.47,2.78
2022-11-15 11:10:38.5830,0.32,3.06,-1.26,3.32
2022-11-15 11:10:38.6010,0.65,3.77,-0.48,3.85
2022-11-15 11:10:38.6020,0.88,3.01,0.4,3.16
2022-11-15 11:10:38.6170,0.77,1.69,0.6,1.95
2022-11-15 11:10:38.6190,0.22,0.38,-0.19,0.47
2022-11-15 11:10:38.6320,-0.02,-0.29,-0.08,0.3
2022-11-15 11:10:38.6340,0.19,-0.96,0.42,1.06
2022-11-15 11:10:38.6480,-0.19,-2.02,0.89,2.21
2022-11-15 11:10:38.6510,0.34,-2.63,1.47,3.03
2022-11-15 11:10:38.6640,0.6,-2.92,0.96,3.13
2022-11-15 11:10:38.6660,0.79,-2.19,-0.37,2.35
2022-11-15 11:10:38.6850,0.58,-1.53,-1.19,2.02
2022-11-15 11:10:38.6880,-0.16,-1.45,-0.58,1.56
2022-11-15 11:10:38.7010,-1.06,-1.2,0.91,1.84
2022-11-15 11:10:38.7030,-1.74,-1.17,1.1,2.36
2022-11-15 11:10:38.7160,-1.11,-1.31,0.04,1.71
2022-11-15 11:10:38.7180,0.37,-2.53,-1.1,2.78
2022-11-15 11:10:38.7330,1.1,-3.29,-1.3,3.7
2022-11-15 11:10:38.7350,1.4,-2.13,-0.49,2.59
2022-11-15 11:10:38.7470,1.34,-1.0,-0.69,1.8
2022-11-15 11:10:38.7490,0.47,-0.71,-0.95,1.27
2022-11-15 11:10:38.7650,-0.13,-0.49,-0.88,1.01
2022-11-15 11:10:38.7670,-0.15,-0.25,-0.81,0.86
2022-11-15 11:10:38.7830,0.03,0.05,-0.83,0.83
2022-11-15 11:10:38.7840,0.22,0.48,-0.9,1.04
2022-11-15 11:10:38.7990,0.27,0.34,-0.68,0.8
2022-11-15 11:10:38.8010,-0.06,-0.16,-0.5,0.52
2022-11-15 11:10:38.8160,-0.16,-0.16,-0.89,0.91
2022-11-15 11:10:38.8190,0.2,0.17,-0.71,0.75
2022-11-15 11:10:38.8310,0.74,0.61,-0.53,1.09
2022-11-15 11:10:38.8330,1.02,1.11,-0.36,1.54
2022-11-15 11:10:38.8510,1.0,1.78,-0.04,2.04
2022-11-15 11:10:38.8540,1.04,2.36,-0.04,2.57
2022-11-15 11:10:38.8670,1.52,2.99,-0.27,3.36
2022-11-15 11:10:38.8700,2.51,3.27,-0.9,4.21
2022-11-15 11:10:38.8810,3.11,2.74,-0.69,4.2
2022-11-15 11:10:38.8840,2.08,1.51,-0.95,2.74
2022-11-15 11:10:38.8990,0.91,0.78,-2.6,2.86
2022-11-15 11:10:38.9010,-0.14,-0.06,-4.42,4.42
2022-11-15 11:10:38.9140,-0.7,-0.87,-3.56,3.73
2022-11-15 11:10:38.9160,-0.1,-0.74,-1.19,1.4
2022-11-15 11:10:38.9340,0.32,-0.4,0.04,0.51
2022-11-15 11:10:38.9350,0.33,-0.27,1.53,1.58
2022-11-15 11:10:38.9490,0.07,-0.73,2.28,2.39
2022-11-15 11:10:38.9520,-0.82,-1.45,2.39,2.91
2022-11-15 11:10:38.9650,-2.51,-2.06,2.97,4.4
2022-11-15 11:10:38.9670,-2.94,-2.41,2.75,4.69
2022-11-15 11:10:38.9810,-2.32,-2.21,1.98,3.76
2022-11-15 11:10:38.9840,-1.61,-1.55,1.38,2.62
2022-11-15 11:10:38.9980,-1.34,-1.18,1.25,2.17
2022-11-15 11:10:39.0000,-1.25,-1.17,1.82,2.49
2022-11-15 11:10:39.0170,-1.78,-1.96,2.38,3.56
2022-11-15 11:10:39.0190,-2.3,-2.6,2.03,4.02
2022-11-15 11:10:39.0340,-1.03,-0.87,1.15,1.77
2022-11-15 11:10:39.0360,0.17,0.91,0.09,0.93
2022-11-15 11:10:39.0490,0.51,1.76,-0.32,1.86
2022-11-15 11:10:39.0510,0.34,2.43,0.54,2.51
2022-11-15 11:10:39.0650,-0.23,2.84,0.68,2.92
2022-11-15 11:10:39.0670,-0.03,3.89,-0.06,3.89
2022-11-15 11:10:39.0810,-0.14,3.95,-0.59,3.99
2022-11-15 11:10:39.0830,-0.46,2.96,-1.04,3.17
2022-11-15 11:10:39.1000,-0.64,1.93,-0.98,2.25
2022-11-15 11:10:39.1020,-1.2,0.32,-0.42,1.31
2022-11-15 11:10:39.1160,-2.22,-1.63,0.65,2.82
2022-11-15 11:10:39.1180,-3.31,-3.46,1.76,5.1
2022-11-15 11:10:39.1330,-3.65,-4.36,2.92,6.39
2022-11-15 11:10:39.1350,-2.51,-2.31,2.18,4.04
2022-11-15 11:10:39.1490,-0.35,1.79,0.02,1.82
2022-11-15 11:10:39.1510,1.82,3.36,-0.2,3.82
2022-11-15 11:10:39.1640,3.33,2.72,0.39,4.31
2022-11-15 11:10:39.1660,4.03,1.72,0.11,4.38
2022-11-15 11:10:39.1840,3.81,1.08,-0.61,4.0
2022-11-15 11:10:39.1860,2.53,0.9,-1.77,3.21
2022-11-15 11:10:39.2000,1.27,0.69,-2.3,2.71
2022-11-15 11:10:39.2030,0.19,0.03,-2.14,2.14
2022-11-15 11:10:39.2150,-0.73,-0.54,-1.68,1.9
2022-11-15 11:10:39.2170,-0.93,-0.83,-0.16,1.25
2022-11-15 11:10:39.2310,-0.74,-0.51,0.92,1.28
2022-11-15 11:10:39.2340,-0.47,0.38,0.94,1.11
2022-11-15 11:10:39.2470,-0.18,0.95,0.73,1.21
2022-11-15 11:10:39.2490,-0.4,1.78,0.07,1.82
2022-11-15 11:10:39.2670,-1.56,3.8,-0.33,4.12
2022-11-15 11:10:39.2690,0.21,3.81,-2.03,4.32
2022-11-15 11:10:39.2820,1.94,-0.56,-3.81,4.31
2022-11-15 11:10:39.2840,1.41,-3.91,-3.67,5.54
2022-11-15 11:10:39.2990,0.61,-4.54,-1.89,4.95
2022-11-15 11:10:39.3020,-0.13,-2.78,-0.29,2.79
2022-11-15 11:10:39.3150,-0.77,-1.69,2.22,2.89
2022-11-15 11:10:39.3170,-0.53,-1.16,3.2,3.44
2022-11-15 11:10:39.3310,0.27,-0.78,2.28,2.42
2022-11-15 11:10:39.3330,0.61,-0.39,0.99,1.22
2022-11-15 11:10:39.3520,0.47,0.12,-0.71,0.85
2022-11-15 11:10:39.3550,0.17,0.48,-2.58,2.62
2022-11-15 11:10:39.3650,-0.35,0.66,-3.53,3.6
2022-11-15 11:10:39.3680,-0.67,0.37,-3.45,3.53
2022-11-15 11:10:39.3830,-0.91,0.92,-2.63,2.93
2022-11-15 11:10:39.3850,-1.46,1.84,-1.14,2.61
2022-11-15 11:10:39.3990,-1.36,2.2,0.67,2.67
2022-11-15 11:10:39.4020,-1.23,2.09,2.32,3.35
2022-11-15 11:10:39.4140,-1.65,2.1,3.38,4.3
2022-11-15 11:10:39.4160,-1.63,2.27,2.97,4.07
2022-11-15 11:10:39.4340,-1.45,2.5,1.03,3.06
2022-11-15 11:10:39.4350,-1.16,2.02,-1.13,2.58
2022-11-15 11:10:39.4500,-1.27,1.26,-2.35,2.95
2022-11-15 11:10:39.4530,-1.66,1.24,-2.34,3.12
2022-11-15 11:10:39.4650,-1.86,1.5,-1.45,2.79
2022-11-15 11:10:39.4670,-1.66,1.84,-0.67,2.56
2022-11-15 11:10:39.4810,-1.34,3.07,0.16,3.35
2022-11-15 11:10:39.4840,-1.88,2.31,1.73,3.44
2022-11-15 11:10:39.4970,-0.6,2.61,1.97,3.32
2022-11-15 11:10:39.4990,2.19,3.73,0.98,4.43
2022-11-15 11:10:39.5180,3.28,3.0,1.27,4.62
2022-11-15 11:10:39.5210,3.48,2.95,1.21,4.71
2022-11-15 11:10:39.5320,3.36,2.83,1.17,4.54
2022-11-15 11:10:39.5340,-1.2,2.76,3.09,4.31
2022-11-15 11:10:39.5500,3.02,4.81,4.97,7.54
2022-11-15 11:10:39.5520,5.55,5.35,-4.72,9.03
2022-11-15 11:10:39.5650,1.86,-0.52,-4.27,4.68
2022-11-15 11:10:39.5670,-2.91,-8.47,-0.58,8.97
2022-11-15 11:10:39.5810,-6.42,-11.95,-1.21,13.61
2022-11-15 11:10:39.5830,-5.33,-10.99,-2.87,12.54
2022-11-15 11:10:39.6000,-1.99,-7.42,-3.22,8.32
2022-11-15 11:10:39.6020,1.23,-4.83,0.1,4.98
2022-11-15 11:10:39.6200,2.36,-3.72,2.7,5.16
2022-11-15 11:10:39.6220,1.36,-2.77,2.22,3.8
2022-11-15 11:10:39.6320,0.28,-1.51,0.66,1.67
2022-11-15 11:10:39.6350,0.98,0.58,0.61,1.29
2022-11-15 11:10:39.6470,2.19,3.33,-0.33,3.99
2022-11-15 11:10:39.6480,2.87,5.44,-1.68,6.37
2022-11-15 11:10:39.6650,2.78,7.2,-2.29,8.05
2022-11-15 11:10:39.6650,0.75,7.33,-1.13,7.45
2022-11-15 11:10:39.6810,0.11,7.18,-0.22,7.18
2022-11-15 11:10:39.6820,1.14,5.58,2.71,6.3
2022-11-15 11:10:39.7010,0.96,3.23,-1.95,3.89
2022-11-15 11:10:39.7050,0.4,1.49,-3.73,4.03
2022-11-15 11:10:39.7150,1.21,0.72,-2.99,3.3
2022-11-15 11:10:39.7180,0.17,0.27,-1.78,1.8
2022-11-15 11:10:39.7310,-1.88,-0.86,-0.26,2.08
2022-11-15 11:10:39.7340,-3.58,-1.5,0.24,3.88
2022-11-15 11:10:39.7470,-3.38,-1.11,2.08,4.12
2022-11-15 11:10:39.7490,-2.78,-0.08,3.67,4.6
2022-11-15 11:10:39.7660,-2.82,0.98,3.08,4.28
2022-11-15 11:10:39.7690,-0.99,0.69,0.63,1.36
2022-11-15 11:10:39.7830,1.19,-0.46,-0.64,1.42
2022-11-15 11:10:39.7850,1.07,-1.76,-1.22,2.39
2022-11-15 11:10:39.8000,0.2,-3.23,-1.24,3.46
2022-11-15 11:10:39.8020,-0.35,-4.64,-0.67,4.7
2022-11-15 11:10:39.8150,-0.02,-5.86,-0.1,5.86
2022-11-15 11:10:39.8170,0.52,-6.26,0.49,6.3
2022-11-15 11:10:39.8310,0.66,-4.96,1.04,5.11
2022-11-15 11:10:39.8330,1.64,-2.38,1.7,3.35
2022-11-15 11:10:39.8480,2.17,-0.41,2.21,3.12
2022-11-15 11:10:39.8490,1.48,-0.18,1.89,2.4
2022-11-15 11:10:39.8660,0.81,-0.84,1.14,1.63
2022-11-15 11:10:39.8690,0.3,-1.45,0.59,1.59
2022-11-15 11:10:39.8830,0.04,-1.48,0.11,1.48
2022-11-15 11:10:39.8850,0.03,-1.65,-0.13,1.65
2022-11-15 11:10:39.8990,-0.43,-2.51,-0.18,2.55
2022-11-15 11:10:39.9020,-1.29,-3.09,-0.08,3.34
2022-11-15 11:10:39.9150,-1.72,-2.57,-0.23,3.1
2022-11-15 11:10:39.9170,-2.0,-0.87,-0.51,2.23
2022-11-15 11:10:39.9340,-2.35,1.22,-0.28,2.66
2022-11-15 11:10:39.9360,-2.05,2.62,0.47,3.35
2022-11-15 11:10:39.9500,-1.26,3.06,1.45,3.61
2022-11-15 11:10:39.9530,-0.51,2.74,1.66,3.24
2022-11-15 11:10:39.9660,-0.12,1.81,1.32,2.24
2022-11-15 11:10:39.9680,-0.04,0.89,0.85,1.23
2022-11-15 11:10:39.9820,-0.15,0.37,0.47,0.61
2022-11-15 11:10:39.9840,-0.34,0.16,0.04,0.37
2022-11-15 11:10:39.9970,-0.62,0.09,-0.3,0.69
2022-11-15 11:10:39.9990,-0.72,0.26,-0.61,0.97
2022-11-15 11:10:40.0170,-0.53,0.38,-0.92,1.12
2022-11-15 11:10:40.0190,-0.18,0.28,-1.0,1.05
2022-11-15 11:10:40.0320,0.15,0.1,-0.98,0.99
2022-11-15 11:10:40.0350,1.18,1.16,-0.76,1.82
2022-11-15 11:10:40.0500,1.71,4.62,-1.57,5.17
2022-11-15 11:10:40.0520,-1.12,3.23,-1.59,3.77
2022-11-15 11:10:40.0650,-1.0,0.57,0.85,1.43
2022-11-15 11:10:40.0670,-1.4,-2.09,1.75,3.06
2022-11-15 11:10:40.0810,-2.57,-3.3,0.99,4.29
2022-11-15 11:10:40.0830,-2.66,-2.47,-0.24,3.63
2022-11-15 11:10:40.1010,-1.46,-1.03,-0.27,1.8
2022-11-15 11:10:40.1040,-0.29,-1.15,0.78,1.41
2022-11-15 11:10:40.1170,-0.01,-1.62,1.49,2.2
2022-11-15 11:10:40.1200,0.22,-1.96,1.66,2.57
2022-11-15 11:10:40.1320,0.52,-1.69,1.28,2.18
2022-11-15 11:10:40.1340,0.94,-1.08,0.69,1.58
2022-11-15 11:10:40.1490,1.33,-0.71,0.24,1.52
2022-11-15 11:10:40.1520,1.42,-0.59,-0.14,1.54
2022-11-15 11:10:40.1640,1.24,-0.41,-0.55,1.41
2022-11-15 11:10:40.1660,1.08,0.17,-0.78,1.34
2022-11-15 11:10:40.1840,1.05,0.7,0.23,1.28
2022-11-15 11:10:40.1850,0.93,0.67,0.89,1.45
2022-11-15 11:10:40.2000,0.87,0.75,-0.66,1.32
2022-11-15 11:10:40.2030,0.77,0.77,-1.89,2.18
2022-11-15 11:10:40.2150,0.75,0.83,-1.85,2.16
2022-11-15 11:10:40.2170,0.96,1.15,-0.63,1.62
2022-11-15 11:10:40.2320,1.1,1.12,0.78,1.75
2022-11-15 11:10:40.2350,0.84,0.81,1.53,1.92
2022-11-15 11:10:40.2470,0.43,0.83,1.63,1.87
2022-11-15 11:10:40.2490,-0.09,0.99,1.18,1.54
2022-11-15 11:10:40.2670,-0.72,0.98,0.55,1.33
2022-11-15 11:10:40.2690,-1.37,0.92,-0.05,1.65
2022-11-15 11:10:40.2830,-1.92,0.8,-0.66,2.18
2022-11-15 11:10:40.2860,-2.18,0.61,-1.08,2.5
2022-11-15 11:10:40.2990,-2.18,0.37,-1.1,2.46
2022-11-15 11:10:40.3020,-2.02,0.03,-0.72,2.14
2022-11-15 11:10:40.3140,-1.67,-0.32,-0.14,1.7
2022-11-15 11:10:40.3170,-1.05,-0.55,0.16,1.19
2022-11-15 11:10:40.3320,-0.25,-0.6,-0.05,0.65
2022-11-15 11:10:40.3340,0.35,-0.55,-0.45,0.79
2022-11-15 11:10:40.3500,0.57,-0.32,-0.57,0.86
2022-11-15 11:10:40.3520,0.48,0.06,-0.21,0.52
2022-11-15 11:10:40.3650,0.33,0.22,0.31,0.5
2022-11-15 11:10:40.3680,0.37,0.07,0.77,0.85
2022-11-15 11:10:40.3820,0.41,-0.3,1.06,1.17
2022-11-15 11:10:40.3850,0.41,-0.66,1.39,1.59
2022-11-15 11:10:40.3980,0.45,-0.77,1.62,1.84
2022-11-15 11:10:40.4010,0.5,-0.52,1.64,1.79
2022-11-15 11:10:40.4140,0.3,0.02,1.69,1.71
2022-11-15 11:10:40.4160,-0.21,0.51,1.75,1.83
2022-11-15 11:10:40.4340,-0.8,0.67,1.58,1.89
2022-11-15 11:10:40.4350,-1.21,0.55,1.49,1.99
2022-11-15 11:10:40.4500,-1.29,0.29,1.54,2.02
2022-11-15 11:10:40.4530,-1.04,0.26,1.65,1.96
2022-11-15 11:10:40.4650,-1.0,-0.11,1.81,2.07
2022-11-15 11:10:40.4680,-1.2,-0.26,1.57,1.99
2022-11-15 11:10:40.4810,-1.46,0.05,1.01,1.77
2022-11-15 11:10:40.4840,-1.49,0.55,0.46,1.65
2022-11-15 11:10:40.4970,-1.31,0.99,-0.03,1.64
2022-11-15 11:10:40.4990,-0.98,1.16,-0.33,1.55
2022-11-15 11:10:40.5170,-0.5,0.94,-0.26,1.09
2022-11-15 11:10:40.5190,0.19,0.29,-0.05,0.35
2022-11-15 11:10:40.5330,0.87,-0.41,-0.11,0.96
2022-11-15 11:10:40.5360,1.32,-0.76,-0.62,1.64
2022-11-15 11:10:40.5480,1.48,-0.61,-1.11,1.94
2022-11-15 11:10:40.5510,1.44,0.1,-0.77,1.63
2022-11-15 11:10:40.5640,1.57,1.18,-0.12,1.96
2022-11-15 11:10:40.5670,1.47,1.71,0.19,2.26
2022-11-15 11:10:40.5810,0.67,1.58,-0.3,1.74
2022-11-15 11:10:40.5830,-0.02,1.34,-0.89,1.6
2022-11-15 11:10:40.6000,-0.33,1.01,-1.05,1.49
2022-11-15 11:10:40.6020,-0.52,0.32,-0.21,0.64
2022-11-15 11:10:40.6170,-0.23,-0.73,1.37,1.56
2022-11-15 11:10:40.6190,0.66,-1.63,2.66,3.18
2022-11-15 11:10:40.6330,1.19,-2.01,2.57,3.47
2022-11-15 11:10:40.6350,1.02,-1.68,1.39,2.4
2022-11-15 11:10:40.6480,0.81,-0.68,0.33,1.1
2022-11-15 11:10:40.6510,0.72,0.12,0.13,0.74
2022-11-15 11:10:40.6640,0.59,0.56,0.45,0.92
2022-11-15 11:10:40.6660,0.31,0.87,0.73,1.17
2022-11-15 11:10:40.6840,0.04,1.09,0.46,1.18
2022-11-15 11:10:40.6860,-0.1,1.23,-0.24,1.25
2022-11-15 11:10:40.7010,-0.21,1.09,-0.7,1.31
2022-11-15 11:10:40.7030,-0.25,0.63,-0.9,1.12
2022-11-15 11:10:40.7150,-0.17,0.08,-0.92,0.93
2022-11-15 11:10:40.7170,-0.04,-0.37,-0.67,0.76
2022-11-15 11:10:40.7330,-0.09,-0.55,-0.11,0.56
2022-11-15 11:10:40.7360,-0.18,-0.84,0.44,0.96
2022-11-15 11:10:40.7470,-0.29,-1.27,1.14,1.73
2022-11-15 11:10:40.7490,-0.54,-1.18,1.69,2.13
2022-11-15 11:10:40.7680,-0.89,-0.99,1.05,1.69
2022-11-15 11:10:40.7710,-1.41,-0.75,0.02,1.59
2022-11-15 11:10:40.7820,-2.03,-0.5,-0.49,2.14
2022-11-15 11:10:40.7840,-2.64,-0.29,-0.52,2.7
2022-11-15 11:10:40.7980,-3.11,-0.2,-0.5,3.15
2022-11-15 11:10:40.8010,-3.43,-0.2,-0.69,3.5
2022-11-15 11:10:40.8150,-3.7,-0.32,-0.76,3.79
2022-11-15 11:10:40.8190,-4.01,-0.22,-0.71,4.07
2022-11-15 11:10:40.8310,-4.02,0.29,-0.63,4.07
2022-11-15 11:10:40.8320,-3.44,0.85,-0.45,3.57
2022-11-15 11:10:40.8500,-2.46,1.06,-0.1,2.68
2022-11-15 11:10:40.8530,-1.61,0.68,0.46,1.8
2022-11-15 11:10:40.8670,-1.08,0.01,0.87,1.38
2022-11-15 11:10:40.8700,-0.85,-0.42,1.12,1.46
2022-11-15 11:10:40.8830,-1.04,-0.48,1.03,1.54
2022-11-15 11:10:40.8850,-1.33,-0.23,0.57,1.46
2022-11-15 11:10:40.8980,-1.47,0.32,0.22,1.52
2022-11-15 11:10:40.9010,-1.68,0.79,0.15,1.86
2022-11-15 11:10:40.9140,-1.99,0.88,0.25,2.19
2022-11-15 11:10:40.9160,-2.34,0.54,0.54,2.46
2022-11-15 11:10:40.9340,-2.38,0.04,0.66,2.47
2022-11-15 11:10:40.9360,-1.98,-0.28,0.77,2.14
2022-11-15 11:10:40.9480,-1.4,-0.28,0.81,1.64
2022-11-15 11:10:40.9510,-1.01,-0.16,0.63,1.2
2022-11-15 11:10:40.9650,-0.87,-0.04,0.51,1.0
2022-11-15 11:10:40.9670,-1.05,-0.04,0.64,1.23
2022-11-15 11:10:40.9820,-1.39,-0.09,0.7,1.55
2022-11-15 11:10:40.9840,-1.76,-0.14,0.73,1.91
2022-11-15 11:10:40.9970,-2.15,-0.28,0.85,2.32
2022-11-15 11:10:40.9990,-2.52,-0.5,0.92,2.72
2022-11-15 11:10:41.0180,-2.75,-0.57,0.98,2.97
2022-11-15 11:10:41.0200,-3.02,-0.48,1.34,3.33
2022-11-15 11:10:41.0330,-3.5,-0.56,1.87,4.0
2022-11-15 11:10:41.0360,-4.22,-1.12,1.96,4.78
2022-11-15 11:10:41.0500,-4.98,-1.87,1.71,5.58
2022-11-15 11:10:41.0520,-5.84,-2.42,1.61,6.52
2022-11-15 11:10:41.0650,-6.69,-2.7,1.67,7.4
2022-11-15 11:10:41.0680,-7.06,-2.54,1.72,7.69
2022-11-15 11:10:41.0810,-6.77,-2.13,1.85,7.33
2022-11-15 11:10:41.0830,-6.2,-2.36,1.88,6.89
2022-11-15 11:10:41.1010,-5.97,-3.4,1.38,7.0
2022-11-15 11:10:41.1020,-5.71,-4.36,0.67,7.21
2022-11-15 11:10:41.1150,-5.14,-4.94,0.57,7.15
2022-11-15 11:10:41.1180,-4.89,-5.73,1.39,7.66
2022-11-15 11:10:41.1330,-5.35,-6.4,2.52,8.71
2022-11-15 11:10:41.1350,-4.99,-5.79,3.43,8.37
2022-11-15 11:10:41.1480,-3.71,-3.73,3.25,6.18
2022-11-15 11:10:41.1510,-3.05,-1.75,1.49,3.81
2022-11-15 11:10:41.1640,-2.22,-0.56,0.19,2.29
2022-11-15 11:10:41.1660,-1.86,-0.56,0.73,2.07
2022-11-15 11:10:41.1840,-1.83,-2.05,1.76,3.26
2022-11-15 11:10:41.1860,-1.34,-4.26,1.95,4.87
2022-11-15 11:10:41.1980,-0.39,-6.03,0.99,6.12
2022-11-15 11:10:41.2010,0.86,-7.19,-0.29,7.24
2022-11-15 11:10:41.2150,2.16,-7.69,-1.59,8.14
2022-11-15 11:10:41.2180,3.08,-7.47,-2.77,8.54
2022-11-15 11:10:41.2330,3.81,-6.59,-2.98,8.17
2022-11-15 11:10:41.2350,4.4,-5.43,-2.25,7.34
2022-11-15 11:10:41.2480,4.6,-4.04,-1.16,6.23
2022-11-15 11:10:41.2490,4.28,-2.52,-0.07,4.96
2022-11-15 11:10:41.2670,3.51,-1.17,0.76,3.77
2022-11-15 11:10:41.2690,2.45,0.01,1.42,2.83
2022-11-15 11:10:41.2830,1.28,0.92,1.28,2.03
2022-11-15 11:10:41.2840,0.23,1.31,0.16,1.33
2022-11-15 11:10:41.2980,-0.56,1.41,-1.6,2.2
2022-11-15 11:10:41.3010,-1.05,1.35,-3.4,3.8
2022-11-15 11:10:41.3150,-1.26,1.36,-4.62,4.97
2022-11-15 11:10:41.3180,-1.41,1.87,-4.58,5.14
2022-11-15 11:10:41.3310,-1.48,2.74,-3.62,4.77
2022-11-15 11:10:41.3330,-1.24,3.47,-2.75,4.59
2022-11-15 11:10:41.3500,-0.61,3.69,-2.31,4.39
2022-11-15 11:10:41.3520,0.31,3.79,-2.32,4.45
2022-11-15 11:10:41.3660,1.31,4.14,-2.61,5.06
2022-11-15 11:10:41.3680,2.18,4.48,-3.01,5.82
2022-11-15 11:10:41.3820,2.9,4.85,-3.29,6.53
2022-11-15 11:10:41.3850,3.45,5.23,-3.42,7.13
2022-11-15 11:10:41.3980,3.96,5.54,-3.6,7.7
2022-11-15 11:10:41.4010,4.38,5.77,-3.74,8.15
2022-11-15 11:10:41.4140,4.76,5.9,-3.89,8.52
2022-11-15 11:10:41.4160,5.14,5.94,-3.86,8.75
2022-11-15 11:10:41.4340,5.45,6.05,-3.54,8.87
2022-11-15 11:10:41.4360,5.7,6.25,-3.01,8.97
2022-11-15 11:10:41.4480,5.9,6.42,-2.24,9.0
2022-11-15 11:10:41.4510,6.12,6.49,-1.51,9.04
2022-11-15 11:10:41.4650,6.33,6.44,-1.07,9.09
2022-11-15 11:10:41.4680,6.1,6.14,-0.64,8.67
2022-11-15 11:10:41.4820,5.31,5.6,0.32,7.72
2022-11-15 11:10:41.4850,3.59,4.56,2.27,6.23
2022-11-15 11:10:41.4970,1.67,2.23,5.75,6.38
2022-11-15 11:10:41.4990,0.28,-1.29,11.81,11.88
2022-11-15 11:10:41.5170,-0.6,-6.94,17.14,18.5
2022-11-15 11:10:41.5190,-4.16,-14.25,8.95,17.33
2022-11-15 11:10:41.5330,-9.94,-15.32,2.41,18.42
2022-11-15 11:10:41.5360,-14.64,-14.39,2.74,20.71
2022-11-15 11:10:41.5490,-17.99,-12.42,2.98,22.06
2022-11-15 11:10:41.5520,-16.31,-5.37,3.68,17.56
2022-11-15 11:10:41.5660,-11.33,2.09,5.72,12.86
2022-11-15 11:10:41.5690,-5.59,6.81,5.7,10.49
2022-11-15 11:10:41.5820,-1.63,7.52,-1.0,7.75
2022-11-15 11:10:41.5840,1.12,7.14,-7.21,10.2
2022-11-15 11:10:41.6010,4.28,5.81,-8.52,11.16
2022-11-15 11:10:41.6020,5.8,3.42,-6.02,9.03
2022-11-15 11:10:41.6160,9.59,-2.12,5.09,11.06
2022-11-15 11:10:41.6180,9.91,-12.46,10.66,19.15
2022-11-15 11:10:41.6330,4.1,-15.05,-5.95,16.69
2022-11-15 11:10:41.6360,4.75,-14.84,-10.3,18.67
2022-11-15 11:10:41.6480,6.78,-13.45,-4.39,15.68
2022-11-15 11:10:41.6510,7.05,-8.7,-0.99,11.24
2022-11-15 11:10:41.6640,5.94,-4.24,-2.08,7.58
2022-11-15 11:10:41.6660,5.42,-1.95,-4.04,7.03
2022-11-15 11:10:41.6840,5.45,-0.21,-6.06,8.15
2022-11-15 11:10:41.6850,5.25,1.29,-6.3,8.3
2022-11-15 11:10:41.7000,4.81,2.31,-5.56,7.7
2022-11-15 11:10:41.7030,4.26,3.17,-5.14,7.39
2022-11-15 11:10:41.7160,3.66,3.94,-4.68,7.12
2022-11-15 11:10:41.7180,3.06,4.3,-3.78,6.49
2022-11-15 11:10:41.7330,2.09,3.79,-2.92,5.22
2022-11-15 11:10:41.7350,1.01,2.23,-1.68,2.96
2022-11-15 11:10:41.7470,-0.11,0.53,-0.22,0.58
2022-11-15 11:10:41.7490,-1.39,-0.87,1.11,1.98
2022-11-15 11:10:41.7670,-2.5,-1.78,1.49,3.41
2022-11-15 11:10:41.7690,-2.86,-1.59,1.05,3.43
2022-11-15 11:10:41.7840,-1.9,0.02,0.43,1.94
2022-11-15 11:10:41.7870,0.15,1.75,-0.41,1.8
2022-11-15 11:10:41.7980,1.49,2.59,-1.5,3.34
2022-11-15 11:10:41.8010,2.39,2.71,-2.36,4.31
2022-11-15 11:10:41.8160,2.81,2.32,-2.11,4.21
2022-11-15 11:10:41.8190,2.68,1.93,-0.91,3.42
2022-11-15 11:10:41.8310,2.2,1.73,0.47,2.83
2022-11-15 11:10:41.8330,1.3,1.69,1.07,2.38
2022-11-15 11:10:41.8500,0.07,1.54,0.73,1.7
2022-11-15 11:10:41.8520,-1.31,1.17,-0.11,1.75
2022-11-15 11:10:41.8670,-2.56,0.72,-0.49,2.7
2022-11-15 11:10:41.8700,-3.49,0.29,0.06,3.5
2022-11-15 11:10:41.8810,-4.15,0.25,1.43,4.39
2022-11-15 11:10:41.8840,-4.25,0.69,2.77,5.11
2022-11-15 11:10:41.8980,-3.18,1.44,3.34,4.83
2022-11-15 11:10:41.9010,-2.04,1.72,2.9,3.94
2022-11-15 11:10:41.9140,-2.46,1.34,1.72,3.28
2022-11-15 11:10:41.9160,-3.59,0.61,0.54,3.68
2022-11-15 11:10:41.9320,-4.12,-0.11,0.18,4.12
2022-11-15 11:10:41.9340,-3.79,-0.43,0.91,3.92
2022-11-15 11:10:41.9490,-2.95,-0.42,2.2,3.7
2022-11-15 11:10:41.9510,-2.66,-0.76,2.87,3.98
2022-11-15 11:10:41.9660,-3.18,-1.64,2.37,4.29
2022-11-15 11:10:41.9690,-4.0,-2.38,1.24,4.81
2022-11-15 11:10:41.9810,-4.71,-2.14,0.4,5.18
2022-11-15 11:10:41.9840,-5.26,-1.18,0.25,5.39
2022-11-15 11:10:41.9970,-5.47,0.01,0.59,5.5
2022-11-15 11:10:41.9990,-5.42,0.91,1.16,5.61
2022-11-15 11:10:42.0180,-5.52,0.89,1.46,5.77
2022-11-15 11:10:42.0210,-5.38,-0.37,1.2,5.52
2022-11-15 11:10:42.0310,-4.58,-1.93,1.01,5.07
2022-11-15 11:10:42.0330,-4.22,-2.78,1.03,5.15
2022-11-15 11:10:42.0480,-4.51,-3.27,0.84,5.63
2022-11-15 11:10:42.0510,-4.81,-3.98,0.39,6.25
2022-11-15 11:10:42.0650,-4.66,-4.54,0.47,6.52
2022-11-15 11:10:42.0680,-4.65,-4.72,1.99,6.91
2022-11-15 11:10:42.0820,-4.58,-5.12,4.17,8.03
2022-11-15 11:10:42.0840,-3.82,-5.28,4.82,8.1
2022-11-15 11:10:42.1000,-2.15,-3.78,4.12,5.99
2022-11-15 11:10:42.1020,-1.01,-2.01,3.77,4.39
2022-11-15 11:10:42.1170,-0.72,-2.32,3.68,4.4
2022-11-15 11:10:42.1190,-0.37,-4.26,3.07,5.26
2022-11-15 11:10:42.1330,0.4,-6.6,1.23,6.72
2022-11-15 11:10:42.1350,1.72,-8.56,-1.92,8.93
2022-11-15 11:10:42.1480,3.39,-10.0,-5.83,12.06
2022-11-15 11:10:42.1500,4.33,-10.65,-8.07,14.04
2022-11-15 11:10:42.1650,4.95,-10.46,-7.01,13.52
2022-11-15 11:10:42.1670,5.35,-8.88,-3.29,10.87
2022-11-15 11:10:42.1840,5.18,-6.04,1.2,8.04
2022-11-15 11:10:42.1850,4.17,-3.22,4.31,6.8
2022-11-15 11:10:42.1990,2.11,-0.76,4.57,5.09
2022-11-15 11:10:42.2010,0.14,0.81,2.56,2.68
2022-11-15 11:10:42.2160,-0.76,1.71,0.4,1.91
2022-11-15 11:10:42.2190,-1.52,1.86,-1.9,3.06
2022-11-15 11:10:42.2310,-2.13,1.47,-3.48,4.33
2022-11-15 11:10:42.2340,-2.15,1.97,-3.77,4.76
2022-11-15 11:10:42.2480,-1.77,3.25,-3.33,4.97
2022-11-15 11:10:42.2500,-1.41,4.24,-2.45,5.09
2022-11-15 11:10:42.2670,-0.75,5.11,-2.05,5.55
2022-11-15 11:10:42.2690,0.42,5.43,-2.66,6.06
2022-11-15 11:10:42.2830,1.62,5.26,-3.71,6.63
2022-11-15 11:10:42.2860,2.68,5.41,-4.69,7.64
2022-11-15 11:10:42.2980,3.39,5.57,-5.18,8.32
2022-11-15 11:10:42.3010,3.77,5.82,-5.3,8.72
2022-11-15 11:10:42.3160,4.02,6.1,-5.54,9.16
2022-11-15 11:10:42.3190,4.58,6.25,-6.07,9.84
2022-11-15 11:10:42.3310,4.94,6.3,-6.39,10.24
2022-11-15 11:10:42.3330,5.11,6.27,-6.24,10.21
2022-11-15 11:10:42.3500,5.18,6.21,-5.88,9.99
2022-11-15 11:10:42.3520,5.3,6.12,-5.43,9.74
2022-11-15 11:10:42.3660,5.56,6.07,-4.81,9.53
2022-11-15 11:10:42.3680,5.94,6.02,-3.94,9.32
2022-11-15 11:10:42.3820,6.26,5.81,-2.98,9.04
2022-11-15 11:10:42.3840,6.3,5.29,-2.24,8.52
2022-11-15 11:10:42.3980,5.9,4.53,-1.52,7.59
2022-11-15 11:10:42.4010,4.71,3.16,-0.5,5.69
2022-11-15 11:10:42.4140,3.45,0.92,1.81,4.0
2022-11-15 11:10:42.4160,2.38,-2.12,6.98,7.67
2022-11-15 11:10:42.4340,1.65,-5.83,12.15,13.57
2022-11-15 11:10:42.4350,0.79,-11.32,15.73,19.39
2022-11-15 11:10:42.4490,-7.11,-17.38,9.16,20.89
2022-11-15 11:10:42.4520,-14.65,-15.48,9.64,23.39
2022-11-15 11:10:42.4660,-18.05,-12.94,10.03,24.36
2022-11-15 11:10:42.4690,-18.16,-8.64,6.22,21.05
2022-11-15 11:10:42.4810,-14.63,-2.27,5.18,15.68
2022-11-15 11:10:42.4830,-7.79,4.28,5.1,10.24
2022-11-15 11:10:42.4970,-2.2,7.65,3.28,8.6
2022-11-15 11:10:42.4990,0.4,8.22,-0.89,8.27
2022-11-15 11:10:42.5170,0.35,6.85,-8.4,10.84
2022-11-15 11:10:42.5190,1.12,6.11,-11.23,12.83
2022-11-15 11:10:42.5330,2.83,4.35,-10.58,11.78
2022-11-15 11:10:42.5360,3.29,1.36,-9.26,9.92
2022-11-15 11:10:42.5490,4.49,-2.66,-4.37,6.8
2022-11-15 11:10:42.5510,7.73,-13.17,10.67,18.62
2022-11-15 11:10:42.5660,4.8,-18.11,3.37,19.03
2022-11-15 11:10:42.5690,4.36,-17.3,-2.33,17.99
2022-11-15 11:10:42.5810,6.12,-13.9,-0.72,15.2
2022-11-15 11:10:42.5830,6.75,-7.23,-0.26,9.89
2022-11-15 11:10:42.6020,6.36,-2.89,-2.25,7.33
2022-11-15 11:10:42.6040,6.01,-0.76,-4.63,7.62
2022-11-15 11:10:42.6160,6.03,0.68,-5.9,8.46
2022-11-15 11:10:42.6190,6.12,1.99,-5.98,8.78
2022-11-15 11:10:42.6310,6.03,3.19,-5.62,8.83
2022-11-15 11:10:42.6330,5.9,3.96,-5.6,9.04
2022-11-15 11:10:42.6490,5.92,4.92,-5.44,9.42
2022-11-15 11:10:42.6510,6.05,5.82,-3.92,9.26
2022-11-15 11:10:42.6640,5.87,5.43,-0.29,8.0
2022-11-15 11:10:42.6660,3.66,2.8,1.74,4.92
2022-11-15 11:10:42.6840,1.44,0.64,1.28,2.03
2022-11-15 11:10:42.6850,0.11,-0.62,0.73,0.96
2022-11-15 11:10:42.7000,-0.69,-1.45,0.21,1.61
2022-11-15 11:10:42.7020,-1.23,-1.58,0.12,2.0
2022-11-15 11:10:42.7140,-1.0,-0.72,-0.3,1.26
2022-11-15 11:10:42.7170,0.03,0.66,-1.05,1.24
2022-11-15 11:10:42.7310,0.86,1.59,-1.72,2.49
2022-11-15 11:10:42.7340,0.82,1.84,-2.18,2.96
2022-11-15 11:10:42.7480,0.33,1.87,-2.2,2.9
2022-11-15 11:10:42.7500,-0.49,1.89,-1.57,2.5
2022-11-15 11:10:42.7680,-1.54,1.77,-0.48,2.39
2022-11-15 11:10:42.7710,-2.73,1.33,0.83,3.14
2022-11-15 11:10:42.7840,-3.55,0.89,2.11,4.22
2022-11-15 11:10:42.7860,-3.81,0.62,2.89,4.82
2022-11-15 11:10:42.7990,-3.8,0.43,2.49,4.56
2022-11-15 11:10:42.8020,-3.34,0.55,1.37,3.65
2022-11-15 11:10:42.8140,-2.44,0.95,0.59,2.68
2022-11-15 11:10:42.8170,-1.97,1.27,0.45,2.38
2022-11-15 11:10:42.8310,-2.45,1.16,0.8,2.82
2022-11-15 11:10:42.8330,-3.56,0.73,1.61,3.97
2022-11-15 11:10:42.8500,-4.39,0.46,2.25,4.95
2022-11-15 11:10:42.8520,-4.62,0.25,2.2,5.12
2022-11-15 11:10:42.8670,-4.4,-0.01,1.95,4.81
2022-11-15 11:10:42.8700,-3.91,-0.07,1.83,4.31
2022-11-15 11:10:42.8810,-3.47,0.07,1.8,3.9
2022-11-15 11:10:42.8840,-3.39,0.06,1.66,3.77
2022-11-15 11:10:42.8990,-3.77,-0.48,0.92,3.91
2022-11-15 11:10:42.9020,-4.18,-1.39,0.08,4.4
2022-11-15 11:10:42.9140,-4.6,-1.55,0.6,4.89
2022-11-15 11:10:42.9160,-5.45,-0.69,2.26,5.94
2022-11-15 11:10:42.9340,-5.7,0.12,2.77,6.33
2022-11-15 11:10:42.9350,-5.44,0.04,1.98,5.78
2022-11-15 11:10:42.9500,-5.4,-0.82,1.24,5.6
2022-11-15 11:10:42.9530,-5.45,-1.65,0.92,5.76
2022-11-15 11:10:42.9650,-5.57,-1.95,0.44,5.91
2022-11-15 11:10:42.9670,-5.85,-2.13,-0.23,6.22
2022-11-15 11:10:42.9810,-5.86,-2.78,-0.17,6.48
2022-11-15 11:10:42.9840,-5.41,-3.57,1.19,6.59
2022-11-15 11:10:42.9970,-5.27,-4.04,3.13,7.34
2022-11-15 11:10:42.9990,-5.44,-4.43,4.54,8.35
2022-11-15 11:10:43.0180,-5.08,-4.56,5.11,8.52
2022-11-15 11:10:43.0210,-3.32,-3.65,5.1,7.09
2022-11-15 11:10:43.0340,-1.33,-3.2,4.89,5.99
2022-11-15 11:10:43.0360,-0.2,-4.75,4.3,6.41
2022-11-15 11:10:43.0490,0.71,-6.86,2.12,7.21
2022-11-15 11:10:43.0520,1.68,-8.48,-2.15,8.9
2022-11-15 11:10:43.0660,3.22,-9.92,-5.67,11.87
2022-11-15 11:10:43.0690,4.56,-11.31,-8.0,14.58
2022-11-15 11:10:43.0800,5.5,-11.99,-8.01,15.43
2022-11-15 11:10:43.0820,6.16,-11.7,-4.8,14.06
2022-11-15 11:10:43.1010,6.27,-9.6,0.03,11.46
2022-11-15 11:10:43.1020,5.13,-6.46,3.66,9.02
2022-11-15 11:10:43.1170,2.75,-3.57,4.44,6.32
2022-11-15 11:10:43.1190,0.44,-1.38,2.87,3.21
2022-11-15 11:10:43.1320,-0.6,0.13,1.19,1.33
2022-11-15 11:10:43.1340,-1.2,1.26,-0.36,1.77
2022-11-15 11:10:43.1490,-1.65,2.12,-1.79,3.22
2022-11-15 11:10:43.1520,-1.63,2.9,-2.97,4.45
2022-11-15 11:10:43.1640,-1.23,3.98,-3.7,5.57
2022-11-15 11:10:43.1660,-0.86,5.01,-3.71,6.29
2022-11-15 11:10:43.1830,-0.42,5.7,-3.71,6.81
2022-11-15 11:10:43.1850,0.27,5.99,-4.38,7.42
2022-11-15 11:10:43.2000,1.19,6.08,-5.25,8.12
2022-11-15 11:10:43.2020,2.19,6.24,-5.76,8.76
2022-11-15 11:10:43.2140,3.05,6.45,-5.78,9.18
2022-11-15 11:10:43.2160,3.6,6.64,-5.65,9.43
2022-11-15 11:10:43.2310,4.11,6.77,-5.83,9.83
2022-11-15 11:10:43.2330,4.56,6.91,-6.21,10.34
2022-11-15 11:10:43.2470,5.0,6.83,-6.38,10.59
2022-11-15 11:10:43.2490,5.38,6.62,-6.0,10.42
2022-11-15 11:10:43.2680,5.69,6.5,-5.51,10.24
2022-11-15 11:10:43.2700,6.12,6.47,-5.0,10.21
2022-11-15 11:10:43.2820,6.56,6.51,-4.34,10.21
2022-11-15 11:10:43.2840,7.07,6.35,-3.6,10.16
2022-11-15 11:10:43.2990,7.45,5.95,-2.8,9.93
2022-11-15 11:10:43.3020,7.54,5.46,-1.88,9.49
2022-11-15 11:10:43.3140,7.02,4.71,-0.88,8.49
2022-11-15 11:10:43.3170,5.57,3.29,0.43,6.48
2022-11-15 11:10:43.3310,3.64,0.74,3.5,5.1
2022-11-15 11:10:43.3320,2.13,-2.91,9.97,10.6
2022-11-15 11:10:43.3500,1.83,-7.94,19.51,21.14
2022-11-15 11:10:43.3520,-0.87,-15.13,19.47,24.67
2022-11-15 11:10:43.3670,-10.46,-17.78,7.95,22.1
2022-11-15 11:10:43.3700,-16.23,-16.45,8.57,24.64
2022-11-15 11:10:43.3820,-19.96,-13.63,5.99,24.9
2022-11-15 11:10:43.3840,-18.19,-7.39,1.48,19.68
2022-11-15 11:10:43.3990,-11.66,0.29,1.4,11.74
2022-11-15 11:10:43.4020,-4.16,5.85,2.05,7.46
2022-11-15 11:10:43.4140,0.9,8.32,2.02,8.6
2022-11-15 11:10:43.4160,2.69,7.59,-2.57,8.45
2022-11-15 11:10:43.4340,2.89,5.04,-7.95,9.84
2022-11-15 11:10:43.4350,3.81,1.6,-8.73,9.65
2022-11-15 11:10:43.4490,4.34,-1.67,-5.88,7.49
2022-11-15 11:10:43.4510,7.34,-5.18,2.69,9.37
2022-11-15 11:10:43.4650,9.53,-12.69,9.68,18.58
2022-11-15 11:10:43.4670,5.26,-14.99,-2.81,16.13
2022-11-15 11:10:43.4810,5.51,-13.53,-5.42,15.58
2022-11-15 11:10:43.4850,6.82,-10.61,-3.51,13.09
2022-11-15 11:10:43.4970,6.46,-6.1,-3.43,9.52
2022-11-15 11:10:43.4990,5.2,-3.01,-4.32,7.4
2022-11-15 11:10:43.5170,4.56,-1.1,-4.76,6.68
2022-11-15 11:10:43.5190,4.84,0.37,-5.09,7.03
2022-11-15 11:10:43.5320,4.85,1.49,-5.32,7.35
2022-11-15 11:10:43.5350,4.43,2.5,-5.24,7.3
2022-11-15 11:10:43.5500,3.77,3.35,-4.85,6.99
2022-11-15 11:10:43.5520,3.11,3.88,-4.78,6.89
2022-11-15 11:10:43.5640,2.56,4.27,-4.71,6.85
2022-11-15 11:10:43.5670,1.95,4.21,-4.36,6.36
2022-11-15 11:10:43.5810,0.92,3.05,-2.96,4.34
2022-11-15 11:10:43.5830,-0.74,0.75,0.41,1.13
2022-11-15 11:10:43.6000,-1.78,-1.07,2.91,3.57
2022-11-15 11:10:43.6020,-1.09,-0.96,2.95,3.28
2022-11-15 11:10:43.6170,0.26,0.33,2.18,2.22
2022-11-15 11:10:43.6190,1.31,1.35,1.0,2.13
2022-11-15 11:10:43.6320,2.29,2.05,-0.48,3.11
2022-11-15 11:10:43.6340,2.94,2.2,-2.13,4.24
2022-11-15 11:10:43.6490,2.68,1.81,-2.9,4.34
2022-11-15 11:10:43.6520,1.89,1.48,-1.93,3.08
2022-11-15 11:10:43.6640,0.72,1.23,-0.52,1.51
2022-11-15 11:10:43.6660,-1.14,0.66,0.16,1.32
2022-11-15 11:10:43.6840,-2.86,0.23,0.47,2.9
2022-11-15 11:10:43.6850,-3.92,0.2,0.96,4.04
2022-11-15 11:10:43.7000,-4.41,0.33,1.65,4.72
2022-11-15 11:10:43.7030,-4.79,0.54,2.37,5.37
2022-11-15 11:10:43.7140,-5.17,0.89,2.57,5.84
2022-11-15 11:10:43.7170,-4.96,1.44,2.1,5.57
2022-11-15 11:10:43.7320,-4.03,2.07,1.27,4.7
2022-11-15 11:10:43.7350,-2.71,2.28,0.61,3.59
2022-11-15 11:10:43.7470,-2.03,1.83,0.51,2.78
2022-11-15 11:10:43.7490,-2.47,1.01,0.7,2.75
2022-11-15 11:10:43.7650,-3.31,0.19,1.15,3.5
2022-11-15 11:10:43.7670,-3.81,-0.28,1.74,4.19
2022-11-15 11:10:43.7830,-3.74,-0.27,2.42,4.46
2022-11-15 11:10:43.7850,-3.24,-0.01,2.85,4.31
2022-11-15 11:10:43.7980,-3.24,-0.14,2.47,4.07
2022-11-15 11:10:43.8010,-4.11,-0.89,1.26,4.38
2022-11-15 11:10:43.8140,-4.7,-1.35,0.59,4.92
2022-11-15 11:10:43.8170,-4.78,-1.04,1.4,5.08
2022-11-15 11:10:43.8310,-4.56,-0.44,2.77,5.35
2022-11-15 11:10:43.8320,-4.85,-0.28,2.87,5.64
2022-11-15 11:10:43.8500,-5.77,-0.93,1.93,6.15
2022-11-15 11:10:43.8520,-6.14,-1.66,0.89,6.42
2022-11-15 11:10:43.8670,-5.91,-1.74,0.25,6.16
2022-11-15 11:10:43.8700,-5.96,-1.64,-0.16,6.18
2022-11-15 11:10:43.8820,-6.34,-1.97,-0.04,6.63
2022-11-15 11:10:43.8850,-6.61,-2.74,0.7,7.18
2022-11-15 11:10:43.8990,-6.65,-3.61,1.93,7.8
2022-11-15 11:10:43.9020,-6.51,-4.07,3.39,8.39
2022-11-15 11:10:43.9140,-5.97,-4.15,4.59,8.59
2022-11-15 11:10:43.9160,-4.44,-3.3,5.39,7.72
2022-11-15 11:10:43.9340,-2.48,-1.44,5.81,6.47
2022-11-15 11:10:43.9350,-1.29,-0.49,6.15,6.3
2022-11-15 11:10:43.9500,-0.47,-1.7,5.88,6.13
2022-11-15 11:10:43.9530,-0.24,-4.46,3.3,5.55
2022-11-15 11:10:43.9640,-0.83,-7.29,-1.23,7.43
2022-11-15 11:10:43.9670,0.41,-9.43,-4.78,10.58
2022-11-15 11:10:43.9810,2.23,-11.05,-7.54,13.56
2022-11-15 11:10:43.9840,3.47,-12.34,-8.2,15.21
2022-11-15 11:10:43.9980,4.32,-12.88,-6.05,14.87
2022-11-15 11:10:44.0000,4.56,-12.39,-1.93,13.34
2022-11-15 11:10:44.0170,3.74,-10.17,1.74,10.97
2022-11-15 11:10:44.0190,1.52,-6.89,2.84,7.6
2022-11-15 11:10:44.0330,-0.82,-3.88,2.23,4.54
2022-11-15 11:10:44.0360,-1.83,-1.34,1.24,2.58
2022-11-15 11:10:44.0480,-1.79,0.6,-0.01,1.88
2022-11-15 11:10:44.0510,-1.38,1.84,-1.26,2.62
2022-11-15 11:10:44.0650,-0.66,2.49,-2.64,3.68
2022-11-15 11:10:44.0670,0.18,3.1,-3.74,4.86
2022-11-15 11:10:44.0810,0.83,3.63,-4.2,5.61
2022-11-15 11:10:44.0830,1.72,4.04,-4.47,6.26
2022-11-15 11:10:44.0990,2.6,4.42,-5.19,7.29
2022-11-15 11:10:44.1010,3.39,4.98,-5.65,8.25
2022-11-15 11:10:44.1150,3.99,5.52,-5.65,8.84
2022-11-15 11:10:44.1170,4.32,6.13,-5.39,9.23
2022-11-15 11:10:44.1330,4.5,6.82,-5.07,9.61
2022-11-15 11:10:44.1350,4.61,7.39,-5.05,10.06
2022-11-15 11:10:44.1480,4.8,7.85,-5.39,10.66
2022-11-15 11:10:44.1510,5.07,8.12,-5.93,11.26
2022-11-15 11:10:44.1660,5.49,8.22,-6.47,11.81
2022-11-15 11:10:44.1680,5.72,8.2,-6.69,12.02
2022-11-15 11:10:44.1850,6.2,8.17,-6.45,12.11
2022-11-15 11:10:44.1870,6.86,8.04,-5.51,11.91
2022-11-15 11:10:44.2000,7.7,7.73,-4.04,11.63
2022-11-15 11:10:44.2030,8.42,7.17,-2.21,11.27
2022-11-15 11:10:44.2140,8.43,6.15,-0.01,10.43
2022-11-15 11:10:44.2170,6.84,4.36,1.02,8.17
2022-11-15 11:10:44.2330,4.94,2.12,1.32,5.53
2022-11-15 11:10:44.2350,3.38,-0.51,4.1,5.33
2022-11-15 11:10:44.2470,2.31,-4.09,10.05,11.09
2022-11-15 11:10:44.2490,1.49,-9.92,19.33,21.77
2022-11-15 11:10:44.2670,-9.07,-17.95,17.49,26.65
2022-11-15 11:10:44.2690,-16.89,-19.14,13.72,28.98
2022-11-15 11:10:44.2830,-19.91,-16.56,6.79,26.77
2022-11-15 11:10:44.2850,-19.89,-11.21,-0.79,22.84
2022-11-15 11:10:44.2990,-14.21,-2.51,-1.86,14.54
2022-11-15 11:10:44.3020,-6.43,4.57,-0.34,7.89
2022-11-15 11:10:44.3150,-0.52,8.05,-0.32,8.07
2022-11-15 11:10:44.3170,1.26,8.54,-3.87,9.46
2022-11-15 11:10:44.3310,2.21,7.75,-7.12,10.75
2022-11-15 11:10:44.3330,4.0,5.06,-7.12,9.6
2022-11-15 11:10:44.3500,5.78,0.74,-2.89,6.5
2022-11-15 11:10:44.3520,10.76,-8.29,12.4,18.39
2022-11-15 11:10:44.3670,5.53,-14.2,0.37,15.24
2022-11-15 11:10:44.3700,2.83,-14.19,-9.77,17.45
2022-11-15 11:10:44.3830,5.66,-13.9,-4.31,15.61
2022-11-15 11:10:44.3850,6.72,-9.48,-0.8,11.64
2022-11-15 11:10:44.3990,5.51,-5.04,-2.57,7.89
2022-11-15 11:10:44.4020,4.66,-2.8,-5.04,7.41
2022-11-15 11:10:44.4140,5.01,-1.26,-6.46,8.27
2022-11-15 11:10:44.4160,5.23,0.0,-6.46,8.31
2022-11-15 11:10:44.4340,4.96,1.02,-5.62,7.56
2022-11-15 11:10:44.4350,4.59,1.85,-4.78,6.88
2022-11-15 11:10:44.4490,4.05,2.46,-4.2,6.33
2022-11-15 11:10:44.4510,3.71,2.81,-4.02,6.14
2022-11-15 11:10:44.4650,3.42,2.69,-3.95,5.87
2022-11-15 11:10:44.4670,2.96,1.71,-4.04,5.29
2022-11-15 11:10:44.4820,1.84,-0.26,-3.0,3.52
2022-11-15 11:10:44.4840,0.23,-2.06,-0.68,2.18
2022-11-15 11:10:44.4970,-0.87,-2.63,1.16,3.0
2022-11-15 11:10:44.4990,-0.62,-1.59,2.06,2.67
2022-11-15 11:10:44.5170,1.33,0.66,2.71,3.09
2022-11-15 11:10:44.5190,3.12,2.29,2.92,4.84
2022-11-15 11:10:44.5330,4.04,2.92,2.0,5.37
2022-11-15 11:10:44.5360,4.37,2.67,0.01,5.12
2022-11-15 11:10:44.5480,3.78,2.06,-1.54,4.57
2022-11-15 11:10:44.5510,2.69,1.73,-1.55,3.55
2022-11-15 11:10:44.5650,1.45,1.49,-0.98,2.29
2022-11-15 11:10:44.5670,0.27,1.29,-0.79,1.53
2022-11-15 11:10:44.5810,-0.89,1.1,-0.9,1.67
2022-11-15 11:10:44.5830,-1.78,0.98,-0.92,2.23
2022-11-15 11:10:44.6000,-2.53,0.69,-0.76,2.73
2022-11-15 11:10:44.6020,-3.35,0.45,-0.04,3.38
2022-11-15 11:10:44.6150,-4.17,0.43,1.45,4.43
2022-11-15 11:10:44.6180,-4.93,0.62,2.84,5.72
2022-11-15 11:10:44.6330,-4.5,1.4,3.45,5.84
2022-11-15 11:10:44.6350,-3.87,2.13,3.06,5.37
2022-11-15 11:10:44.6480,-4.63,2.04,1.91,5.4
2022-11-15 11:10:44.6510,-5.45,1.57,0.91,5.74
2022-11-15 11:10:44.6640,-5.84,1.07,0.9,6.0
2022-11-15 11:10:44.6660,-5.78,0.67,1.71,6.06
2022-11-15 11:10:44.6840,-4.94,0.33,2.61,5.59
2022-11-15 11:10:44.6850,-3.78,-0.29,2.88,4.76
2022-11-15 11:10:44.7000,-3.6,-1.31,2.0,4.32
2022-11-15 11:10:44.7020,-4.14,-2.05,0.79,4.68
2022-11-15 11:10:44.7150,-5.3,-2.04,0.3,5.68
2022-11-15 11:10:44.7170,-6.29,-1.17,0.73,6.43
2022-11-15 11:10:44.7330,-6.53,0.14,1.15,6.63
2022-11-15 11:10:44.7350,-6.36,0.99,0.86,6.49
2022-11-15 11:10:44.7470,-6.18,1.17,0.42,6.3
2022-11-15 11:10:44.7490,-6.12,0.63,0.26,6.15
2022-11-15 11:10:44.7670,-5.86,-0.81,0.45,5.93
2022-11-15 11:10:44.7690,-5.4,-2.42,0.62,5.94
2022-11-15 11:10:44.7820,-5.37,-3.67,0.59,6.53
2022-11-15 11:10:44.7840,-5.38,-4.65,0.93,7.17
2022-11-15 11:10:44.7990,-5.33,-5.23,2.04,7.74
2022-11-15 11:10:44.8020,-5.24,-5.61,3.4,8.39
2022-11-15 11:10:44.8160,-5.08,-5.52,4.42,8.7
2022-11-15 11:10:44.8180,-4.63,-4.48,5.37,8.38
2022-11-15 11:10:44.8300,-2.96,-2.27,6.05,7.1
2022-11-15 11:10:44.8320,-1.42,-1.19,6.17,6.44
2022-11-15 11:10:44.8500,-0.24,-2.28,5.24,5.71
2022-11-15 11:10:44.8510,0.77,-4.75,3.44,5.91
2022-11-15 11:10:44.8660,1.13,-7.7,0.44,7.79
2022-11-15 11:10:44.8680,1.86,-10.23,-3.19,10.87
2022-11-15 11:10:44.8810,3.48,-12.14,-6.44,14.17
2022-11-15 11:10:44.8830,4.98,-12.75,-7.9,15.8
2022-11-15 11:10:44.8990,6.28,-11.92,-5.96,14.73
2022-11-15 11:10:44.9010,7.04,-9.81,-1.32,12.14
2022-11-15 11:10:44.9140,6.83,-7.18,3.26,10.43
2022-11-15 11:10:44.9160,5.27,-4.53,5.1,8.61
2022-11-15 11:10:44.9340,2.42,-2.48,3.15,4.68
2022-11-15 11:10:44.9350,0.32,-1.24,0.82,1.52
2022-11-15 11:10:44.9500,-0.48,-0.09,-0.35,0.6
2022-11-15 11:10:44.9530,-0.98,0.95,-1.54,2.05
2022-11-15 11:10:44.9660,-1.54,1.55,-3.12,3.8
2022-11-15 11:10:44.9680,-1.33,2.41,-4.42,5.2
2022-11-15 11:10:44.9810,-0.99,3.54,-4.59,5.88
2022-11-15 11:10:44.9840,-0.05,5.0,-4.09,6.45
2022-11-15 11:10:44.9970,1.08,6.14,-3.94,7.37
2022-11-15 11:10:44.9990,2.15,6.82,-4.41,8.4
2022-11-15 11:10:45.0180,3.12,7.15,-5.28,9.41
2022-11-15 11:10:45.0200,3.8,7.33,-5.65,10.0
2022-11-15 11:10:45.0330,4.32,7.46,-5.78,10.37
2022-11-15 11:10:45.0360,4.75,7.43,-5.97,10.64
2022-11-15 11:10:45.0490,5.08,6.99,-6.33,10.71
2022-11-15 11:10:45.0520,5.32,6.31,-6.64,10.59
2022-11-15 11:10:45.0650,5.66,5.69,-6.69,10.44
2022-11-15 11:10:45.0680,6.04,5.42,-6.26,10.24
2022-11-15 11:10:45.0810,6.42,5.49,-5.65,10.16
2022-11-15 11:10:45.0830,6.64,5.6,-4.9,9.97
2022-11-15 11:10:45.1000,6.81,5.7,-4.13,9.79
2022-11-15 11:10:45.1020,6.97,5.98,-3.21,9.72
2022-11-15 11:10:45.1160,6.77,6.47,-2.19,9.61
2022-11-15 11:10:45.1170,5.61,6.77,-0.89,8.83
2022-11-15 11:10:45.1330,4.13,5.86,0.96,7.23
2022-11-15 11:10:45.1350,2.51,3.17,4.34,5.93
2022-11-15 11:10:45.1470,0.71,-1.03,10.94,11.01
2022-11-15 11:10:45.1500,-0.58,-6.78,18.75,19.94
2022-11-15 11:10:45.1640,-6.61,-14.16,11.51,19.4
2022-11-15 11:10:45.1660,-13.23,-17.34,7.98,23.22
2022-11-15 11:10:45.1820,-18.13,-18.27,9.09,27.29
2022-11-15 11:10:45.1840,-20.59,-14.1,5.66,25.58
2022-11-15 11:10:45.1970,-14.66,-5.12,4.44,16.15
2022-11-15 11:10:45.1990,-5.26,2.09,6.36,8.51
2022-11-15 11:10:45.2160,-0.87,3.33,-0.12,3.44
2022-11-15 11:10:45.2190,0.9,1.42,-6.74,6.94
2022-11-15 11:10:45.2310,3.43,-2.73,-6.45,7.79
2022-11-15 11:10:45.2340,6.78,-7.44,-0.36,10.07
2022-11-15 11:10:45.2470,9.64,-9.99,5.9,15.08
2022-11-15 11:10:45.2490,7.49,-8.85,-1.23,11.65
2022-11-15 11:10:45.2670,5.73,-6.76,-6.47,10.97
2022-11-15 11:10:45.2690,6.42,-4.63,-4.52,9.11
2022-11-15 11:10:45.2830,6.55,-2.37,-3.86,7.96
2022-11-15 11:10:45.2850,6.13,-1.27,-5.05,8.04
2022-11-15 11:10:45.2970,5.65,-0.68,-6.37,8.54
2022-11-15 11:10:45.3000,5.27,0.05,-6.64,8.47
2022-11-15 11:10:45.3160,5.1,0.82,-6.09,7.98
2022-11-15 11:10:45.3180,5.19,1.41,-5.24,7.5
2022-11-15 11:10:45.3300,5.28,1.67,-4.43,7.09
2022-11-15 11:10:45.3320,4.85,1.53,-4.21,6.6
2022-11-15 11:10:45.3500,3.62,0.83,-4.28,5.66
2022-11-15 11:10:45.3520,2.44,0.09,-4.8,5.38
2022-11-15 11:10:45.3660,1.47,-0.38,-5.24,5.45
2022-11-15 11:10:45.3690,0.53,-0.79,-5.13,5.21
2022-11-15 11:10:45.3820,-1.13,-1.52,-2.38,3.04
2022-11-15 11:10:45.3850,-3.46,-2.28,2.06,4.62
2022-11-15 11:10:45.3980,-3.19,-1.07,3.42,4.79
2022-11-15 11:10:45.4000,-0.33,1.31,3.61,3.85
2022-11-15 11:10:45.4140,1.79,2.93,4.04,5.3
2022-11-15 11:10:45.4160,2.8,3.75,3.51,5.85
2022-11-15 11:10:45.4340,3.29,3.65,1.69,5.19
2022-11-15 11:10:45.4350,3.62,2.91,-1.06,4.76
2022-11-15 11:10:45.4500,3.37,1.81,-3.02,4.87
2022-11-15 11:10:45.4520,2.42,0.73,-2.62,3.64
2022-11-15 11:10:45.4660,1.41,0.03,-1.42,2.0
2022-11-15 11:10:45.4680,0.36,-0.31,-0.42,0.63
2022-11-15 11:10:45.4810,-1.11,-0.49,0.28,1.24
2022-11-15 11:10:45.4840,-2.62,-0.16,0.75,2.72
2022-11-15 11:10:45.4970,-4.04,0.41,1.24,4.24
2022-11-15 11:10:45.4990,-5.36,0.81,2.14,5.82
2022-11-15 11:10:45.5170,-6.37,1.12,3.31,7.26
2022-11-15 11:10:45.5200,-6.46,1.51,3.5,7.5
2022-11-15 11:10:45.5320,-5.57,2.1,2.62,6.5
2022-11-15 11:10:45.5340,-4.72,2.33,1.09,5.37
2022-11-15 11:10:45.5480,-4.22,1.93,-0.26,4.64
2022-11-15 11:10:45.5510,-4.08,1.23,-0.53,4.29
2022-11-15 11:10:45.5650,-4.11,0.64,0.11,4.16
2022-11-15 11:10:45.5670,-4.14,0.52,1.04,4.3
2022-11-15 11:10:45.5810,-4.03,0.66,1.92,4.51
2022-11-15 11:10:45.5830,-3.68,0.78,2.83,4.7
2022-11-15 11:10:45.6010,-3.08,0.53,3.49,4.68
2022-11-15 11:10:45.6040,-2.58,-0.4,3.39,4.27
2022-11-15 11:10:45.6160,-2.36,-1.66,2.46,3.79
2022-11-15 11:10:45.6190,-2.53,-2.44,0.76,3.59
2022-11-15 11:10:45.6310,-3.63,-2.59,-0.86,4.54
2022-11-15 11:10:45.6340,-5.06,-2.05,-0.95,5.54
2022-11-15 11:10:45.6490,-6.27,-1.09,0.61,6.39
2022-11-15 11:10:45.6520,-7.05,-0.37,1.95,7.32
2022-11-15 11:10:45.6640,-7.27,-0.19,1.65,7.45
2022-11-15 11:10:45.6660,-7.2,-0.43,0.68,7.24
2022-11-15 11:10:45.6840,-6.95,-0.98,0.41,7.03
2022-11-15 11:10:45.6850,-6.38,-2.26,0.87,6.82
2022-11-15 11:10:45.6990,-6.0,-4.06,1.84,7.47
2022-11-15 11:10:45.7010,-5.93,-5.31,3.1,8.54
2022-11-15 11:10:45.7140,-5.53,-5.94,4.05,9.07
2022-11-15 11:10:45.7170,-4.64,-5.66,4.74,8.71
2022-11-15 11:10:45.7310,-2.76,-3.81,4.86,6.76
2022-11-15 11:10:45.7340,-1.11,-2.37,4.25,4.99
2022-11-15 11:10:45.7470,-0.41,-3.15,3.18,4.49
2022-11-15 11:10:45.7490,-0.01,-5.49,1.83,5.78
2022-11-15 11:10:45.7670,0.66,-8.24,-0.09,8.26
2022-11-15 11:10:45.7690,2.21,-10.62,-3.15,11.29
2022-11-15 11:10:45.7820,3.67,-12.49,-6.51,14.55
2022-11-15 11:10:45.7840,4.81,-13.07,-7.51,15.82
2022-11-15 11:10:45.7980,5.74,-12.07,-4.95,14.25
2022-11-15 11:10:45.8000,6.04,-9.51,-0.27,11.26
2022-11-15 11:10:45.8160,5.2,-6.45,3.71,9.07
2022-11-15 11:10:45.8180,3.46,-3.82,5.33,7.41
2022-11-15 11:10:45.8300,1.01,-1.83,4.19,4.68
2022-11-15 11:10:45.8320,-0.74,-0.49,2.21,2.38
2022-11-15 11:10:45.8480,-1.15,0.51,0.1,1.26
2022-11-15 11:10:45.8500,-0.98,1.11,-2.23,2.67
2022-11-15 11:10:45.8670,-0.67,1.61,-4.02,4.38
2022-11-15 11:10:45.8700,-0.3,2.28,-4.65,5.18
2022-11-15 11:10:45.8810,0.03,3.27,-4.19,5.31
2022-11-15 11:10:45.8840,0.57,4.35,-3.66,5.71
2022-11-15 11:10:45.8990,1.52,5.09,-4.05,6.67
2022-11-15 11:10:45.9010,2.59,5.67,-4.71,7.81
2022-11-15 11:10:45.9140,3.65,6.13,-5.3,8.88
2022-11-15 11:10:45.9160,4.43,6.47,-5.44,9.54
2022-11-15 11:10:45.9320,5.0,6.74,-5.47,10.01
2022-11-15 11:10:45.9340,5.39,6.9,-5.96,10.59
2022-11-15 11:10:45.9490,5.63,6.99,-6.82,11.27
2022-11-15 11:10:45.9510,6.03,7.11,-7.3,11.84
2022-11-15 11:10:45.9660,6.37,7.18,-7.15,11.96
2022-11-15 11:10:45.9690,6.85,7.44,-6.41,11.97
2022-11-15 11:10:45.9810,7.37,7.81,-5.24,11.94
2022-11-15 11:10:45.9840,7.87,8.03,-4.12,11.97
2022-11-15 11:10:45.9970,8.07,8.02,-3.45,11.88
2022-11-15 11:10:45.9990,8.08,7.85,-3.25,11.72
2022-11-15 11:10:46.0170,7.75,7.59,-2.76,11.19
2022-11-15 11:10:46.0180,6.74,6.87,-0.96,9.67
2022-11-15 11:10:46.0330,5.4,4.99,1.26,7.45
2022-11-15 11:10:46.0360,3.72,1.63,4.54,6.09
2022-11-15 11:10:46.0490,1.7,-3.91,13.8,14.44
2022-11-15 11:10:46.0510,0.87,-11.41,22.71,25.43
2022-11-15 11:10:46.0640,-5.59,-19.48,12.82,23.98
2022-11-15 11:10:46.0670,-14.1,-19.87,7.59,25.51
2022-11-15 11:10:46.0800,-19.09,-17.83,7.62,27.21
2022-11-15 11:10:46.0820,-21.39,-13.79,3.26,25.65
2022-11-15 11:10:46.1010,-15.25,-4.9,0.44,16.02
2022-11-15 11:10:46.1040,-6.24,3.07,1.91,7.21
2022-11-15 11:10:46.1160,0.13,6.96,1.12,7.05
2022-11-15 11:10:46.1190,2.44,7.11,-3.74,8.39
2022-11-15 11:10:46.1310,4.75,4.56,-6.81,9.47
2022-11-15 11:10:46.1340,6.65,-0.69,-4.97,8.33
2022-11-15 11:10:46.1490,9.86,-5.61,6.25,12.95
2022-11-15 11:10:46.1520,13.98,-13.06,20.9,28.33
2022-11-15 11:10:46.1640,7.05,-15.5,0.28,17.03
2022-11-15 11:10:46.1660,4.79,-11.76,-11.83,17.35
2022-11-15 11:10:46.1830,6.77,-8.84,-7.87,13.63
2022-11-15 11:10:46.1850,7.18,-5.55,-4.49,10.12
2022-11-15 11:10:46.1990,6.08,-2.88,-5.14,8.46
2022-11-15 11:10:46.2020,4.91,-1.29,-6.3,8.09
2022-11-15 11:10:46.2160,4.1,-0.32,-6.99,8.11
2022-11-15 11:10:46.2190,3.65,0.32,-7.33,8.19
2022-11-15 11:10:46.2310,3.49,0.68,-6.79,7.66
2022-11-15 11:10:46.2340,3.18,0.82,-6.01,6.84
2022-11-15 11:10:46.2480,2.35,1.0,-5.12,5.72
2022-11-15 11:10:46.2500,1.2,1.19,-4.33,4.64
2022-11-15 11:10:46.2670,0.05,0.98,-4.01,4.12
2022-11-15 11:10:46.2690,-1.23,0.36,-3.42,3.65
2022-11-15 11:10:46.2810,-2.73,-0.38,-1.97,3.38
2022-11-15 11:10:46.2820,-3.95,-0.8,-0.3,4.04
2022-11-15 11:10:46.2990,-4.0,-0.42,0.4,4.04
2022-11-15 11:10:46.3020,-3.53,0.53,0.66,3.63
2022-11-15 11:10:46.3140,-2.58,2.01,1.48,3.58
2022-11-15 11:10:46.3170,-0.4,3.61,2.26,4.27
2022-11-15 11:10:46.3300,1.47,4.13,2.08,4.85
2022-11-15 11:10:46.3320,2.27,3.58,0.94,4.34
2022-11-15 11:10:46.3500,2.53,2.57,-0.59,3.65
2022-11-15 11:10:46.3520,2.4,1.62,-1.39,3.21
2022-11-15 11:10:46.3660,1.9,1.11,-0.9,2.37
2022-11-15 11:10:46.3690,1.28,1.09,-0.17,1.68
2022-11-15 11:10:46.3810,0.55,1.44,0.64,1.66
2022-11-15 11:10:46.3830,-0.75,1.62,1.53,2.35
2022-11-15 11:10:46.3990,-2.56,1.22,1.99,3.46
2022-11-15 11:10:46.4020,-3.67,0.69,1.97,4.22
2022-11-15 11:10:46.4140,-3.95,0.55,1.46,4.24
2022-11-15 11:10:46.4160,-4.26,0.81,1.38,4.55
2022-11-15 11:10:46.4340,-4.44,1.43,1.93,5.04
2022-11-15 11:10:46.4350,-3.63,2.23,2.13,4.76
2022-11-15 11:10:46.4500,-2.23,2.6,1.81,3.87
2022-11-15 11:10:46.4520,-1.8,1.97,1.49,3.05
2022-11-15 11:10:46.4640,-2.76,0.67,1.18,3.07
2022-11-15 11:10:46.4670,-3.56,-0.32,1.08,3.73
2022-11-15 11:10:46.4810,-3.51,-0.46,1.36,3.79
2022-11-15 11:10:46.4840,-3.03,-0.1,1.77,3.51
2022-11-15 11:10:46.4970,-2.65,0.12,2.04,3.34
2022-11-15 11:10:46.4990,-2.6,-0.1,2.01,3.28
2022-11-15 11:10:46.5170,-2.96,-0.66,1.39,3.33
2022-11-15 11:10:46.5180,-3.6,-1.19,0.7,3.85
2022-11-15 11:10:46.5310,-4.47,-1.34,0.5,4.69
2022-11-15 11:10:46.5340,-5.45,-0.79,0.65,5.54
2022-11-15 11:10:46.5480,-6.33,0.1,0.96,6.4
2022-11-15 11:10:46.5510,-6.87,0.54,1.21,6.99
2022-11-15 11:10:46.5640,-6.57,0.17,1.52,6.74
2022-11-15 11:10:46.5670,-5.7,-1.0,2.04,6.13
2022-11-15 11:10:46.5800,-5.2,-2.68,1.85,6.13
2022-11-15 11:10:46.5820,-5.39,-3.99,0.96,6.77
2022-11-15 11:10:46.6000,-5.99,-4.62,0.01,7.56
2022-11-15 11:10:46.6020,-6.32,-4.92,-0.1,8.0
2022-11-15 11:10:46.6160,-6.21,-4.88,0.8,7.93
2022-11-15 11:10:46.6190,-6.18,-4.89,1.99,8.12
2022-11-15 11:10:46.6310,-5.84,-4.72,3.42,8.25
2022-11-15 11:10:46.6340,-3.66,-3.56,5.41,7.43
2022-11-15 11:10:46.6490,-0.71,-2.33,7.14,7.54
2022-11-15 11:10:46.6520,0.43,-3.09,6.17,6.91
2022-11-15 11:10:46.6640,0.26,-5.3,2.67,5.94
2022-11-15 11:10:46.6660,0.1,-7.55,-0.97,7.61
2022-11-15 11:10:46.6840,0.91,-9.43,-3.74,10.18
2022-11-15 11:10:46.6850,2.27,-10.98,-5.69,12.57
2022-11-15 11:10:46.7000,3.54,-11.76,-6.53,13.9
2022-11-15 11:10:46.7030,4.59,-10.86,-5.53,13.02
2022-11-15 11:10:46.7140,5.3,-8.62,-2.15,10.34
2022-11-15 11:10:46.7170,5.35,-6.24,1.98,8.45
2022-11-15 11:10:46.7310,4.18,-3.79,4.64,7.3
2022-11-15 11:10:46.7340,2.32,-1.66,4.88,5.65
2022-11-15 11:10:46.7470,0.77,-0.23,2.84,2.95
2022-11-15 11:10:46.7490,0.04,0.45,0.56,0.71
2022-11-15 11:10:46.7670,-0.02,0.83,-1.35,1.58
2022-11-15 11:10:46.7680,-0.01,1.07,-3.18,3.35
2022-11-15 11:10:46.7820,0.16,1.46,-4.94,5.15
2022-11-15 11:10:46.7840,0.51,2.21,-5.83,6.25
2022-11-15 11:10:46.7990,0.99,3.58,-5.39,6.54
2022-11-15 11:10:46.8020,1.32,4.95,-4.46,6.79
2022-11-15 11:10:46.8140,1.64,5.89,-4.23,7.43
2022-11-15 11:10:46.8170,2.23,6.7,-4.41,8.32
2022-11-15 11:10:46.8300,2.94,7.18,-4.62,9.02
2022-11-15 11:10:46.8320,3.61,7.39,-4.81,9.52
2022-11-15 11:10:46.8510,4.21,7.36,-5.02,9.85
2022-11-15 11:10:46.8530,4.62,7.14,-5.38,10.06
2022-11-15 11:10:46.8660,4.9,6.72,-6.12,10.32
2022-11-15 11:10:46.8680,5.24,6.36,-6.78,10.67
2022-11-15 11:10:46.8810,5.76,6.23,-6.81,10.87
2022-11-15 11:10:46.8840,6.26,6.41,-6.19,10.88
2022-11-15 11:10:46.8990,6.77,6.66,-5.16,10.8
2022-11-15 11:10:46.9020,7.04,6.5,-4.24,10.47
2022-11-15 11:10:46.9140,7.07,6.12,-3.37,9.93
2022-11-15 11:10:46.9160,6.72,5.94,-2.37,9.27
2022-11-15 11:10:46.9340,5.67,5.99,-1.27,8.34
2022-11-15 11:10:46.9350,4.62,5.43,0.0,7.12
2022-11-15 11:10:46.9500,3.73,3.26,3.04,5.81
2022-11-15 11:10:46.9530,2.62,-0.9,10.29,10.65
2022-11-15 11:10:46.9640,1.65,-7.19,19.65,20.98
2022-11-15 11:10:46.9670,-8.65,-16.77,14.52,23.8
2022-11-15 11:10:46.9820,-17.72,-18.1,11.06,27.63
2022-11-15 11:10:46.9840,-24.02,-19.38,10.73,32.67
2022-11-15 11:10:46.9970,-24.68,-15.4,3.34,29.28
2022-11-15 11:10:46.9990,-13.7,-4.15,0.69,14.33
2022-11-15 11:10:47.0180,-2.33,3.1,0.63,3.92
2022-11-15 11:10:47.0210,1.47,5.0,-2.53,5.79
2022-11-15 11:10:47.0330,4.02,4.66,-4.69,7.73
2022-11-15 11:10:47.0360,6.76,1.11,-4.44,8.16
2022-11-15 11:10:47.0490,9.25,-2.77,0.66,9.67
2022-11-15 11:10:47.0520,13.69,-8.59,12.01,20.13
2022-11-15 11:10:47.0660,9.82,-10.6,-0.47,14.45
2022-11-15 11:10:47.0680,7.5,-9.35,-7.66,14.22
2022-11-15 11:10:47.0800,8.66,-8.92,-4.93,13.37
2022-11-15 11:10:47.0820,8.15,-6.69,-5.09,11.7
2022-11-15 11:10:47.1000,6.3,-4.39,-6.29,9.92
2022-11-15 11:10:47.1020,4.95,-2.64,-7.27,9.18
2022-11-15 11:10:47.1160,4.46,-1.02,-7.5,8.78
2022-11-15 11:10:47.1190,4.49,0.41,-6.54,7.94
2022-11-15 11:10:47.1320,4.52,1.35,-5.56,7.29
2022-11-15 11:10:47.1340,4.3,1.88,-5.09,6.92
2022-11-15 11:10:47.1480,3.27,1.99,-4.6,5.98
2022-11-15 11:10:47.1510,1.92,1.76,-4.69,5.36
2022-11-15 11:10:47.1640,0.77,1.24,-5.42,5.61
2022-11-15 11:10:47.1660,-0.14,0.45,-6.19,6.2
2022-11-15 11:10:47.1830,-0.92,-0.38,-6.46,6.53
2022-11-15 11:10:47.1850,-1.57,-1.12,-5.77,6.08
2022-11-15 11:10:47.2000,-3.17,-2.35,-2.72,4.79
2022-11-15 11:10:47.2030,-4.75,-3.12,1.71,5.93
2022-11-15 11:10:47.2160,-1.5,-0.63,3.26,3.64
2022-11-15 11:10:47.2180,1.01,1.65,4.96,5.32
2022-11-15 11:10:47.2320,2.54,3.11,6.83,7.92
2022-11-15 11:10:47.2350,3.2,3.61,6.7,8.25
2022-11-15 11:10:47.2470,2.82,3.35,4.17,6.04
2022-11-15 11:10:47.2490,2.32,2.7,0.02,3.55
2022-11-15 11:10:47.2670,1.86,1.76,-3.74,4.53
2022-11-15 11:10:47.2680,1.39,0.89,-5.03,5.29
2022-11-15 11:10:47.2820,0.91,0.72,-4.65,4.79
2022-11-15 11:10:47.2850,0.2,1.11,-2.78,3.0
2022-11-15 11:10:47.2990,-1.46,1.25,0.07,1.92
2022-11-15 11:10:47.3020,-4.11,0.15,3.29,5.26
2022-11-15 11:10:47.3150,-6.38,-0.2,6.11,8.83
2022-11-15 11:10:47.3180,-6.99,0.72,7.02,9.93
2022-11-15 11:10:47.3310,-5.57,2.16,5.32,7.99
2022-11-15 11:10:47.3330,-4.75,2.8,2.36,5.99
2022-11-15 11:10:47.3480,-5.07,2.26,-0.5,5.57
2022-11-15 11:10:47.3500,-5.79,0.82,-1.45,6.02
2022-11-15 11:10:47.3660,-6.33,-0.5,-0.62,6.37
2022-11-15 11:10:47.3670,-6.28,-0.52,0.49,6.32
2022-11-15 11:10:47.3820,-5.83,0.46,1.86,6.13
2022-11-15 11:10:47.3850,-5.42,1.05,3.1,6.33
2022-11-15 11:10:47.3980,-5.0,0.73,3.84,6.34
2022-11-15 11:10:47.4010,-4.47,-0.01,3.31,5.56
2022-11-15 11:10:47.4140,-4.31,-0.9,1.74,4.73
2022-11-15 11:10:47.4160,-4.39,-1.42,0.41,4.63
2022-11-15 11:10:47.4330,-4.68,-1.03,-0.63,4.83
2022-11-15 11:10:47.4360,-4.99,-0.29,-1.17,5.13
2022-11-15 11:10:47.4500,-5.32,0.27,-0.86,5.39
2022-11-15 11:10:47.4530,-5.22,0.81,0.2,5.28
2022-11-15 11:10:47.4660,-4.93,0.69,1.2,5.12
2022-11-15 11:10:47.4680,-4.88,-0.8,1.71,5.23
2022-11-15 11:10:47.4820,-5.19,-3.55,2.1,6.62
2022-11-15 11:10:47.4850,-5.0,-6.62,2.53,8.67
2022-11-15 11:10:47.4970,-4.13,-8.59,2.8,9.93
2022-11-15 11:10:47.4990,-3.33,-9.73,3.54,10.87
2022-11-15 11:10:47.5160,-1.41,-9.25,4.78,10.5
2022-11-15 11:10:47.5180,0.84,-6.43,4.76,8.04
2022-11-15 11:10:47.5320,1.78,-3.91,2.04,4.75
2022-11-15 11:10:47.5340,2.09,-3.9,-0.98,4.53
2022-11-15 11:10:47.5490,2.18,-5.84,-2.44,6.69
2022-11-15 11:10:47.5520,2.71,-7.71,-2.86,8.65
2022-11-15 11:10:47.5640,3.57,-9.26,-2.91,10.34
2022-11-15 11:10:47.5670,4.25,-10.17,-1.99,11.2
2022-11-15 11:10:47.5800,4.52,-9.63,-0.13,10.63
2022-11-15 11:10:47.5820,3.86,-7.88,1.6,8.91
2022-11-15 11:10:47.6000,2.57,-5.61,2.15,6.53
2022-11-15 11:10:47.6020,1.24,-3.23,1.44,3.74
2022-11-15 11:10:47.6150,0.15,-1.08,0.6,1.24
2022-11-15 11:10:47.6170,-0.9,0.55,1.0,1.45
2022-11-15 11:10:47.6330,-1.57,1.62,0.96,2.45
2022-11-15 11:10:47.6350,-1.73,2.25,-0.16,2.84
2022-11-15 11:10:47.6480,-1.56,2.52,-2.02,3.58
2022-11-15 11:10:47.6500,-1.21,2.68,-3.91,4.89
2022-11-15 11:10:47.6640,-0.53,3.01,-5.19,6.02
2022-11-15 11:10:47.6660,0.45,3.63,-5.45,6.56
2022-11-15 11:10:47.6830,1.47,4.45,-4.88,6.76
2022-11-15 11:10:47.6850,2.47,5.25,-4.38,7.26
2022-11-15 11:10:47.7000,3.43,5.68,-4.03,7.76
2022-11-15 11:10:47.7030,4.21,5.81,-3.67,8.05
2022-11-15 11:10:47.7140,4.73,6.04,-3.66,8.5
2022-11-15 11:10:47.7170,4.97,6.22,-3.97,8.89
2022-11-15 11:10:47.7320,5.17,6.36,-4.62,9.4
2022-11-15 11:10:47.7350,5.38,6.45,-5.54,10.06
2022-11-15 11:10:47.7470,5.56,6.63,-6.32,10.71
2022-11-15 11:10:47.7490,5.9,6.87,-6.68,11.25
2022-11-15 11:10:47.7670,6.41,7.08,-6.42,11.5
2022-11-15 11:10:47.7680,6.83,7.23,-5.55,11.38
2022-11-15 11:10:47.7830,7.03,7.14,-4.44,10.95
2022-11-15 11:10:47.7860,7.03,6.65,-3.68,10.35
2022-11-15 11:10:47.7990,6.69,6.03,-3.0,9.49
2022-11-15 11:10:47.8020,6.01,5.23,-2.29,8.28
2022-11-15 11:10:47.8140,5.05,3.94,-1.07,6.49
2022-11-15 11:10:47.8170,3.97,1.6,1.98,4.71
2022-11-15 11:10:47.8300,2.74,-2.59,8.48,9.28
2022-11-15 11:10:47.8320,1.9,-9.57,18.01,20.48
2022-11-15 11:10:47.8500,-5.69,-19.86,17.08,26.8
2022-11-15 11:10:47.8520,-15.82,-19.92,11.35,27.85
2022-11-15 11:10:47.8660,-21.08,-17.18,9.6,28.83
2022-11-15 11:10:47.8690,-22.15,-11.76,4.94,25.56
2022-11-15 11:10:47.8820,-14.47,-2.13,2.18,14.78
2022-11-15 11:10:47.8850,-4.19,4.51,1.77,6.4
2022-11-15 11:10:47.8980,1.81,7.27,1.52,7.64
2022-11-15 11:10:47.9010,4.47,7.18,-1.96,8.68
2022-11-15 11:10:47.9140,4.81,4.91,-7.46,10.14
2022-11-15 11:10:47.9160,4.95,1.64,-8.32,9.81
2022-11-15 11:10:47.9330,4.49,-1.04,-6.78,8.19
2022-11-15 11:10:47.9350,5.72,-3.34,-0.93,6.68
2022-11-15 11:10:47.9500,9.8,-9.34,11.5,17.76
2022-11-15 11:10:47.9520,5.69,-15.17,3.44,16.56
2022-11-15 11:10:47.9650,3.58,-14.95,-3.81,15.83
2022-11-15 11:10:47.9670,4.82,-12.41,-2.57,13.55
2022-11-15 11:10:47.9820,4.51,-7.25,-2.39,8.86
2022-11-15 11:10:47.9850,3.62,-3.45,-3.6,6.16
2022-11-15 11:10:47.9970,3.45,-1.26,-5.27,6.42
2022-11-15 11:10:47.9990,3.91,0.38,-6.21,7.34
2022-11-15 11:10:48.0170,4.43,1.43,-6.17,7.72
2022-11-15 11:10:48.0180,4.42,2.17,-5.7,7.53
2022-11-15 11:10:48.0330,4.25,2.97,-5.13,7.29
2022-11-15 11:10:48.0360,3.94,3.72,-4.87,7.28
2022-11-15 11:10:48.0480,3.49,3.89,-5.01,7.23
2022-11-15 11:10:48.0500,3.04,3.66,-4.95,6.86
2022-11-15 11:10:48.0640,2.18,2.84,-4.2,5.51
2022-11-15 11:10:48.0670,0.79,1.32,-2.12,2.61
2022-11-15 11:10:48.0810,-1.21,-0.82,1.39,2.01
2022-11-15 11:10:48.0830,-2.38,-1.92,3.43,4.59
2022-11-15 11:10:48.1000,-1.4,-0.79,3.07,3.46
2022-11-15 11:10:48.1020,0.54,1.05,2.24,2.53
2022-11-15 11:10:48.1160,1.98,2.14,1.43,3.24
2022-11-15 11:10:48.1170,2.85,2.49,0.44,3.81
2022-11-15 11:10:48.1320,3.22,2.07,-0.97,3.94
2022-11-15 11:10:48.1350,2.84,1.17,-1.94,3.63
2022-11-15 11:10:48.1480,1.76,0.65,-1.69,2.52
2022-11-15 11:10:48.1500,0.3,0.6,-0.79,1.03
2022-11-15 11:10:48.1640,-1.13,0.71,-0.09,1.33
2022-11-15 11:10:48.1660,-2.35,0.89,0.4,2.54
2022-11-15 11:10:48.1840,-3.51,1.04,1.12,3.82
2022-11-15 11:10:48.1850,-4.52,1.29,2.17,5.17
2022-11-15 11:10:48.2000,-5.02,1.64,2.73,5.94
2022-11-15 11:10:48.2030,-4.27,2.11,2.07,5.19
2022-11-15 11:10:48.2150,-2.82,2.39,0.87,3.79
2022-11-15 11:10:48.2170,-2.77,1.96,0.06,3.39
2022-11-15 11:10:48.2310,-3.67,1.16,0.12,3.85
2022-11-15 11:10:48.2340,-4.43,0.48,1.09,4.58
2022-11-15 11:10:48.2470,-4.42,0.17,2.0,4.85
2022-11-15 11:10:48.2490,-4.06,-0.09,2.35,4.69
2022-11-15 11:10:48.2670,-3.5,-0.1,2.58,4.34
2022-11-15 11:10:48.2680,-2.97,0.16,2.65,3.98
2022-11-15 11:10:48.2830,-3.04,0.15,2.08,3.68
2022-11-15 11:10:48.2850,-4.09,-0.54,1.03,4.25
2022-11-15 11:10:48.2980,-5.25,-1.34,0.06,5.41
2022-11-15 11:10:48.3000,-5.84,-1.26,-0.17,5.97
2022-11-15 11:10:48.3150,-6.39,-0.32,0.28,6.4
2022-11-15 11:10:48.3180,-6.84,0.79,0.88,6.94
2022-11-15 11:10:48.3300,-7.07,1.28,1.17,7.27
2022-11-15 11:10:48.3320,-6.83,1.19,1.5,7.09
2022-11-15 11:10:48.3510,-6.2,0.34,1.92,6.49
2022-11-15 11:10:48.3540,-5.81,-1.05,1.75,6.15
2022-11-15 11:10:48.3660,-5.87,-2.35,1.13,6.42
2022-11-15 11:10:48.3680,-5.7,-3.5,0.49,6.7
2022-11-15 11:10:48.3820,-5.34,-4.77,0.52,7.17
2022-11-15 11:10:48.3850,-4.68,-5.44,1.41,7.31
2022-11-15 11:10:48.3990,-3.95,-5.56,2.37,7.22
2022-11-15 11:10:48.4020,-2.62,-5.03,2.97,6.4
2022-11-15 11:10:48.4140,-0.74,-3.59,3.81,5.28
2022-11-15 11:10:48.4160,0.58,-2.59,4.36,5.1
2022-11-15 11:10:48.4330,0.81,-3.38,2.89,4.52
2022-11-15 11:10:48.4350,0.14,-5.59,0.02,5.59
2022-11-15 11:10:48.4490,0.61,-8.01,-1.98,8.27
2022-11-15 11:10:48.4510,2.02,-10.28,-3.27,10.97
2022-11-15 11:10:48.4650,3.06,-11.99,-3.99,13.0
2022-11-15 11:10:48.4680,4.0,-12.77,-3.27,13.77
2022-11-15 11:10:48.4810,4.55,-11.68,-1.21,12.59
2022-11-15 11:10:48.4840,4.05,-8.82,0.96,9.75
2022-11-15 11:10:48.4970,2.85,-6.2,2.36,7.22
2022-11-15 11:10:48.4990,1.65,-3.98,3.06,5.28
2022-11-15 11:10:48.5170,0.58,-2.04,3.28,3.9
2022-11-15 11:10:48.5180,-0.13,-0.44,2.63,2.66
2022-11-15 11:10:48.5340,-0.32,0.68,1.4,1.58
2022-11-15 11:10:48.5360,-0.18,1.34,-0.33,1.39
2022-11-15 11:10:48.5470,0.11,2.0,-2.32,3.06
2022-11-15 11:10:48.5510,0.52,2.7,-3.9,4.77
2022-11-15 11:10:48.5650,1.08,3.67,-4.53,5.92
2022-11-15 11:10:48.5680,1.66,4.9,-4.48,6.84
2022-11-15 11:10:48.5800,2.15,5.96,-4.16,7.57
2022-11-15 11:10:48.5820,2.67,6.63,-4.28,8.33
2022-11-15 11:10:48.6000,3.22,7.0,-4.71,9.03
2022-11-15 11:10:48.6020,3.78,7.15,-5.35,9.69
2022-11-15 11:10:48.6160,4.2,7.25,-5.71,10.13
2022-11-15 11:10:48.6190,4.51,7.31,-5.96,10.45
2022-11-15 11:10:48.6310,4.75,7.25,-6.37,10.75
2022-11-15 11:10:48.6330,5.01,7.08,-6.8,11.02
2022-11-15 11:10:48.6480,5.39,6.95,-6.96,11.21
2022-11-15 11:10:48.6500,5.88,7.02,-6.53,11.24
2022-11-15 11:10:48.6640,6.27,7.23,-5.42,10.99
2022-11-15 11:10:48.6660,6.92,7.51,-4.61,11.2
2022-11-15 11:10:48.6830,7.51,7.81,-4.28,11.64
2022-11-15 11:10:48.6850,7.75,7.81,-3.74,11.62
2022-11-15 11:10:48.7000,7.2,7.21,-2.19,10.42
2022-11-15 11:10:48.7020,6.04,5.56,-0.05,8.2
2022-11-15 11:10:48.7160,4.79,2.96,2.22,6.05
2022-11-15 11:10:48.7180,3.57,-0.81,7.07,7.96
2022-11-15 11:10:48.7320,3.32,-7.14,18.52,20.12
2022-11-15 11:10:48.7340,-6.01,-18.08,18.4,26.48
2022-11-15 11:10:48.7470,-17.21,-20.73,10.19,28.8
2022-11-15 11:10:48.7490,-22.79,-18.94,9.03,30.97
2022-11-15 11:10:48.7670,-25.09,-14.78,4.73,29.5
2022-11-15 11:10:48.7680,-16.53,-4.24,1.77,17.15
2022-11-15 11:10:48.7830,-4.27,3.87,2.3,6.2
2022-11-15 11:10:48.7850,1.98,6.68,1.02,7.04
2022-11-15 11:10:48.7980,3.66,5.79,-4.14,8.0
2022-11-15 11:10:48.8000,5.23,3.19,-7.66,9.8
2022-11-15 11:10:48.8150,5.97,-0.69,-7.47,9.58
2022-11-15 11:10:48.8170,8.06,-4.15,-0.78,9.09
2022-11-15 11:10:48.8300,12.24,-10.38,12.4,20.28
2022-11-15 11:10:48.8320,8.17,-14.2,1.14,16.42
2022-11-15 11:10:48.8500,6.62,-13.06,-5.14,15.51
2022-11-15 11:10:48.8520,7.85,-11.51,-3.73,14.42
2022-11-15 11:10:48.8660,7.58,-7.98,-4.3,11.81
2022-11-15 11:10:48.8690,6.0,-4.35,-5.75,9.38
2022-11-15 11:10:48.8810,4.74,-1.92,-6.37,8.16
2022-11-15 11:10:48.8840,4.14,-0.06,-6.21,7.46
2022-11-15 11:10:48.8970,4.1,1.32,-5.78,7.2
2022-11-15 11:10:48.9000,3.96,2.42,-5.32,7.05
2022-11-15 11:10:48.9130,3.35,2.97,-4.66,6.46
2022-11-15 11:10:48.9150,2.44,3.22,-4.08,5.74
2022-11-15 11:10:48.9350,1.61,3.36,-3.85,5.35
2022-11-15 11:10:48.9370,0.76,3.25,-3.49,4.82
2022-11-15 11:10:48.9480,-0.39,2.41,-2.4,3.42
2022-11-15 11:10:48.9500,-1.96,1.0,-0.2,2.2
2022-11-15 11:10:48.9660,-3.19,-0.21,1.77,3.65
2022-11-15 11:10:48.9680,-3.23,-0.4,1.97,3.8
2022-11-15 11:10:48.9820,-1.52,0.72,1.69,2.38
2022-11-15 11:10:48.9850,1.15,2.34,1.21,2.87
2022-11-15 11:10:48.9970,2.77,3.21,0.21,4.24
2022-11-15 11:10:48.9990,3.99,3.2,-1.22,5.25
2022-11-15 11:10:49.0170,4.46,2.4,-2.51,5.65
2022-11-15 11:10:49.0180,3.94,1.51,-2.19,4.75
2022-11-15 11:10:49.0330,2.93,1.14,-0.49,3.18
2022-11-15 11:10:49.0360,1.6,0.92,0.86,2.03
2022-11-15 11:10:49.0490,-0.42,0.28,1.17,1.27
2022-11-15 11:10:49.0510,-2.35,-0.39,0.83,2.52
2022-11-15 11:10:49.0650,-3.62,-0.49,0.41,3.67
2022-11-15 11:10:49.0680,-4.27,-0.08,0.48,4.29
2022-11-15 11:10:49.0800,-4.97,0.5,1.33,5.16
2022-11-15 11:10:49.0820,-5.66,1.27,2.07,6.15
2022-11-15 11:10:49.0980,-5.39,2.29,1.92,6.16
2022-11-15 11:10:49.1000,-4.35,2.97,1.32,5.43
2022-11-15 11:10:49.1160,-4.0,2.53,0.85,4.8
2022-11-15 11:10:49.1170,-4.73,1.27,0.96,4.99
2022-11-15 11:10:49.1310,-5.41,0.12,1.6,5.64
2022-11-15 11:10:49.1340,-5.38,-0.27,2.17,5.8
2022-11-15 11:10:49.1480,-4.57,0.05,2.6,5.25
2022-11-15 11:10:49.1510,-3.7,0.45,3.01,4.79
2022-11-15 11:10:49.1640,-3.49,0.27,2.58,4.34
2022-11-15 11:10:49.1660,-3.89,-0.6,1.18,4.1
2022-11-15 11:10:49.1830,-4.26,-1.11,0.2,4.4
2022-11-15 11:10:49.1850,-4.6,-0.87,0.25,4.68
2022-11-15 11:10:49.1990,-5.26,-0.29,0.75,5.32
2022-11-15 11:10:49.2020,-6.04,0.07,1.44,6.2
2022-11-15 11:10:49.2150,-6.28,0.01,2.07,6.61
2022-11-15 11:10:49.2180,-5.85,-0.47,1.94,6.18
2022-11-15 11:10:49.2310,-5.37,-1.03,1.55,5.68
2022-11-15 11:10:49.2330,-5.43,-1.46,1.22,5.75
2022-11-15 11:10:49.2470,-6.27,-2.13,1.13,6.71
2022-11-15 11:10:49.2490,-6.76,-3.13,1.3,7.56
2022-11-15 11:10:49.2670,-6.26,-4.17,1.74,7.72
2022-11-15 11:10:49.2680,-5.36,-4.82,2.58,7.65
2022-11-15 11:10:49.2810,-4.26,-5.46,3.82,7.9
2022-11-15 11:10:49.2840,-2.52,-5.72,5.7,8.45
2022-11-15 11:10:49.2980,-0.26,-5.16,7.35,8.98
2022-11-15 11:10:49.3000,1.55,-4.29,6.13,7.64
2022-11-15 11:10:49.3140,1.61,-4.82,1.3,5.24
2022-11-15 11:10:49.3170,1.08,-6.58,-3.36,7.46
2022-11-15 11:10:49.3300,1.82,-8.73,-5.65,10.55
2022-11-15 11:10:49.3320,3.16,-10.91,-6.37,13.02
2022-11-15 11:10:49.3500,4.23,-12.39,-5.3,14.12
2022-11-15 11:10:49.3520,4.95,-12.32,-2.56,13.52
2022-11-15 11:10:49.3660,4.72,-10.35,0.68,11.39
2022-11-15 11:10:49.3690,3.3,-7.61,3.18,8.88
2022-11-15 11:10:49.3830,1.54,-5.13,4.04,6.7
2022-11-15 11:10:49.3850,0.28,-2.92,3.42,4.5
2022-11-15 11:10:49.3990,-0.5,-1.19,2.4,2.72
2022-11-15 11:10:49.4010,-0.81,0.11,1.29,1.52
2022-11-15 11:10:49.4130,-0.82,0.82,-0.12,1.16
2022-11-15 11:10:49.4150,-0.65,1.27,-2.05,2.49
2022-11-15 11:10:49.4340,-0.16,1.73,-4.36,4.69
2022-11-15 11:10:49.4350,0.51,2.61,-5.44,6.05
2022-11-15 11:10:49.4490,1.27,3.7,-5.41,6.67
2022-11-15 11:10:49.4520,2.02,5.0,-5.12,7.43
2022-11-15 11:10:49.4650,2.72,6.16,-4.88,8.31
2022-11-15 11:10:49.4680,3.46,6.92,-5.02,9.22
2022-11-15 11:10:49.4810,4.06,7.39,-5.09,9.84
2022-11-15 11:10:49.4830,4.55,7.61,-5.17,10.26
2022-11-15 11:10:49.4970,4.94,7.64,-5.5,10.63
2022-11-15 11:10:49.4990,5.21,7.56,-5.77,10.84
2022-11-15 11:10:49.5170,5.5,7.35,-6.02,10.97
2022-11-15 11:10:49.5180,5.69,7.25,-5.95,10.97
2022-11-15 11:10:49.5330,5.97,7.32,-5.46,10.91
2022-11-15 11:10:49.5360,6.28,7.58,-4.75,10.92
2022-11-15 11:10:49.5520,6.74,7.79,-4.11,11.09
2022-11-15 11:10:49.5550,7.45,7.97,-3.76,11.53
2022-11-15 11:10:49.5650,7.53,8.17,-3.26,11.57
2022-11-15 11:10:49.5680,6.49,7.89,-2.03,10.41
2022-11-15 11:10:49.5800,4.6,6.86,-0.43,8.27
2022-11-15 11:10:49.5810,3.3,4.66,1.64,5.94
2022-11-15 11:10:49.5970,2.14,1.55,4.02,4.81
2022-11-15 11:10:49.5980,1.43,-3.26,9.85,10.47
2022-11-15 11:10:49.6140,-0.99,-12.57,16.59,20.83
2022-11-15 11:10:49.6150,-12.06,-23.5,11.42,28.77
2022-11-15 11:10:49.6320,-19.61,-22.95,12.03,32.49
2022-11-15 11:10:49.6350,-22.64,-18.66,9.3,30.77
2022-11-15 11:10:49.6480,-18.02,-8.67,4.36,20.46
2022-11-15 11:10:49.6510,-7.55,0.96,1.45,7.74
2022-11-15 11:10:49.6630,-0.21,5.65,-0.51,5.67
2022-11-15 11:10:49.6650,2.69,7.39,-3.94,8.79
2022-11-15 11:10:49.6830,4.43,7.44,-7.02,11.14
2022-11-15 11:10:49.6850,6.29,5.4,-8.09,11.58
2022-11-15 11:10:49.6990,7.15,2.45,-6.44,9.92
2022-11-15 11:10:49.7020,9.83,-1.07,2.98,10.32
2022-11-15 11:10:49.7160,13.62,-9.49,18.32,24.72
2022-11-15 11:10:49.7180,8.35,-16.02,3.92,18.48
2022-11-15 11:10:49.7310,5.64,-15.29,-6.32,17.47
2022-11-15 11:10:49.7330,6.74,-14.61,-5.64,17.04
2022-11-15 11:10:49.7470,6.85,-11.4,-4.35,13.99
2022-11-15 11:10:49.7490,5.49,-6.39,-4.85,9.72
2022-11-15 11:10:49.7660,4.19,-2.89,-5.79,7.7
2022-11-15 11:10:49.7680,4.01,-0.33,-6.29,7.46
2022-11-15 11:10:49.7820,4.27,1.48,-6.22,7.68
2022-11-15 11:10:49.7840,4.14,2.62,-5.82,7.6
2022-11-15 11:10:49.7990,3.56,3.36,-5.58,7.42
2022-11-15 11:10:49.8010,2.8,3.79,-4.94,6.82
2022-11-15 11:10:49.8140,1.99,3.98,-4.49,6.32
2022-11-15 11:10:49.8160,1.27,4.04,-4.48,6.16
2022-11-15 11:10:49.8300,0.58,3.52,-4.45,5.7
2022-11-15 11:10:49.8320,-0.19,2.38,-4.07,4.71
2022-11-15 11:10:49.8500,-1.73,0.54,-1.7,2.48
2022-11-15 11:10:49.8520,-3.89,-1.76,2.0,4.71
2022-11-15 11:10:49.8660,-3.7,-2.17,3.13,5.3
2022-11-15 11:10:49.8690,-1.04,-0.22,3.0,3.18
2022-11-15 11:10:49.8810,0.91,1.55,2.64,3.19
2022-11-15 11:10:49.8830,1.98,2.43,1.4,3.43
2022-11-15 11:10:49.8970,2.72,2.53,-0.64,3.76
2022-11-15 11:10:49.9010,3.03,2.02,-2.44,4.38
2022-11-15 11:10:49.9140,2.76,1.27,-2.23,3.76
2022-11-15 11:10:49.9160,2.2,0.89,-0.42,2.41
2022-11-15 11:10:49.9340,0.93,0.83,1.22,1.74
2022-11-15 11:10:49.9370,-0.92,0.73,2.01,2.32
2022-11-15 11:10:49.9490,-2.8,0.47,2.15,3.56
2022-11-15 11:10:49.9520,-4.11,0.4,2.0,4.58
2022-11-15 11:10:49.9640,-4.92,0.52,1.83,5.27
2022-11-15 11:10:49.9670,-5.35,0.89,1.82,5.72
2022-11-15 11:10:49.9810,-5.07,1.61,1.3,5.47
2022-11-15 11:10:49.9840,-4.49,2.29,0.45,5.06
2022-11-15 11:10:49.9970,-4.41,2.55,0.14,5.09
2022-11-15 11:10:49.9990,-4.71,2.43,0.75,5.35
2022-11-15 11:10:50.0170,-4.93,2.21,1.83,5.7
2022-11-15 11:10:50.0180,-5.0,1.54,2.52,5.8
2022-11-15 11:10:50.0320,-4.77,0.65,2.71,5.52
2022-11-15 11:10:50.0340,-4.0,0.25,2.72,4.84
2022-11-15 11:10:50.0490,-3.19,0.0,2.65,4.14
2022-11-15 11:10:50.0510,-3.0,-0.74,1.82,3.58
2022-11-15 11:10:50.0640,-3.44,-1.71,0.78,3.91
2022-11-15 11:10:50.0660,-4.07,-1.91,0.41,4.51
2022-11-15 11:10:50.0800,-4.87,-1.3,0.5,5.06
2022-11-15 11:10:50.0820,-5.65,-0.12,0.84,5.71
2022-11-15 11:10:50.1000,-6.26,0.77,1.09,6.4
2022-11-15 11:10:50.1020,-6.67,0.87,1.06,6.8
2022-11-15 11:10:50.1160,-6.75,0.55,1.28,6.89
2022-11-15 11:10:50.1190,-6.7,-0.09,1.69,6.91
2022-11-15 11:10:50.1310,-6.55,-1.2,2.09,6.97
2022-11-15 11:10:50.1340,-6.04,-2.37,2.39,6.91
2022-11-15 11:10:50.1490,-5.24,-3.88,2.17,6.87
2022-11-15 11:10:50.1520,-4.57,-5.49,1.78,7.36
2022-11-15 11:10:50.1630,-3.55,-6.54,2.1,7.73
2022-11-15 11:10:50.1650,-1.99,-6.86,2.96,7.73
2022-11-15 11:10:50.1830,0.11,-5.99,3.74,7.06
2022-11-15 11:10:50.1850,2.2,-4.23,3.58,5.96
2022-11-15 11:10:50.1970,2.9,-3.32,1.83,4.77
2022-11-15 11:10:50.1990,1.89,-4.85,-0.77,5.26
2022-11-15 11:10:50.2160,1.1,-7.06,-2.74,7.65
2022-11-15 11:10:50.2180,1.37,-8.82,-3.87,9.72
2022-11-15 11:10:50.2320,1.81,-10.04,-4.25,11.05
2022-11-15 11:10:50.2340,2.15,-10.49,-3.4,11.23
2022-11-15 11:10:50.2470,2.15,-10.13,-1.47,10.45
2022-11-15 11:10:50.2480,1.59,-8.68,0.3,8.82
2022-11-15 11:10:50.2660,0.35,-6.71,1.63,6.91
2022-11-15 11:10:50.2680,-0.96,-4.62,2.9,5.53
2022-11-15 11:10:50.2820,-2.04,-2.38,3.82,4.94
2022-11-15 11:10:50.2840,-2.54,-0.37,3.34,4.21
2022-11-15 11:10:50.2980,-2.58,0.73,1.94,3.3
2022-11-15 11:10:50.3010,-2.47,1.21,-0.23,2.76
2022-11-15 11:10:50.3150,-1.98,1.55,-2.73,3.71
2022-11-15 11:10:50.3170,-0.93,1.94,-4.47,4.96
2022-11-15 11:10:50.3300,0.36,2.55,-5.18,5.78
2022-11-15 11:10:50.3320,1.69,3.39,-5.23,6.45
2022-11-15 11:10:50.3480,2.88,4.16,-4.73,6.92
2022-11-15 11:10:50.3490,3.77,4.67,-4.59,7.55
2022-11-15 11:10:50.3640,4.38,5.11,-4.79,8.26
2022-11-15 11:10:50.3660,4.77,5.55,-5.06,8.89
2022-11-15 11:10:50.3820,5.03,6.09,-5.35,9.53
2022-11-15 11:10:50.3850,5.29,6.64,-5.61,10.17
2022-11-15 11:10:50.3970,5.56,7.14,-5.91,10.8
2022-11-15 11:10:50.4000,5.82,7.59,-6.18,11.38
2022-11-15 11:10:50.4140,6.17,8.06,-6.39,11.99
2022-11-15 11:10:50.4160,6.61,8.5,-6.29,12.47
2022-11-15 11:10:50.4330,7.16,8.83,-5.74,12.73
2022-11-15 11:10:50.4350,7.79,9.13,-4.85,12.94
2022-11-15 11:10:50.4500,8.54,9.27,-3.87,13.18
2022-11-15 11:10:50.4520,8.99,8.59,-2.86,12.75
2022-11-15 11:10:50.4640,8.33,6.93,-1.79,10.98
2022-11-15 11:10:50.4690,6.91,4.79,-0.71,8.43
2022-11-15 11:10:50.4820,5.65,2.96,0.59,6.4
2022-11-15 11:10:50.4900,4.01,0.5,3.56,5.38
2022-11-15 11:10:50.5070,2.39,-3.64,9.38,10.34
2022-11-15 11:10:50.5090,0.08,-11.13,20.06,22.94
2022-11-15 11:10:50.5190,-12.69,-20.8,20.93,32.12
2022-11-15 11:10:50.5300,-19.96,-19.61,11.25,30.15
2022-11-15 11:10:50.5400,-23.0,-16.35,6.8,29.02
2022-11-15 11:10:50.5500,-23.37,-11.23,1.76,25.98
2022-11-15 11:10:50.5600,-14.69,-1.63,0.15,14.78
2022-11-15 11:10:50.5700,-3.78,5.14,-0.08,6.38
2022-11-15 11:10:50.5800,1.98,7.43,-2.31,8.02
2022-11-15 11:10:50.5900,3.37,7.46,-6.37,10.37
2022-11-15 11:10:50.6040,4.59,6.01,-8.03,11.03
2022-11-15 11:10:50.6100,5.76,3.05,-7.44,9.89
2022-11-15 11:10:50.6200,7.46,-0.01,-2.28,7.8
2022-11-15 11:10:50.6300,12.75,-7.19,13.72,20.06
2022-11-15 11:10:50.6400,9.86,-15.01,6.27,19.02
2022-11-15 11:10:50.6500,6.8,-15.47,-5.83,17.87
2022-11-15 11:10:50.6600,7.79,-13.84,-5.99,16.97
2022-11-15 11:10:50.6700,7.95,-10.27,-4.37,13.7
2022-11-15 11:10:50.6800,6.4,-6.07,-4.36,9.83
2022-11-15 11:10:50.6910,4.88,-3.4,-4.86,7.68
2022-11-15 11:10:50.7060,4.36,-1.48,-5.67,7.3
2022-11-15 11:10:50.7100,4.26,0.05,-6.04,7.39
2022-11-15 11:10:50.7210,4.17,1.0,-5.44,6.92
2022-11-15 11:10:50.7300,3.98,1.45,-4.96,6.52
2022-11-15 11:10:50.7400,3.52,1.79,-4.67,6.11
2022-11-15 11:10:50.7510,2.67,1.96,-4.22,5.36
2022-11-15 11:10:50.7600,1.57,1.79,-3.55,4.27
2022-11-15 11:10:50.7710,0.44,1.35,-2.91,3.23
2022-11-15 11:10:50.7810,-0.62,0.3,-2.47,2.56
2022-11-15 11:10:50.7910,-1.36,-0.72,-1.83,2.39
2022-11-15 11:10:50.8060,-2.05,-0.86,-0.98,2.42
2022-11-15 11:10:50.8100,-2.6,-0.31,-0.1,2.62
2022-11-15 11:10:50.8210,-2.65,0.79,1.03,2.95
2022-11-15 11:10:50.8310,-1.36,2.46,2.3,3.63
2022-11-15 11:10:50.8410,0.72,3.58,2.85,4.63
2022-11-15 11:10:50.8510,2.1,3.32,2.03,4.42
2022-11-15 11:10:50.8610,2.76,2.22,0.37,3.56
2022-11-15 11:10:50.8710,3.04,1.02,-0.98,3.35
2022-11-15 11:10:50.8810,2.46,0.34,-1.28,2.79
2022-11-15 11:10:50.8910,1.68,0.5,-0.58,1.84
2022-11-15 11:10:50.9060,0.76,0.95,0.37,1.27
2022-11-15 11:10:50.9110,-0.69,1.19,0.85,1.61
2022-11-15 11:10:50.9210,-2.39,1.11,0.75,2.73
2022-11-15 11:10:50.9310,-3.51,1.1,0.51,3.71
2022-11-15 11:10:50.9410,-3.95,1.05,0.52,4.12
2022-11-15 11:10:50.9510,-4.06,1.01,0.75,4.25
2022-11-15 11:10:50.9610,-4.58,1.1,1.39,4.91
2022-11-15 11:10:50.9710,-5.47,1.34,2.42,6.12
2022-11-15 11:10:50.9810,-5.95,1.82,2.97,6.89
2022-11-15 11:10:50.9910,-5.64,2.45,2.82,6.76
2022-11-15 11:10:51.0060,-4.89,2.65,2.2,5.98
2022-11-15 11:10:51.0110,-4.33,1.85,1.41,4.91
2022-11-15 11:10:51.0210,-4.38,0.29,0.85,4.47
2022-11-15 11:10:51.0310,-4.15,-0.74,1.01,4.33
2022-11-15 11:10:51.0410,-3.37,-0.85,1.97,3.99
2022-11-15 11:10:51.0510,-2.71,-0.82,2.89,4.04
2022-11-15 11:10:51.0620,-2.68,-1.0,2.86,4.04
2022-11-15 11:10:51.0720,-3.33,-1.31,2.02,4.1
2022-11-15 11:10:51.0820,-4.3,-1.51,1.39,4.76
2022-11-15 11:10:51.0920,-5.21,-1.24,0.82,5.41
2022-11-15 11:10:51.1070,-5.92,-0.68,0.39,5.97
2022-11-15 11:10:51.1110,-6.48,-0.29,0.41,6.49
2022-11-15 11:10:51.1210,-6.48,-0.12,0.7,6.51
2022-11-15 11:10:51.1320,-6.1,-0.04,1.21,6.21
2022-11-15 11:10:51.1410,-6.09,-0.28,2.17,6.47
2022-11-15 11:10:51.1520,-6.35,-1.21,3.22,7.22
2022-11-15 11:10:51.1620,-6.2,-3.13,3.35,7.71
2022-11-15 11:10:51.1720,-5.44,-5.07,2.9,7.98
2022-11-15 11:10:51.1820,-4.4,-5.92,2.74,7.86
2022-11-15 11:10:51.1920,-3.24,-6.17,2.77,7.49
2022-11-15 11:10:51.2080,-1.87,-5.64,2.7,6.52
2022-11-15 11:10:51.2110,0.23,-4.05,2.35,4.68
2022-11-15 11:10:51.2220,1.66,-3.1,1.62,3.87
2022-11-15 11:10:51.2320,1.86,-3.91,0.31,4.34
2022-11-15 11:10:51.2420,1.35,-5.8,-1.3,6.09
2022-11-15 11:10:51.2520,1.52,-7.72,-2.59,8.28
2022-11-15 11:10:51.2620,2.49,-9.27,-3.92,10.36
2022-11-15 11:10:51.2720,3.36,-10.38,-4.65,11.85
2022-11-15 11:10:51.2820,3.92,-10.7,-3.59,11.94
2022-11-15 11:10:51.2920,3.88,-9.4,-1.32,10.25
2022-11-15 11:10:51.3060,2.97,-7.12,0.69,7.74
2022-11-15 11:10:51.3120,1.55,-5.12,2.1,5.74
2022-11-15 11:10:51.3220,0.26,-3.44,3.32,4.78
2022-11-15 11:10:51.3320,-0.77,-1.93,3.55,4.11
2022-11-15 11:10:51.3420,-1.32,-0.62,2.39,2.79
2022-11-15 11:10:51.3520,-1.32,0.29,0.75,1.54
2022-11-15 11:10:51.3620,-1.1,1.12,-1.17,1.95
2022-11-15 11:10:51.3720,-0.63,1.92,-3.26,3.83
2022-11-15 11:10:51.3820,0.02,2.73,-4.69,5.42
2022-11-15 11:10:51.3920,0.72,3.7,-5.07,6.31
2022-11-15 11:10:51.4070,1.48,4.77,-4.8,6.92
2022-11-15 11:10:51.4120,2.22,5.72,-4.6,7.66
2022-11-15 11:10:51.4220,2.84,6.29,-4.71,8.35
2022-11-15 11:10:51.4330,3.38,6.62,-5.02,8.96
2022-11-15 11:10:51.4430,3.76,6.91,-5.21,9.43
2022-11-15 11:10:51.4520,4.06,7.15,-5.43,9.85
2022-11-15 11:10:51.4630,4.32,7.33,-5.69,10.23
2022-11-15 11:10:51.4720,4.58,7.39,-5.87,10.49
2022-11-15 11:10:51.4820,4.89,7.27,-6.0,10.61
2022-11-15 11:10:51.4920,5.3,7.18,-6.09,10.8
2022-11-15 11:10:51.5070,5.9,7.1,-5.99,11.0
2022-11-15 11:10:51.5120,6.4,7.17,-5.31,10.98
2022-11-15 11:10:51.5230,7.06,7.33,-4.32,11.05
2022-11-15 11:10:51.5330,7.82,7.42,-3.33,11.28
2022-11-15 11:10:51.5420,8.47,7.18,-2.29,11.33
2022-11-15 11:10:51.5530,8.45,6.46,-1.42,10.73
2022-11-15 11:10:51.5630,7.0,4.88,-0.29,8.53
2022-11-15 11:10:51.5730,4.85,2.82,1.83,5.9
2022-11-15 11:10:51.5830,3.1,0.11,6.44,7.14
2022-11-15 11:10:51.5930,2.15,-4.25,14.7,15.45
2022-11-15 11:10:51.6070,-0.88,-12.44,24.78,27.74
2022-11-15 11:10:51.6120,-12.47,-18.39,14.42,26.48
2022-11-15 11:10:51.6230,-17.94,-17.55,6.97,26.04
2022-11-15 11:10:51.6330,-22.95,-16.27,3.6,28.36
2022-11-15 11:10:51.6430,-21.4,-9.74,-0.9,23.52
2022-11-15 11:10:51.6530,-11.78,0.19,0.53,11.79
2022-11-15 11:10:51.6630,-2.5,6.29,1.93,7.03
2022-11-15 11:10:51.6730,1.21,7.34,-1.7,7.63
2022-11-15 11:10:51.6830,3.18,5.89,-4.95,8.32
2022-11-15 11:10:51.6930,5.34,0.98,-4.23,6.88
2022-11-15 11:10:51.7070,7.94,-6.04,1.64,10.11
2022-11-15 11:10:51.7130,11.1,-14.29,11.36,21.36
2022-11-15 11:10:51.7230,5.39,-15.43,-1.86,16.44
2022-11-15 11:10:51.7340,4.03,-12.58,-7.93,15.4
2022-11-15 11:10:51.7430,5.91,-9.3,-4.16,11.77
2022-11-15 11:10:51.7530,5.65,-4.53,-2.79,7.76
2022-11-15 11:10:51.7640,4.85,-1.83,-4.67,6.97
2022-11-15 11:10:51.7730,4.74,-0.36,-6.83,8.32
2022-11-15 11:10:51.7840,4.87,0.58,-7.6,9.04
2022-11-15 11:10:51.7930,5.1,1.48,-7.17,8.92
2022-11-15 11:10:51.8090,5.4,2.3,-6.51,8.76
2022-11-15 11:10:51.8130,5.36,2.77,-5.78,8.35
2022-11-15 11:10:51.8240,4.79,2.83,-5.57,7.87
