time,ax,ay,az,atotal
2022-11-15 11:13:33.2990,-0.53,-0.49,0.0,0.72
2022-11-15 11:13:33.3010,-0.66,-0.53,-0.58,1.02
2022-11-15 11:13:33.3170,-0.71,-0.37,-1.08,1.34
2022-11-15 11:13:33.3190,-0.67,-0.31,-1.24,1.44
2022-11-15 11:13:33.3310,-0.41,-0.34,-1.18,1.29
2022-11-15 11:13:33.3330,-0.39,-0.47,-0.71,0.93
2022-11-15 11:13:33.3460,-0.24,-0.3,-0.21,0.43
2022-11-15 11:13:33.3480,-0.09,-0.17,0.36,0.4
2022-11-15 11:13:33.3630,0.03,-0.41,0.93,1.01
2022-11-15 11:13:33.3650,0.35,-0.61,0.86,1.11
2022-11-15 11:13:33.3800,0.49,-0.58,0.7,1.03
2022-11-15 11:13:33.3820,0.32,-0.61,0.31,0.75
2022-11-15 11:13:33.3980,0.07,-0.68,-0.36,0.77
2022-11-15 11:13:33.4000,0.09,-0.33,-0.61,0.69
2022-11-15 11:13:33.4140,0.19,0.03,-0.12,0.22
2022-11-15 11:13:33.4150,0.38,0.03,0.74,0.83
2022-11-15 11:13:33.4300,0.47,-0.13,1.68,1.74
2022-11-15 11:13:33.4330,0.53,-0.2,2.27,2.33
2022-11-15 11:13:33.4450,0.76,-0.27,2.42,2.55
2022-11-15 11:13:33.4490,0.85,-0.6,2.23,2.46
2022-11-15 11:13:33.4620,0.8,-1.02,2.01,2.39
2022-11-15 11:13:33.4640,0.26,-1.49,1.5,2.13
2022-11-15 11:13:33.4820,-0.72,-1.75,1.05,2.16
2022-11-15 11:13:33.4830,-0.81,-1.23,1.11,1.84
2022-11-15 11:13:33.4970,-0.67,-0.49,1.05,1.33
2022-11-15 11:13:33.4990,-0.56,-0.06,0.73,0.92
2022-11-15 11:13:33.5120,-0.5,-0.09,0.46,0.68
2022-11-15 11:13:33.5150,-0.54,-0.44,0.3,0.75
2022-11-15 11:13:33.5300,-0.58,-0.71,0.06,0.91
2022-11-15 11:13:33.5330,-0.71,-0.84,0.0,1.09
2022-11-15 11:13:33.5450,-0.79,-0.67,0.01,1.03
2022-11-15 11:13:33.5470,-0.57,-0.04,-0.3,0.64
2022-11-15 11:13:33.5650,-0.67,0.64,-0.95,1.32
2022-11-15 11:13:33.5670,-0.53,1.4,-1.43,2.07
2022-11-15 11:13:33.5800,-0.18,1.84,-1.09,2.14
2022-11-15 11:13:33.5820,0.03,1.57,-0.34,1.6
2022-11-15 11:13:33.5970,0.08,0.74,-0.05,0.74
2022-11-15 11:13:33.6000,-0.06,-0.03,0.03,0.07
2022-11-15 11:13:33.6120,-0.11,-0.35,-0.2,0.41
2022-11-15 11:13:33.6150,0.1,-0.36,-0.6,0.7
2022-11-15 11:13:33.6280,0.36,-0.27,-0.92,1.02
2022-11-15 11:13:33.6300,0.33,-0.02,-1.25,1.29
2022-11-15 11:13:33.6480,0.27,0.4,-1.35,1.43
2022-11-15 11:13:33.6500,0.59,0.85,-1.08,1.49
2022-11-15 11:13:33.6640,0.98,1.06,-0.41,1.5
2022-11-15 11:13:33.6660,1.21,1.02,0.15,1.58
2022-11-15 11:13:33.6800,1.32,1.03,0.35,1.71
2022-11-15 11:13:33.6830,1.36,1.28,0.62,1.96
2022-11-15 11:13:33.6960,1.42,1.68,0.78,2.33
2022-11-15 11:13:33.7000,1.6,2.07,0.66,2.69
2022-11-15 11:13:33.7110,2.03,2.52,0.74,3.31
2022-11-15 11:13:33.7140,2.33,2.89,1.3,3.93
2022-11-15 11:13:33.7310,2.38,2.84,1.7,4.07
2022-11-15 11:13:33.7330,2.19,2.39,1.83,3.72
2022-11-15 11:13:33.7480,1.7,1.82,1.67,2.99
2022-11-15 11:13:33.7510,1.24,1.53,1.35,2.38
2022-11-15 11:13:33.7640,1.01,1.53,1.09,2.13
2022-11-15 11:13:33.7660,0.64,1.63,0.93,1.98
2022-11-15 11:13:33.7800,0.28,1.85,0.7,1.99
2022-11-15 11:13:33.7820,0.01,1.93,0.42,1.97
2022-11-15 11:13:33.7950,-0.32,1.59,0.42,1.67
2022-11-15 11:13:33.7970,-0.55,0.93,0.65,1.26
2022-11-15 11:13:33.8150,-0.63,0.45,0.29,0.82
2022-11-15 11:13:33.8160,-0.63,0.11,-0.03,0.64
2022-11-15 11:13:33.8300,-0.66,-0.29,-0.43,0.83
2022-11-15 11:13:33.8330,-0.6,-0.77,-0.57,1.13
2022-11-15 11:13:33.8470,-0.65,-1.24,-0.55,1.5
2022-11-15 11:13:33.8500,-0.69,-1.65,-0.62,1.89
2022-11-15 11:13:33.8620,-0.61,-2.07,-0.77,2.29
2022-11-15 11:13:33.8640,-0.74,-2.54,-0.84,2.77
2022-11-15 11:13:33.8800,-1.08,-2.82,-1.11,3.21
2022-11-15 11:13:33.8820,-1.11,-2.64,-1.74,3.35
2022-11-15 11:13:33.8980,-0.88,-2.22,-1.83,3.0
2022-11-15 11:13:33.9000,-0.68,-1.91,-1.38,2.45
2022-11-15 11:13:33.9130,-0.54,-1.77,-0.79,2.01
2022-11-15 11:13:33.9150,-0.59,-1.76,-0.34,1.88
2022-11-15 11:13:33.9300,-0.82,-1.89,-0.24,2.07
2022-11-15 11:13:33.9330,-1.17,-2.3,-0.26,2.59
2022-11-15 11:13:33.9450,-1.43,-2.61,-0.52,3.02
2022-11-15 11:13:33.9480,-1.6,-2.6,-1.15,3.26
2022-11-15 11:13:33.9610,-1.75,-2.37,-1.94,3.52
2022-11-15 11:13:33.9640,-1.89,-1.99,-2.49,3.7
2022-11-15 11:13:33.9810,-1.9,-1.68,-2.7,3.7
2022-11-15 11:13:33.9830,-1.76,-1.55,-2.51,3.43
2022-11-15 11:13:33.9970,-1.68,-1.25,-2.54,3.29
2022-11-15 11:13:33.9990,-1.39,-1.13,-2.5,3.07
2022-11-15 11:13:34.0130,-1.09,-1.01,-2.3,2.73
2022-11-15 11:13:34.0160,-0.94,-0.82,-2.03,2.38
2022-11-15 11:13:34.0300,-0.89,-0.88,-1.68,2.09
2022-11-15 11:13:34.0330,-0.86,-1.13,-1.61,2.14
2022-11-15 11:13:34.0450,-0.88,-1.05,-2.01,2.43
2022-11-15 11:13:34.0470,-0.76,-0.82,-2.2,2.46
2022-11-15 11:13:34.0650,-0.51,-0.66,-2.18,2.33
2022-11-15 11:13:34.0670,-0.23,-0.42,-2.09,2.14
2022-11-15 11:13:34.0810,0.0,-0.38,-1.46,1.5
2022-11-15 11:13:34.0830,0.1,-0.74,-0.7,1.02
2022-11-15 11:13:34.0970,0.12,-1.27,-0.09,1.27
2022-11-15 11:13:34.1000,-0.26,-2.02,0.6,2.12
2022-11-15 11:13:34.1140,-1.24,-3.08,1.19,3.52
2022-11-15 11:13:34.1160,-2.51,-4.16,1.54,5.09
2022-11-15 11:13:34.1280,-2.4,-3.56,1.38,4.5
2022-11-15 11:13:34.1300,-1.54,-1.89,0.94,2.61
2022-11-15 11:13:34.1480,-1.14,-0.99,1.72,2.28
2022-11-15 11:13:34.1500,-0.69,-0.39,2.82,2.92
2022-11-15 11:13:34.1650,0.0,0.46,3.41,3.44
2022-11-15 11:13:34.1670,0.67,1.23,3.45,3.72
2022-11-15 11:13:34.1800,0.99,1.35,3.52,3.89
2022-11-15 11:13:34.1830,0.94,0.94,3.81,4.03
2022-11-15 11:13:34.1950,1.09,0.59,4.14,4.32
2022-11-15 11:13:34.1980,0.94,0.72,3.57,3.76
2022-11-15 11:13:34.2110,0.4,1.08,2.52,2.77
2022-11-15 11:13:34.2130,-0.11,1.27,1.42,1.9
2022-11-15 11:13:34.2320,-0.62,1.35,-0.2,1.49
2022-11-15 11:13:34.2330,-1.24,1.48,-1.65,2.53
2022-11-15 11:13:34.2480,-1.47,1.37,-2.56,3.25
2022-11-15 11:13:34.2500,-1.47,0.89,-3.02,3.47
2022-11-15 11:13:34.2640,-1.34,0.23,-2.74,3.05
2022-11-15 11:13:34.2660,-0.54,-0.51,-1.84,1.98
2022-11-15 11:13:34.2790,0.57,-1.27,-1.05,1.74
2022-11-15 11:13:34.2820,1.24,-2.01,0.06,2.36
2022-11-15 11:13:34.2950,1.72,-2.27,0.97,3.0
2022-11-15 11:13:34.2970,1.63,-1.76,0.44,2.43
2022-11-15 11:13:34.3150,1.2,-0.62,-0.67,1.5
2022-11-15 11:13:34.3170,0.59,0.35,-1.22,1.39
2022-11-15 11:13:34.3310,0.32,0.78,-0.91,1.24
2022-11-15 11:13:34.3330,0.57,1.24,-0.16,1.37
2022-11-15 11:13:34.3470,1.32,1.72,0.89,2.34
2022-11-15 11:13:34.3500,2.02,1.58,2.52,3.59
2022-11-15 11:13:34.3620,2.75,0.67,4.44,5.26
2022-11-15 11:13:34.3640,3.32,0.55,5.78,6.68
2022-11-15 11:13:34.3800,3.36,1.53,5.33,6.48
2022-11-15 11:13:34.3820,2.68,2.61,3.71,5.26
2022-11-15 11:13:34.3980,1.97,3.59,2.5,4.79
2022-11-15 11:13:34.4000,1.76,4.37,2.62,5.39
2022-11-15 11:13:34.4140,2.06,4.86,3.33,6.24
2022-11-15 11:13:34.4170,2.44,4.73,4.51,6.97
2022-11-15 11:13:34.4300,2.97,4.23,5.37,7.45
2022-11-15 11:13:34.4330,3.42,4.11,5.06,7.36
2022-11-15 11:13:34.4470,3.81,4.09,5.12,7.58
2022-11-15 11:13:34.4500,4.22,3.69,5.61,7.93
2022-11-15 11:13:34.4620,4.4,3.21,5.27,7.57
2022-11-15 11:13:34.4640,4.14,2.88,4.3,6.62
2022-11-15 11:13:34.4810,3.37,2.67,2.96,5.21
2022-11-15 11:13:34.4830,2.68,2.31,2.11,4.11
2022-11-15 11:13:34.4970,3.48,2.24,1.63,4.44
2022-11-15 11:13:34.4990,3.58,2.22,2.05,4.68
2022-11-15 11:13:34.5140,3.41,1.83,2.06,4.38
2022-11-15 11:13:34.5160,3.48,1.32,1.83,4.14
2022-11-15 11:13:34.5310,3.47,0.86,2.51,4.36
2022-11-15 11:13:34.5340,3.59,0.61,2.71,4.53
2022-11-15 11:13:34.5450,3.34,0.31,2.02,3.91
2022-11-15 11:13:34.5470,2.95,-0.15,1.09,3.14
2022-11-15 11:13:34.5650,2.59,-0.66,0.39,2.7
2022-11-15 11:13:34.5670,2.11,-0.96,0.17,2.32
2022-11-15 11:13:34.5800,1.76,-1.37,0.95,2.42
2022-11-15 11:13:34.5820,1.52,-1.93,0.79,2.58
2022-11-15 11:13:34.5970,1.37,-2.06,0.43,2.51
2022-11-15 11:13:34.6000,1.08,-1.99,0.58,2.33
2022-11-15 11:13:34.6140,0.32,-1.96,-0.42,2.02
2022-11-15 11:13:34.6170,-0.09,-2.02,-1.15,2.32
2022-11-15 11:13:34.6280,-0.61,-1.83,-2.04,2.8
2022-11-15 11:13:34.6300,-1.1,-1.83,-2.03,2.94
2022-11-15 11:13:34.6480,-1.26,-1.94,-1.7,2.87
2022-11-15 11:13:34.6500,-1.14,-1.98,-1.3,2.62
2022-11-15 11:13:34.6640,-0.91,-1.89,-0.84,2.25
2022-11-15 11:13:34.6650,-0.94,-1.94,-0.68,2.26
2022-11-15 11:13:34.6800,-1.05,-2.0,-0.34,2.28
2022-11-15 11:13:34.6830,-1.17,-2.04,0.42,2.38
2022-11-15 11:13:34.6950,-1.33,-2.23,0.75,2.7
2022-11-15 11:13:34.6990,-1.51,-2.28,0.7,2.82
2022-11-15 11:13:34.7110,-1.51,-2.09,0.65,2.65
2022-11-15 11:13:34.7130,-1.63,-2.0,0.18,2.58
2022-11-15 11:13:34.7310,-1.8,-1.95,-0.53,2.7
2022-11-15 11:13:34.7330,-1.91,-1.89,-1.2,2.94
2022-11-15 11:13:34.7480,-2.08,-1.9,-1.08,3.01
2022-11-15 11:13:34.7510,-2.07,-1.9,-0.52,2.85
2022-11-15 11:13:34.7620,-1.7,-1.88,0.08,2.53
2022-11-15 11:13:34.7650,-1.25,-1.86,0.61,2.32
2022-11-15 11:13:34.7800,-1.05,-1.63,0.62,2.03
2022-11-15 11:13:34.7820,-1.03,-1.05,0.02,1.47
2022-11-15 11:13:34.7950,-1.75,-1.22,0.34,2.16
2022-11-15 11:13:34.7970,-2.47,-1.44,0.7,2.94
2022-11-15 11:13:34.8150,-2.7,-1.56,0.68,3.19
2022-11-15 11:13:34.8170,-2.63,-1.76,0.55,3.21
2022-11-15 11:13:34.8300,-2.24,-1.74,0.42,2.86
2022-11-15 11:13:34.8320,-1.98,-1.47,0.14,2.46
2022-11-15 11:13:34.8470,-1.65,-1.15,0.06,2.01
2022-11-15 11:13:34.8500,-0.63,-0.53,0.58,1.0
2022-11-15 11:13:34.8620,-0.34,0.0,0.81,0.87
2022-11-15 11:13:34.8650,-0.36,0.22,0.99,1.07
2022-11-15 11:13:34.8780,-1.17,-0.13,0.62,1.33
2022-11-15 11:13:34.8800,-1.66,-0.75,-0.19,1.83
2022-11-15 11:13:34.8980,-1.79,-1.31,-0.9,2.39
2022-11-15 11:13:34.9000,-1.7,-1.63,-1.1,2.59
2022-11-15 11:13:34.9130,-1.38,-1.74,-0.43,2.26
2022-11-15 11:13:34.9150,-1.3,-1.62,0.37,2.1
2022-11-15 11:13:34.9310,-1.56,-1.3,0.87,2.2
2022-11-15 11:13:34.9340,-1.75,-1.09,1.03,2.3
2022-11-15 11:13:34.9470,-1.94,-0.64,0.8,2.19
2022-11-15 11:13:34.9500,-1.59,-0.56,0.05,1.68
2022-11-15 11:13:34.9610,-1.04,-0.67,-0.73,1.43
2022-11-15 11:13:34.9630,-0.86,-0.67,-1.22,1.63
2022-11-15 11:13:34.9810,-0.79,-0.49,-1.33,1.62
2022-11-15 11:13:34.9830,-1.06,-0.02,-1.18,1.58
2022-11-15 11:13:34.9970,-1.18,0.59,-1.26,1.82
2022-11-15 11:13:34.9990,-1.29,1.19,-1.39,2.23
2022-11-15 11:13:35.0140,-1.27,1.6,-1.45,2.5
2022-11-15 11:13:35.0160,-1.03,1.74,-1.41,2.46
2022-11-15 11:13:35.0300,-0.76,1.85,-0.93,2.2
2022-11-15 11:13:35.0330,-0.02,1.56,-0.29,1.58
2022-11-15 11:13:35.0450,-0.34,0.81,0.65,1.09
2022-11-15 11:13:35.0470,-1.07,-0.25,1.58,1.92
2022-11-15 11:13:35.0650,-1.24,-1.23,1.68,2.42
2022-11-15 11:13:35.0670,-1.01,-1.97,1.33,2.58
2022-11-15 11:13:35.0810,-0.79,-2.1,1.02,2.46
2022-11-15 11:13:35.0850,-1.0,-1.52,0.88,2.02
2022-11-15 11:13:35.0950,-1.3,-0.57,0.85,1.65
2022-11-15 11:13:35.0980,-1.04,0.24,0.65,1.24
2022-11-15 11:13:35.1130,-0.5,0.62,0.22,0.82
2022-11-15 11:13:35.1160,-0.22,0.71,-0.08,0.74
2022-11-15 11:13:35.1280,-0.32,0.58,-0.18,0.68
2022-11-15 11:13:35.1300,-0.4,0.25,-0.23,0.52
2022-11-15 11:13:35.1480,-0.35,-0.11,-0.29,0.46
2022-11-15 11:13:35.1500,-0.4,-0.47,-0.22,0.65
2022-11-15 11:13:35.1650,-0.65,-0.67,0.21,0.95
2022-11-15 11:13:35.1670,-0.74,-0.4,0.64,1.05
2022-11-15 11:13:35.1800,-0.23,0.19,0.77,0.82
2022-11-15 11:13:35.1830,0.51,0.74,0.61,1.08
2022-11-15 11:13:35.1950,0.78,0.99,0.26,1.28
2022-11-15 11:13:35.1980,0.76,0.8,-0.12,1.1
2022-11-15 11:13:35.2130,0.62,0.34,-0.36,0.79
2022-11-15 11:13:35.2150,0.27,-0.19,-0.54,0.63
2022-11-15 11:13:35.2310,-0.19,-0.63,-0.72,0.97
2022-11-15 11:13:35.2330,-0.44,-0.89,-0.93,1.36
2022-11-15 11:13:35.2480,-0.53,-0.9,-1.24,1.62
2022-11-15 11:13:35.2510,-0.47,-0.7,-1.77,1.96
2022-11-15 11:13:35.2630,-0.02,-0.36,-2.04,2.07
2022-11-15 11:13:35.2650,0.64,0.1,-1.8,1.91
2022-11-15 11:13:35.2800,0.98,0.42,-1.08,1.51
2022-11-15 11:13:35.2840,0.64,0.29,0.02,0.7
2022-11-15 11:13:35.2950,0.09,-0.21,0.52,0.56
2022-11-15 11:13:35.2970,-0.37,-0.75,0.4,0.92
2022-11-15 11:13:35.3150,-0.47,-0.89,0.02,1.0
2022-11-15 11:13:35.3160,-0.39,-0.69,-0.36,0.87
2022-11-15 11:13:35.3320,-0.09,-0.3,-0.59,0.66
2022-11-15 11:13:35.3350,0.5,0.16,-0.45,0.69
2022-11-15 11:13:35.3470,0.81,0.47,0.01,0.93
2022-11-15 11:13:35.3490,0.59,0.58,0.42,0.92
2022-11-15 11:13:35.3630,0.15,0.41,0.51,0.67
2022-11-15 11:13:35.3650,-0.03,0.08,0.32,0.33
2022-11-15 11:13:35.3780,-0.08,-0.23,0.09,0.25
2022-11-15 11:13:35.3800,-0.15,-0.31,0.07,0.35
2022-11-15 11:13:35.3980,-0.28,-0.24,0.34,0.5
2022-11-15 11:13:35.4000,-0.63,-0.32,1.28,1.46
2022-11-15 11:13:35.4130,-0.55,-0.38,2.27,2.36
2022-11-15 11:13:35.4150,0.13,-0.15,2.58,2.58
2022-11-15 11:13:35.4300,0.46,0.12,2.28,2.32
2022-11-15 11:13:35.4330,0.3,0.35,1.56,1.62
2022-11-15 11:13:35.4450,0.17,0.31,0.54,0.64
2022-11-15 11:13:35.4480,0.13,0.1,-0.54,0.56
2022-11-15 11:13:35.4610,0.04,-0.1,-1.27,1.27
2022-11-15 11:13:35.4630,0.05,-0.14,-1.69,1.69
2022-11-15 11:13:35.4810,0.26,-0.08,-1.73,1.75
2022-11-15 11:13:35.4830,0.5,0.03,-1.44,1.52
2022-11-15 11:13:35.4980,0.8,0.17,-1.01,1.29
2022-11-15 11:13:35.5010,0.83,0.24,-0.52,1.0
2022-11-15 11:13:35.5130,0.63,0.24,-0.27,0.72
2022-11-15 11:13:35.5150,0.46,0.17,-0.23,0.54
2022-11-15 11:13:35.5300,0.2,0.08,-0.34,0.4
2022-11-15 11:13:35.5330,-0.13,0.02,-0.53,0.54
2022-11-15 11:13:35.5450,-0.38,-0.06,-0.43,0.57
2022-11-15 11:13:35.5470,-0.29,-0.08,-0.29,0.41
2022-11-15 11:13:35.5640,-0.09,-0.04,-0.21,0.23
2022-11-15 11:13:35.5660,0.06,0.07,-0.06,0.11
2022-11-15 11:13:35.5810,0.24,0.32,0.17,0.43
2022-11-15 11:13:35.5820,0.3,0.62,0.27,0.73
2022-11-15 11:13:35.5960,0.18,0.76,0.34,0.85
2022-11-15 11:13:35.5980,-0.18,0.58,0.75,0.96
2022-11-15 11:13:35.6130,-0.45,0.23,1.0,1.12
2022-11-15 11:13:35.6160,-0.42,-0.07,0.89,0.98
2022-11-15 11:13:35.6290,-0.29,-0.21,0.65,0.74
2022-11-15 11:13:35.6310,-0.26,-0.17,0.29,0.42
2022-11-15 11:13:35.6470,-0.25,-0.01,-0.17,0.3
2022-11-15 11:13:35.6490,-0.09,0.15,-0.61,0.63
2022-11-15 11:13:35.6640,0.12,0.26,-0.87,0.91
2022-11-15 11:13:35.6660,0.24,0.34,-0.81,0.91
2022-11-15 11:13:35.6780,0.07,0.27,-0.57,0.63
2022-11-15 11:13:35.6800,-0.15,0.11,-0.39,0.43
2022-11-15 11:13:35.6950,-0.33,-0.01,-0.19,0.38
2022-11-15 11:13:35.6980,-0.4,-0.09,0.27,0.49
2022-11-15 11:13:35.7110,-0.2,-0.08,0.43,0.48
2022-11-15 11:13:35.7130,0.05,0.02,0.33,0.33
2022-11-15 11:13:35.7320,0.16,0.17,0.16,0.28
2022-11-15 11:13:35.7330,0.3,0.11,0.0,0.31
2022-11-15 11:13:35.7470,0.34,-0.21,-0.09,0.4
2022-11-15 11:13:35.7490,0.09,0.08,0.06,0.13
2022-11-15 11:13:35.7610,0.09,0.42,0.26,0.5
2022-11-15 11:13:35.7620,0.32,0.42,0.18,0.55
2022-11-15 11:13:35.7780,0.08,0.27,0.12,0.3
2022-11-15 11:13:35.7810,-0.25,0.05,0.2,0.32
2022-11-15 11:13:35.7950,-0.14,-0.18,0.03,0.23
2022-11-15 11:13:35.7970,-0.02,-0.33,-0.2,0.38
2022-11-15 11:13:35.8150,0.04,-0.28,-0.48,0.55
2022-11-15 11:13:35.8170,0.19,-0.1,-0.52,0.56
2022-11-15 11:13:35.8300,0.19,0.09,-0.28,0.35
2022-11-15 11:13:35.8320,0.01,0.19,-0.06,0.19
2022-11-15 11:13:35.8450,-0.2,0.14,0.42,0.48
2022-11-15 11:13:35.8470,-0.15,0.1,0.57,0.59
2022-11-15 11:13:35.8480,0.05,0.06,0.29,0.3
2022-11-15 11:13:35.8620,0.24,0.12,-0.1,0.28
2022-11-15 11:13:35.8720,0.46,0.34,-0.36,0.67
2022-11-15 11:13:35.8780,0.56,0.55,-0.28,0.83
2022-11-15 11:13:35.8800,0.56,0.66,-0.09,0.87
2022-11-15 11:13:35.8970,0.48,0.74,-0.08,0.88
2022-11-15 11:13:35.8990,0.27,0.72,-0.17,0.78
2022-11-15 11:13:35.9130,0.09,0.51,-0.28,0.58
2022-11-15 11:13:35.9140,0.08,0.31,-0.72,0.78
2022-11-15 11:13:35.9310,0.38,0.13,-0.91,0.99
2022-11-15 11:13:35.9330,0.43,-0.02,-0.75,0.86
2022-11-15 11:13:35.9460,0.36,-0.25,-0.3,0.53
2022-11-15 11:13:35.9560,0.26,-0.42,0.26,0.55
2022-11-15 11:13:35.9630,0.02,-0.46,0.67,0.81
2022-11-15 11:13:35.9650,-0.02,-0.46,0.73,0.86
2022-11-15 11:13:35.9800,-0.06,-0.39,0.55,0.67
2022-11-15 11:13:35.9820,-0.15,-0.3,0.43,0.54
2022-11-15 11:13:35.9940,-0.04,-0.16,0.34,0.37
2022-11-15 11:13:35.9960,0.01,0.01,0.27,0.27
2022-11-15 11:13:36.0130,-0.12,0.05,0.06,0.14
2022-11-15 11:13:36.0160,-0.18,-0.03,-0.23,0.29
2022-11-15 11:13:36.0310,-0.19,-0.21,-0.4,0.49
2022-11-15 11:13:36.0420,-0.24,-0.48,-0.4,0.66
2022-11-15 11:13:36.0450,-0.27,-0.65,-0.55,0.89
2022-11-15 11:13:36.0470,-0.17,-0.71,-0.75,1.04
2022-11-15 11:13:36.0640,0.05,-0.67,-0.79,1.03
2022-11-15 11:13:36.0660,0.21,-0.55,-0.65,0.87
2022-11-15 11:13:36.0790,0.18,-0.39,-0.44,0.61
2022-11-15 11:13:36.0810,0.06,-0.27,-0.28,0.39
2022-11-15 11:13:36.0960,-0.06,-0.17,-0.11,0.21
2022-11-15 11:13:36.0980,-0.16,-0.09,0.06,0.19
2022-11-15 11:13:36.1130,-0.17,-0.07,0.32,0.36
2022-11-15 11:13:36.1260,-0.23,-0.12,0.65,0.69
2022-11-15 11:13:36.1280,-0.32,-0.16,0.75,0.83
2022-11-15 11:13:36.1480,-0.32,-0.1,0.52,0.61
2022-11-15 11:13:36.1500,-0.22,0.1,0.07,0.25
2022-11-15 11:13:36.1630,-0.07,0.31,-0.32,0.45
2022-11-15 11:13:36.1660,0.13,0.52,-0.53,0.75
2022-11-15 11:13:36.1800,0.18,0.66,-0.45,0.81
2022-11-15 11:13:36.1830,0.14,0.65,-0.19,0.69
2022-11-15 11:13:36.1950,0.02,0.49,0.03,0.49
2022-11-15 11:13:36.1980,-0.12,0.25,0.16,0.32
2022-11-15 11:13:36.2110,-0.18,0.01,0.25,0.3
2022-11-15 11:13:36.2130,-0.25,-0.17,0.26,0.39
2022-11-15 11:13:36.2310,-0.25,-0.27,0.17,0.4
2022-11-15 11:13:36.2330,-0.17,-0.25,0.06,0.3
2022-11-15 11:13:36.2470,-0.15,-0.12,0.04,0.19
2022-11-15 11:13:36.2490,-0.17,0.03,0.06,0.18
2022-11-15 11:13:36.2630,0.02,0.21,0.04,0.21
2022-11-15 11:13:36.2660,0.05,0.32,0.04,0.32
2022-11-15 11:13:36.2800,0.04,0.41,0.07,0.41
2022-11-15 11:13:36.2830,-0.01,0.43,0.09,0.43
2022-11-15 11:13:36.2950,-0.03,0.33,0.14,0.35
2022-11-15 11:13:36.2970,-0.01,0.18,0.19,0.26
2022-11-15 11:13:36.3140,-0.04,0.02,0.17,0.17
2022-11-15 11:13:36.3160,-0.13,-0.17,0.12,0.24
2022-11-15 11:13:36.3300,-0.22,-0.35,0.03,0.41
2022-11-15 11:13:36.3320,-0.21,-0.49,-0.05,0.53
2022-11-15 11:13:36.3470,-0.15,-0.55,-0.14,0.58
2022-11-15 11:13:36.3500,-0.11,-0.52,-0.2,0.56
2022-11-15 11:13:36.3630,-0.09,-0.35,-0.17,0.39
2022-11-15 11:13:36.3660,-0.02,-0.15,-0.1,0.18
2022-11-15 11:13:36.3780,0.01,0.0,0.01,0.01
2022-11-15 11:13:36.3800,0.0,0.05,0.15,0.15
2022-11-15 11:13:36.3980,-0.05,0.0,0.28,0.28
2022-11-15 11:13:36.4000,-0.11,-0.09,0.33,0.35
2022-11-15 11:13:36.4130,-0.15,-0.16,0.25,0.33
2022-11-15 11:13:36.4150,-0.15,-0.17,0.09,0.24
2022-11-15 11:13:36.4300,-0.1,-0.1,-0.09,0.16
2022-11-15 11:13:36.4340,-0.01,-0.02,-0.21,0.21
2022-11-15 11:13:36.4460,0.01,0.05,-0.27,0.27
2022-11-15 11:13:36.4480,0.0,0.06,-0.29,0.29
2022-11-15 11:13:36.4630,-0.05,0.04,-0.26,0.26
2022-11-15 11:13:36.4650,-0.12,0.01,-0.19,0.22
2022-11-15 11:13:36.4810,-0.11,0.0,-0.09,0.14
2022-11-15 11:13:36.4830,-0.08,0.0,0.03,0.08
2022-11-15 11:13:36.4970,-0.13,-0.03,0.1,0.16
2022-11-15 11:13:36.4990,-0.2,-0.07,0.01,0.21
2022-11-15 11:13:36.5130,-0.2,-0.09,-0.08,0.23
2022-11-15 11:13:36.5160,-0.19,-0.04,-0.18,0.26
2022-11-15 11:13:36.5300,-0.16,0.02,-0.26,0.3
2022-11-15 11:13:36.5330,-0.12,0.02,-0.32,0.34
2022-11-15 11:13:36.5460,-0.1,-0.02,-0.35,0.36
2022-11-15 11:13:36.5480,-0.09,-0.09,-0.34,0.36
2022-11-15 11:13:36.5650,-0.13,-0.12,-0.29,0.33
2022-11-15 11:13:36.5660,-0.13,-0.11,-0.16,0.23
2022-11-15 11:13:36.5800,-0.11,-0.12,0.0,0.16
2022-11-15 11:13:36.5820,-0.16,-0.22,0.22,0.34
2022-11-15 11:13:36.5960,-0.3,-0.35,0.38,0.59
2022-11-15 11:13:36.5980,-0.41,-0.38,0.38,0.67
2022-11-15 11:13:36.6120,-0.46,-0.33,0.31,0.64
2022-11-15 11:13:36.6150,-0.46,-0.19,0.15,0.51
2022-11-15 11:13:36.6280,-0.5,0.06,-0.08,0.5
2022-11-15 11:13:36.6300,-0.49,0.36,-0.24,0.65
2022-11-15 11:13:36.6480,-0.43,0.65,-0.22,0.8
2022-11-15 11:13:36.6500,-0.35,0.85,-0.13,0.92
2022-11-15 11:13:36.6640,-0.27,1.01,-0.01,1.04
2022-11-15 11:13:36.6670,-0.16,1.12,0.14,1.14
2022-11-15 11:13:36.6810,-0.03,1.17,0.3,1.2
2022-11-15 11:13:36.6830,0.11,1.18,0.44,1.26
2022-11-15 11:13:36.6970,0.14,1.12,0.65,1.3
2022-11-15 11:13:36.7000,0.1,1.01,0.9,1.35
2022-11-15 11:13:36.7120,0.07,0.82,1.06,1.34
2022-11-15 11:13:36.7140,0.02,0.55,1.1,1.23
2022-11-15 11:13:36.7310,-0.03,0.27,1.04,1.07
2022-11-15 11:13:36.7330,-0.08,0.01,0.86,0.86
2022-11-15 11:13:36.7500,-0.12,-0.21,0.53,0.58
2022-11-15 11:13:36.7520,-0.12,-0.34,0.08,0.36
2022-11-15 11:13:36.7540,-0.06,-0.35,-0.41,0.54
2022-11-15 11:13:36.7570,0.05,-0.26,-0.8,0.84
2022-11-15 11:13:36.7600,0.21,-0.11,-1.03,1.05
2022-11-15 11:13:36.7610,0.31,0.03,-1.16,1.2
2022-11-15 11:13:36.7790,0.44,0.1,-1.19,1.27
2022-11-15 11:13:36.7810,0.56,0.09,-1.14,1.27
2022-11-15 11:13:36.7970,0.53,-0.06,-1.01,1.14
2022-11-15 11:13:36.7990,0.41,-0.28,-0.86,0.99
2022-11-15 11:13:36.8130,0.33,-0.44,-0.84,1.0
2022-11-15 11:13:36.8150,0.33,-0.52,-1.0,1.17
2022-11-15 11:13:36.8300,0.48,-0.45,-1.02,1.21
2022-11-15 11:13:36.8330,0.73,-0.28,-0.88,1.17
2022-11-15 11:13:36.8470,0.75,-0.23,-0.72,1.06
2022-11-15 11:13:36.8490,0.76,-0.27,-0.52,0.95
2022-11-15 11:13:36.8620,0.81,-0.38,-0.25,0.92
2022-11-15 11:13:36.8640,0.61,-0.62,0.02,0.87
2022-11-15 11:13:36.8810,0.38,-0.86,0.22,0.96
2022-11-15 11:13:36.8830,0.32,-1.04,0.36,1.14
2022-11-15 11:13:36.8980,0.28,-1.14,0.39,1.23
2022-11-15 11:13:36.9000,0.28,-1.13,0.24,1.18
2022-11-15 11:13:36.9130,0.33,-0.99,-0.01,1.04
2022-11-15 11:13:36.9150,0.43,-0.85,-0.22,0.97
2022-11-15 11:13:36.9300,0.53,-0.76,-0.23,0.95
2022-11-15 11:13:36.9330,0.55,-0.74,-0.12,0.92
2022-11-15 11:13:36.9450,0.48,-0.77,0.01,0.9
2022-11-15 11:13:36.9470,0.42,-0.77,0.07,0.87
2022-11-15 11:13:36.9640,0.35,-0.81,0.05,0.88
2022-11-15 11:13:36.9660,0.18,-0.88,0.04,0.89
2022-11-15 11:13:36.9810,0.07,-0.94,0.12,0.95
2022-11-15 11:13:36.9830,0.17,-0.91,0.16,0.93
2022-11-15 11:13:36.9950,0.17,-0.87,0.17,0.9
2022-11-15 11:13:36.9980,0.02,-0.84,0.04,0.84
2022-11-15 11:13:37.0140,-0.07,-0.68,-0.14,0.69
2022-11-15 11:13:37.0160,0.03,-0.41,-0.24,0.47
2022-11-15 11:13:37.0280,0.19,-0.13,-0.29,0.37
2022-11-15 11:13:37.0300,0.32,0.08,-0.31,0.45
2022-11-15 11:13:37.0480,0.46,0.2,-0.25,0.56
2022-11-15 11:13:37.0500,0.54,0.21,-0.06,0.58
2022-11-15 11:13:37.0650,0.38,0.03,0.19,0.42
2022-11-15 11:13:37.0670,0.11,-0.23,0.29,0.38
2022-11-15 11:13:37.0810,-0.02,-0.35,0.25,0.43
2022-11-15 11:13:37.0830,0.03,-0.23,0.19,0.29
2022-11-15 11:13:37.0970,0.12,-0.02,0.08,0.14
2022-11-15 11:13:37.1000,0.19,0.17,0.0,0.25
2022-11-15 11:13:37.1120,0.16,0.22,-0.04,0.27
2022-11-15 11:13:37.1140,0.12,0.15,-0.12,0.22
2022-11-15 11:13:37.1310,0.2,0.08,-0.2,0.29
2022-11-15 11:13:37.1330,0.27,0.05,-0.21,0.34
2022-11-15 11:13:37.1480,0.28,0.09,-0.11,0.31
2022-11-15 11:13:37.1510,0.14,0.09,0.06,0.17
2022-11-15 11:13:37.1640,-0.1,0.0,0.23,0.25
2022-11-15 11:13:37.1670,-0.27,-0.06,0.32,0.42
2022-11-15 11:13:37.1790,-0.21,-0.03,0.31,0.37
2022-11-15 11:13:37.1820,-0.04,0.04,0.22,0.22
2022-11-15 11:13:37.1950,0.12,0.11,0.08,0.18
2022-11-15 11:13:37.1970,0.22,0.16,0.05,0.27
2022-11-15 11:13:37.2140,0.11,0.12,0.03,0.16
2022-11-15 11:13:37.2160,-0.04,0.01,-0.07,0.08
2022-11-15 11:13:37.2320,-0.22,-0.15,-0.18,0.32
2022-11-15 11:13:37.2350,-0.31,-0.22,-0.34,0.51
2022-11-15 11:13:37.2450,-0.24,-0.13,-0.38,0.46
2022-11-15 11:13:37.2470,-0.24,-0.02,-0.28,0.36
2022-11-15 11:13:37.2640,-0.21,0.07,-0.15,0.26
2022-11-15 11:13:37.2670,-0.11,0.12,-0.11,0.19
2022-11-15 11:13:37.2790,0.05,0.1,-0.1,0.15
2022-11-15 11:13:37.2810,0.13,0.0,-0.16,0.2
2022-11-15 11:13:37.2980,0.08,-0.17,-0.14,0.23
2022-11-15 11:13:37.3000,0.05,-0.35,-0.08,0.36
2022-11-15 11:13:37.3140,0.07,-0.49,-0.06,0.49
2022-11-15 11:13:37.3150,0.04,-0.52,0.06,0.52
2022-11-15 11:13:37.3300,-0.05,-0.46,0.26,0.53
2022-11-15 11:13:37.3340,-0.06,-0.29,0.43,0.52
2022-11-15 11:13:37.3460,-0.03,-0.05,0.62,0.62
2022-11-15 11:13:37.3480,-0.01,0.15,0.73,0.74
2022-11-15 11:13:37.3610,0.06,0.28,0.67,0.72
2022-11-15 11:13:37.3630,0.1,0.29,0.48,0.56
2022-11-15 11:13:37.3810,0.11,0.18,0.28,0.35
2022-11-15 11:13:37.3830,0.06,0.04,0.24,0.25
2022-11-15 11:13:37.3960,-0.03,-0.07,0.35,0.35
2022-11-15 11:13:37.3990,-0.09,-0.07,0.43,0.44
2022-11-15 11:13:37.4140,-0.07,0.06,0.43,0.43
2022-11-15 11:13:37.4160,0.01,0.21,0.33,0.39
2022-11-15 11:13:37.4280,-0.02,0.29,0.07,0.29
2022-11-15 11:13:37.4310,-0.04,0.26,-0.2,0.33
2022-11-15 11:13:37.4440,-0.06,0.26,-0.41,0.48
2022-11-15 11:13:37.4460,-0.13,0.3,-0.5,0.59
2022-11-15 11:13:37.4650,-0.17,0.38,-0.4,0.57
2022-11-15 11:13:37.4680,-0.14,0.42,-0.06,0.44
2022-11-15 11:13:37.4790,-0.04,0.38,0.46,0.59
2022-11-15 11:13:37.4810,0.0,0.27,0.87,0.91
2022-11-15 11:13:37.4960,-0.09,0.05,0.96,0.96
2022-11-15 11:13:37.4980,-0.16,-0.19,0.76,0.79
2022-11-15 11:13:37.5140,-0.17,-0.29,0.28,0.43
2022-11-15 11:13:37.5160,-0.11,-0.29,-0.23,0.38
2022-11-15 11:13:37.5280,-0.13,-0.18,-0.6,0.63
2022-11-15 11:13:37.5300,-0.19,-0.04,-0.78,0.8
2022-11-15 11:13:37.5480,-0.03,0.05,-0.67,0.67
2022-11-15 11:13:37.5490,-0.12,0.12,-0.4,0.43
2022-11-15 11:13:37.5630,-0.22,0.14,-0.19,0.32
2022-11-15 11:13:37.5650,0.13,0.2,-0.42,0.48
2022-11-15 11:13:37.5800,0.49,0.36,0.23,0.65
2022-11-15 11:13:37.5830,0.27,0.32,0.84,0.93
2022-11-15 11:13:37.5970,-0.01,0.14,0.96,0.97
2022-11-15 11:13:37.6000,0.06,0.07,0.7,0.7
2022-11-15 11:13:37.6120,0.17,0.07,0.52,0.55
2022-11-15 11:13:37.6140,-0.07,-0.03,0.25,0.26
2022-11-15 11:13:37.6310,0.02,-0.06,-0.3,0.3
2022-11-15 11:13:37.6330,0.19,0.0,-0.54,0.57
2022-11-15 11:13:37.6470,-0.15,-0.09,-0.44,0.47
2022-11-15 11:13:37.6480,-0.31,-0.24,-0.2,0.44
2022-11-15 11:13:37.6640,-0.31,-0.39,0.1,0.5
2022-11-15 11:13:37.6660,-0.48,-0.51,0.36,0.78
2022-11-15 11:13:37.6790,-0.61,-0.56,0.38,0.91
2022-11-15 11:13:37.6810,-0.53,-0.58,0.18,0.8
2022-11-15 11:13:37.6950,-0.41,-0.5,-0.02,0.64
2022-11-15 11:13:37.6970,-0.33,-0.42,0.14,0.55
2022-11-15 11:13:37.7140,-0.25,-0.37,0.18,0.48
2022-11-15 11:13:37.7160,-0.26,-0.22,-0.12,0.36
2022-11-15 11:13:37.7300,-0.35,0.0,-0.47,0.58
2022-11-15 11:13:37.7320,-0.43,0.28,-0.85,0.99
2022-11-15 11:13:37.7470,-0.33,0.41,-1.27,1.37
2022-11-15 11:13:37.7500,-0.14,0.12,-1.56,1.57
2022-11-15 11:13:37.7630,-0.3,-0.56,-1.59,1.71
2022-11-15 11:13:37.7660,-0.62,-1.24,-1.07,1.75
2022-11-15 11:13:37.7790,-0.73,-1.54,-0.26,1.72
2022-11-15 11:13:37.7820,-0.67,-1.35,0.25,1.52
2022-11-15 11:13:37.7980,-0.57,-0.78,0.3,1.01
2022-11-15 11:13:37.8000,-0.13,0.16,0.1,0.22
2022-11-15 11:13:37.8130,0.45,1.07,0.04,1.16
2022-11-15 11:13:37.8150,0.84,1.67,0.2,1.88
2022-11-15 11:13:37.8310,0.89,1.69,0.43,1.95
2022-11-15 11:13:37.8340,0.64,1.28,0.32,1.46
2022-11-15 11:13:37.8450,0.5,0.65,-0.1,0.82
2022-11-15 11:13:37.8470,0.74,0.06,-0.55,0.92
2022-11-15 11:13:37.8620,0.96,-0.24,-0.66,1.18
2022-11-15 11:13:37.8640,0.85,-0.37,-0.48,1.04
2022-11-15 11:13:37.8810,0.47,-0.4,-0.24,0.66
2022-11-15 11:13:37.8830,0.02,-0.42,0.29,0.51
2022-11-15 11:13:37.8970,-0.06,-0.22,0.61,0.65
2022-11-15 11:13:37.8990,0.21,0.28,0.59,0.68
2022-11-15 11:13:37.9130,0.15,0.67,0.79,1.04
2022-11-15 11:13:37.9160,-0.15,0.77,0.84,1.14
2022-11-15 11:13:37.9300,-0.26,0.62,0.37,0.76
2022-11-15 11:13:37.9330,-0.16,0.39,-0.25,0.49
2022-11-15 11:13:37.9450,-0.21,0.24,-0.23,0.39
2022-11-15 11:13:37.9470,-0.27,0.08,0.36,0.45
2022-11-15 11:13:37.9650,0.0,0.09,0.47,0.47
2022-11-15 11:13:37.9660,0.27,0.2,0.25,0.41
2022-11-15 11:13:37.9800,0.24,0.23,0.26,0.42
2022-11-15 11:13:37.9820,0.11,0.14,0.29,0.34
2022-11-15 11:13:37.9960,-0.01,-0.11,0.03,0.11
2022-11-15 11:13:38.0000,-0.11,-0.16,-0.52,0.55
2022-11-15 11:13:38.0120,-0.1,-0.12,-0.78,0.79
2022-11-15 11:13:38.0150,-0.19,-0.17,-0.84,0.87
2022-11-15 11:13:38.0290,-0.2,-0.12,-1.01,1.03
2022-11-15 11:13:38.0300,-0.06,-0.01,-0.65,0.65
2022-11-15 11:13:38.0460,-0.04,0.06,0.51,0.51
2022-11-15 11:13:38.0470,0.05,0.24,1.41,1.43
2022-11-15 11:13:38.0650,-0.02,0.39,1.39,1.44
2022-11-15 11:13:38.0680,-0.18,0.4,0.94,1.03
2022-11-15 11:13:38.0790,-0.22,0.29,0.37,0.51
2022-11-15 11:13:38.0820,-0.04,0.18,-0.44,0.47
2022-11-15 11:13:38.0960,0.03,0.13,-1.2,1.2
2022-11-15 11:13:38.0990,-0.11,-0.03,-1.68,1.68
2022-11-15 11:13:38.1110,-0.22,-0.44,-1.3,1.38
2022-11-15 11:13:38.1130,-0.43,-0.63,-0.26,0.8
2022-11-15 11:13:38.1290,-0.31,-0.31,0.21,0.48
2022-11-15 11:13:38.1310,0.09,0.2,0.09,0.23
2022-11-15 11:13:38.1450,0.27,0.39,-0.19,0.51
2022-11-15 11:13:38.1480,0.14,0.17,-0.38,0.43
2022-11-15 11:13:38.1620,-0.09,-0.09,-0.6,0.61
2022-11-15 11:13:38.1650,-0.2,-0.19,-0.67,0.72
2022-11-15 11:13:38.1780,-0.33,-0.45,-0.15,0.57
2022-11-15 11:13:38.1810,-0.28,-0.6,0.59,0.88
2022-11-15 11:13:38.1940,-0.21,-0.73,0.31,0.82
2022-11-15 11:13:38.1950,-0.64,-1.43,-3.46,3.79
2022-11-15 11:13:38.2140,-0.21,-0.74,-4.2,4.26
2022-11-15 11:13:38.2170,-0.8,0.1,-2.07,2.22
2022-11-15 11:13:38.2280,-1.24,0.08,-0.82,1.48
2022-11-15 11:13:38.2310,-1.53,-0.5,0.36,1.64
2022-11-15 11:13:38.2460,-2.22,-0.97,1.79,3.01
2022-11-15 11:13:38.2490,-2.81,-0.53,1.28,3.13
2022-11-15 11:13:38.2640,-3.0,0.06,0.01,3.0
2022-11-15 11:13:38.2660,-3.05,-0.04,-1.0,3.2
2022-11-15 11:13:38.2780,-3.63,-0.6,-1.31,3.9
2022-11-15 11:13:38.2800,-4.44,-0.49,-1.08,4.59
2022-11-15 11:13:38.2980,-4.8,0.08,-2.05,5.22
2022-11-15 11:13:38.3000,-5.19,0.34,-3.96,6.53
2022-11-15 11:13:38.3140,-5.73,-0.03,-4.86,7.51
2022-11-15 11:13:38.3170,-6.29,-0.79,-5.12,8.14
2022-11-15 11:13:38.3290,-6.3,-1.5,-5.31,8.37
2022-11-15 11:13:38.3320,-5.77,-1.86,-4.67,7.65
2022-11-15 11:13:38.3460,-5.3,-2.58,-4.22,7.24
2022-11-15 11:13:38.3490,-4.97,-3.24,-3.77,7.02
2022-11-15 11:13:38.3610,-4.81,-3.11,-2.77,6.36
2022-11-15 11:13:38.3630,-5.25,-1.33,-0.34,5.42
2022-11-15 11:13:38.3810,-4.76,0.22,-0.62,4.8
2022-11-15 11:13:38.3830,-3.68,0.15,-2.18,4.27
2022-11-15 11:13:38.3970,-4.59,-1.18,-2.31,5.27
2022-11-15 11:13:38.3990,-2.69,-2.87,-2.82,4.83
2022-11-15 11:13:38.4130,-1.22,-4.23,-2.97,5.31
2022-11-15 11:13:38.4140,-0.61,-4.2,-1.84,4.62
2022-11-15 11:13:38.4290,0.33,-3.73,-0.6,3.79
2022-11-15 11:13:38.4320,0.95,-3.71,-0.27,3.83
2022-11-15 11:13:38.4450,2.17,-3.28,-0.71,3.99
2022-11-15 11:13:38.4470,3.26,-2.5,-1.19,4.27
2022-11-15 11:13:38.4650,3.25,-1.87,-2.12,4.3
2022-11-15 11:13:38.4660,2.26,-1.83,-3.1,4.25
2022-11-15 11:13:38.4800,2.08,-1.92,-3.45,4.46
2022-11-15 11:13:38.4820,2.82,-1.81,-3.24,4.66
2022-11-15 11:13:38.4960,0.5,-3.11,-3.74,4.88
2022-11-15 11:13:38.4990,-0.68,-5.02,-4.02,6.46
2022-11-15 11:13:38.5130,4.33,-5.45,-0.47,6.97
2022-11-15 11:13:38.5160,9.03,-4.09,1.85,10.08
2022-11-15 11:13:38.5280,9.05,-2.63,2.89,9.85
2022-11-15 11:13:38.5300,8.59,-1.47,3.65,9.44
2022-11-15 11:13:38.5480,8.96,-0.88,3.85,9.79
2022-11-15 11:13:38.5500,8.23,-0.49,3.93,9.13
2022-11-15 11:13:38.5640,6.92,-0.25,3.38,7.7
2022-11-15 11:13:38.5670,5.6,-0.28,2.16,6.0
2022-11-15 11:13:38.5790,4.58,-0.62,1.43,4.83
2022-11-15 11:13:38.5810,3.73,-0.99,2.06,4.37
2022-11-15 11:13:38.5960,2.54,-2.05,4.71,5.73
2022-11-15 11:13:38.5990,2.63,-2.27,6.74,7.58
2022-11-15 11:13:38.6110,4.36,-0.89,2.34,5.02
2022-11-15 11:13:38.6130,6.02,-0.71,-1.45,6.23
2022-11-15 11:13:38.6310,6.14,-1.2,-1.75,6.49
2022-11-15 11:13:38.6330,5.52,-1.0,0.8,5.66
2022-11-15 11:13:38.6470,3.94,-0.67,3.52,5.32
2022-11-15 11:13:38.6490,1.7,-0.86,4.08,4.5
2022-11-15 11:13:38.6640,0.93,-0.63,3.82,3.98
2022-11-15 11:13:38.6670,2.12,0.32,4.79,5.24
2022-11-15 11:13:38.6780,2.0,0.78,5.05,5.48
2022-11-15 11:13:38.6810,1.56,0.2,3.89,4.19
2022-11-15 11:13:38.6950,1.05,-0.82,1.86,2.28
2022-11-15 11:13:38.6970,0.26,-1.77,0.93,2.01
2022-11-15 11:13:38.7140,0.73,-2.23,0.41,2.38
2022-11-15 11:13:38.7160,1.65,-2.86,-0.75,3.38
2022-11-15 11:13:38.7310,1.79,-3.25,-1.63,4.05
2022-11-15 11:13:38.7340,2.55,-2.18,-0.62,3.41
2022-11-15 11:13:38.7460,3.21,0.0,1.4,3.5
2022-11-15 11:13:38.7490,2.99,1.78,2.18,4.1
2022-11-15 11:13:38.7640,2.27,1.91,1.37,3.26
2022-11-15 11:13:38.7660,1.55,1.45,1.43,2.55
2022-11-15 11:13:38.7780,1.44,0.92,1.56,2.31
2022-11-15 11:13:38.7800,1.45,0.16,0.66,1.6
2022-11-15 11:13:38.7980,1.18,0.08,-0.28,1.21
2022-11-15 11:13:38.8000,1.25,0.77,-0.24,1.48
2022-11-15 11:13:38.8140,2.31,0.7,0.01,2.41
2022-11-15 11:13:38.8170,3.09,0.98,1.35,3.51
2022-11-15 11:13:38.8280,3.22,2.21,1.67,4.24
2022-11-15 11:13:38.8310,2.49,3.16,2.72,4.85
2022-11-15 11:13:38.8460,1.52,4.13,3.52,5.63
2022-11-15 11:13:38.8490,0.13,5.0,3.75,6.25
2022-11-15 11:13:38.8610,-0.81,5.26,3.73,6.49
2022-11-15 11:13:38.8630,-1.26,5.18,3.09,6.16
2022-11-15 11:13:38.8810,-1.58,4.75,3.08,5.87
2022-11-15 11:13:38.8830,-0.71,3.69,3.31,5.0
2022-11-15 11:13:38.8970,0.77,2.64,2.65,3.81
2022-11-15 11:13:38.9000,2.34,1.88,2.3,3.78
2022-11-15 11:13:38.9120,2.79,1.75,1.58,3.65
2022-11-15 11:13:38.9150,1.95,2.34,1.1,3.23
2022-11-15 11:13:38.9290,0.3,2.83,1.85,3.39
2022-11-15 11:13:38.9310,-1.44,3.22,2.76,4.47
2022-11-15 11:13:38.9450,-2.41,2.94,2.83,4.73
2022-11-15 11:13:38.9470,-2.55,2.17,1.94,3.86
2022-11-15 11:13:38.9630,-2.64,1.12,0.58,2.92
2022-11-15 11:13:38.9650,-2.35,0.26,0.18,2.37
2022-11-15 11:13:38.9780,-1.46,-0.9,0.37,1.75
2022-11-15 11:13:38.9800,-1.35,-1.9,0.12,2.33
2022-11-15 11:13:38.9970,-1.53,-2.44,-0.19,2.88
2022-11-15 11:13:39.0000,-1.81,-2.77,-0.09,3.31
2022-11-15 11:13:39.0120,-2.44,-2.58,0.27,3.56
2022-11-15 11:13:39.0150,-2.61,-1.87,0.65,3.27
2022-11-15 11:13:39.0280,-2.7,-0.72,0.76,2.89
2022-11-15 11:13:39.0300,-2.45,0.25,1.13,2.7
2022-11-15 11:13:39.0480,-1.26,0.57,1.95,2.39
2022-11-15 11:13:39.0500,-0.5,1.12,1.92,2.27
2022-11-15 11:13:39.0650,-0.11,1.27,1.14,1.71
2022-11-15 11:13:39.0680,-0.47,1.21,0.03,1.29
2022-11-15 11:13:39.0780,-1.39,1.55,-0.93,2.28
2022-11-15 11:13:39.0810,-1.75,1.77,-1.2,2.76
2022-11-15 11:13:39.0970,-1.87,1.63,-1.25,2.77
2022-11-15 11:13:39.1000,-1.78,1.4,-0.67,2.36
2022-11-15 11:13:39.1110,-1.22,1.17,-0.01,1.69
2022-11-15 11:13:39.1140,-0.41,0.64,0.17,0.77
2022-11-15 11:13:39.1310,-0.61,-0.36,-0.47,0.85
2022-11-15 11:13:39.1330,0.01,-0.77,-0.57,0.95
2022-11-15 11:13:39.1470,0.49,-1.02,-0.05,1.13
2022-11-15 11:13:39.1480,-0.17,-0.97,-1.36,1.67
2022-11-15 11:13:39.1630,-0.97,-0.29,-1.36,1.69
2022-11-15 11:13:39.1640,-1.15,-0.09,-1.15,1.62
2022-11-15 11:13:39.1790,-0.08,0.19,-0.98,1.0
2022-11-15 11:13:39.1820,1.6,0.58,-0.89,1.92
2022-11-15 11:13:39.1950,2.67,0.88,-0.61,2.87
2022-11-15 11:13:39.1970,3.03,0.81,-0.16,3.14
2022-11-15 11:13:39.2140,2.79,0.07,0.0,2.79
2022-11-15 11:13:39.2160,2.64,-0.71,0.72,2.82
2022-11-15 11:13:39.2310,2.19,-1.21,1.25,2.79
2022-11-15 11:13:39.2340,1.13,-1.29,1.18,2.08
2022-11-15 11:13:39.2470,0.2,-0.71,0.95,1.2
2022-11-15 11:13:39.2500,-0.29,-0.06,-0.07,0.3
2022-11-15 11:13:39.2630,-0.43,0.75,-0.31,0.91
2022-11-15 11:13:39.2660,0.05,1.44,0.38,1.49
2022-11-15 11:13:39.2780,1.51,2.13,0.95,2.77
2022-11-15 11:13:39.2800,3.27,3.84,1.51,5.26
2022-11-15 11:13:39.2980,5.27,7.37,1.01,9.11
2022-11-15 11:13:39.3000,4.92,9.14,0.34,10.38
2022-11-15 11:13:39.3140,2.37,8.1,1.36,8.54
2022-11-15 11:13:39.3170,1.0,4.88,0.72,5.03
2022-11-15 11:13:39.3290,-0.69,0.88,-1.1,1.56
2022-11-15 11:13:39.3320,-1.95,-0.94,-1.57,2.67
2022-11-15 11:13:39.3470,-1.64,-1.29,-3.18,3.8
2022-11-15 11:13:39.3490,-1.13,-0.89,-5.42,5.6
2022-11-15 11:13:39.3610,-1.75,-3.05,-6.19,7.11
2022-11-15 11:13:39.3630,-2.28,-7.0,-4.91,8.84
2022-11-15 11:13:39.3810,-3.24,-8.99,-2.78,9.95
2022-11-15 11:13:39.3830,-4.87,-7.77,-0.43,9.18
2022-11-15 11:13:39.3970,-4.43,-5.7,2.41,7.61
2022-11-15 11:13:39.3990,-3.04,-4.09,5.45,7.46
2022-11-15 11:13:39.4130,-0.85,-2.72,5.04,5.78
2022-11-15 11:13:39.4160,1.42,-2.4,2.32,3.62
2022-11-15 11:13:39.4280,2.59,-2.68,-0.49,3.75
2022-11-15 11:13:39.4310,2.21,-2.51,-1.95,3.87
2022-11-15 11:13:39.4460,1.68,-2.15,-1.81,3.27
2022-11-15 11:13:39.4480,1.13,-2.08,-1.92,3.04
2022-11-15 11:13:39.4640,0.76,-2.15,-2.44,3.33
2022-11-15 11:13:39.4660,0.79,-2.15,-2.34,3.27
2022-11-15 11:13:39.4800,1.58,-2.89,-1.81,3.75
2022-11-15 11:13:39.4820,2.67,-3.86,-2.43,5.28
2022-11-15 11:13:39.4970,2.55,-4.18,-2.99,5.73
2022-11-15 11:13:39.4990,1.73,-3.44,-2.66,4.67
2022-11-15 11:13:39.5130,0.52,-2.06,-2.61,3.36
2022-11-15 11:13:39.5160,-0.88,-0.29,-2.03,2.23
2022-11-15 11:13:39.5280,-2.0,1.83,-0.98,2.88
2022-11-15 11:13:39.5300,-2.41,4.12,-0.19,4.77
2022-11-15 11:13:39.5480,-2.4,6.12,0.78,6.61
2022-11-15 11:13:39.5490,-1.82,7.17,1.23,7.49
2022-11-15 11:13:39.5630,-1.09,7.92,2.43,8.35
2022-11-15 11:13:39.5650,-0.34,9.09,3.74,9.83
2022-11-15 11:13:39.5780,-0.68,9.02,3.93,9.86
2022-11-15 11:13:39.5810,-1.78,7.07,4.79,8.72
2022-11-15 11:13:39.5960,-1.72,4.38,6.95,8.39
2022-11-15 11:13:39.5980,-1.38,1.06,5.7,5.95
2022-11-15 11:13:39.6110,-1.74,-0.4,-1.37,2.25
2022-11-15 11:13:39.6130,-2.53,1.58,-0.72,3.06
2022-11-15 11:13:39.6310,-4.35,4.11,1.99,6.3
2022-11-15 11:13:39.6330,-3.78,5.32,1.83,6.77
2022-11-15 11:13:39.6470,-1.9,3.61,0.07,4.08
2022-11-15 11:13:39.6500,-0.95,1.0,-1.11,1.77
2022-11-15 11:13:39.6640,-1.09,-0.63,-1.21,1.74
2022-11-15 11:13:39.6660,-1.09,-3.51,-0.03,3.67
2022-11-15 11:13:39.6780,-0.72,-1.49,0.93,1.89
2022-11-15 11:13:39.6810,-0.41,2.9,1.6,3.33
2022-11-15 11:13:39.6960,-0.24,5.11,1.32,5.28
2022-11-15 11:13:39.6990,-0.49,6.54,-1.35,6.69
2022-11-15 11:13:39.7130,0.69,7.94,-2.32,8.3
2022-11-15 11:13:39.7150,3.09,3.19,-2.64,5.16
2022-11-15 11:13:39.7290,5.3,-3.86,-1.09,6.64
2022-11-15 11:13:39.7310,5.72,-10.19,2.15,11.88
2022-11-15 11:13:39.7470,6.15,-15.19,1.7,16.47
2022-11-15 11:13:39.7490,4.26,-16.17,-0.37,16.72
2022-11-15 11:13:39.7630,0.58,-12.21,-0.26,12.22
2022-11-15 11:13:39.7650,-2.52,-6.94,1.16,7.47
2022-11-15 11:13:39.7790,-3.44,-3.88,1.66,5.44
2022-11-15 11:13:39.7810,-3.25,-2.94,1.66,4.68
2022-11-15 11:13:39.7980,-2.84,-2.79,1.21,4.16
2022-11-15 11:13:39.7990,-1.34,-3.14,1.32,3.66
2022-11-15 11:13:39.8140,0.03,-3.02,2.45,3.88
2022-11-15 11:13:39.8170,0.93,-2.19,3.33,4.09
2022-11-15 11:13:39.8290,1.38,-1.93,2.52,3.46
2022-11-15 11:13:39.8310,1.82,-1.86,1.3,2.9
2022-11-15 11:13:39.8470,2.05,-1.01,0.68,2.38
2022-11-15 11:13:39.8500,1.66,-0.13,-0.16,1.67
2022-11-15 11:13:39.8610,1.57,2.1,-3.83,4.64
2022-11-15 11:13:39.8630,0.58,3.24,-6.04,6.87
2022-11-15 11:13:39.8810,0.21,3.26,-6.32,7.11
2022-11-15 11:13:39.8830,0.59,3.43,-5.81,6.77
2022-11-15 11:13:39.8970,1.41,3.56,-4.36,5.8
2022-11-15 11:13:39.9000,2.83,4.38,-3.44,6.24
2022-11-15 11:13:39.9140,3.16,5.33,-2.46,6.66
2022-11-15 11:13:39.9160,2.68,5.84,-1.19,6.53
2022-11-15 11:13:39.9300,2.29,5.82,-0.61,6.28
2022-11-15 11:13:39.9320,1.82,5.62,-0.29,5.91
2022-11-15 11:13:39.9440,0.78,5.05,2.46,5.67
2022-11-15 11:13:39.9470,-2.33,3.04,11.26,11.89
2022-11-15 11:13:39.9640,-4.25,1.53,11.38,12.24
2022-11-15 11:13:39.9660,-3.31,1.66,5.25,6.42
2022-11-15 11:13:39.9800,-1.29,1.82,0.79,2.36
2022-11-15 11:13:39.9820,-0.02,0.67,-2.06,2.16
2022-11-15 11:13:39.9960,0.1,-0.92,-3.13,3.26
2022-11-15 11:13:39.9980,-1.54,-3.02,-3.2,4.66
2022-11-15 11:13:40.0130,-4.14,-4.88,-2.74,6.96
2022-11-15 11:13:40.0160,-6.44,-5.31,-2.87,8.82
2022-11-15 11:13:40.0280,-5.59,-4.22,-2.9,7.58
2022-11-15 11:13:40.0300,-2.28,-3.13,-3.35,5.12
2022-11-15 11:13:40.0480,0.67,-1.99,-3.25,3.86
2022-11-15 11:13:40.0500,1.38,-1.17,-1.72,2.49
2022-11-15 11:13:40.0640,0.52,-0.67,-0.2,0.87
2022-11-15 11:13:40.0660,-0.4,0.07,0.11,0.42
2022-11-15 11:13:40.0800,-1.07,0.93,-0.42,1.47
2022-11-15 11:13:40.0830,-0.97,1.65,-1.04,2.17
2022-11-15 11:13:40.0970,0.36,1.77,-0.74,1.95
2022-11-15 11:13:40.1000,1.21,1.24,0.68,1.86
2022-11-15 11:13:40.1120,1.36,0.66,2.31,2.76
2022-11-15 11:13:40.1140,2.07,0.19,2.95,3.6
2022-11-15 11:13:40.1310,2.32,-0.37,2.4,3.35
2022-11-15 11:13:40.1330,2.03,-0.85,1.69,2.77
2022-11-15 11:13:40.1470,1.76,-1.04,1.2,2.37
2022-11-15 11:13:40.1480,1.77,-0.55,0.56,1.93
2022-11-15 11:13:40.1640,1.69,0.11,0.07,1.69
2022-11-15 11:13:40.1660,1.04,0.29,0.44,1.16
2022-11-15 11:13:40.1790,0.68,-0.09,1.03,1.23
2022-11-15 11:13:40.1810,0.22,-0.68,0.45,0.84
2022-11-15 11:13:40.1950,-0.61,-1.13,-0.01,1.28
2022-11-15 11:13:40.1970,-0.96,-1.3,0.14,1.62
2022-11-15 11:13:40.2140,-0.52,-1.37,0.02,1.46
2022-11-15 11:13:40.2160,0.59,-1.39,-0.4,1.56
2022-11-15 11:13:40.2300,1.34,-1.19,-0.77,1.95
2022-11-15 11:13:40.2320,1.29,-0.71,-0.51,1.55
2022-11-15 11:13:40.2470,1.04,-0.03,0.23,1.06
2022-11-15 11:13:40.2500,0.07,0.66,0.74,0.99
2022-11-15 11:13:40.2620,-0.54,1.51,1.33,2.08
2022-11-15 11:13:40.2650,2.04,1.91,2.59,3.81
2022-11-15 11:13:40.2790,2.97,1.29,2.44,4.05
2022-11-15 11:13:40.2820,1.34,0.22,1.63,2.12
2022-11-15 11:13:40.2980,-0.53,-0.29,1.33,1.46
2022-11-15 11:13:40.3000,-1.07,-0.72,0.14,1.29
2022-11-15 11:13:40.3130,-1.01,-1.79,-1.32,2.44
2022-11-15 11:13:40.3150,-1.5,-3.42,-1.6,4.06
2022-11-15 11:13:40.3290,-1.02,-4.06,-1.07,4.32
2022-11-15 11:13:40.3320,-0.31,-3.4,0.33,3.43
2022-11-15 11:13:40.3470,-0.58,-2.87,1.0,3.09
2022-11-15 11:13:40.3500,-0.92,-2.52,0.14,2.68
2022-11-15 11:13:40.3610,-1.27,-2.71,-0.55,3.04
2022-11-15 11:13:40.3630,-0.82,-2.08,-1.27,2.57
2022-11-15 11:13:40.3810,-0.6,-0.33,-1.91,2.02
2022-11-15 11:13:40.3830,-0.55,1.31,-2.43,2.81
2022-11-15 11:13:40.3960,-0.06,2.2,-1.5,2.66
2022-11-15 11:13:40.3990,0.51,2.69,-1.2,2.98
2022-11-15 11:13:40.4130,0.96,3.27,-2.27,4.09
2022-11-15 11:13:40.4160,1.38,3.04,-2.99,4.48
2022-11-15 11:13:40.4290,1.76,2.4,-2.7,4.01
2022-11-15 11:13:40.4310,2.08,2.34,-0.59,3.18
2022-11-15 11:13:40.4440,1.69,2.22,0.79,2.89
2022-11-15 11:13:40.4460,0.89,2.34,0.53,2.55
2022-11-15 11:13:40.4650,-0.28,2.62,-0.52,2.68
2022-11-15 11:13:40.4660,-0.32,2.86,-1.32,3.16
2022-11-15 11:13:40.4800,0.03,2.91,-1.09,3.1
2022-11-15 11:13:40.4820,-0.72,2.06,-1.25,2.51
2022-11-15 11:13:40.4950,-1.07,1.13,-0.31,1.58
2022-11-15 11:13:40.4980,-0.27,-0.12,1.53,1.55
2022-11-15 11:13:40.5120,0.27,-1.39,1.77,2.26
2022-11-15 11:13:40.5150,-0.19,-2.16,0.78,2.3
2022-11-15 11:13:40.5280,-0.99,-2.71,-0.33,2.9
2022-11-15 11:13:40.5300,-1.48,-2.85,-1.0,3.36
2022-11-15 11:13:40.5480,-1.75,-2.64,-1.54,3.52
2022-11-15 11:13:40.5500,-2.18,-2.01,-1.87,3.5
2022-11-15 11:13:40.5630,-1.95,-1.24,-1.26,2.63
2022-11-15 11:13:40.5650,-1.25,-1.11,-0.06,1.67
2022-11-15 11:13:40.5790,-0.43,-1.2,0.55,1.38
2022-11-15 11:13:40.5820,0.51,-1.12,0.89,1.51
2022-11-15 11:13:40.5950,1.07,-1.19,1.13,1.95
2022-11-15 11:13:40.5980,0.94,-1.36,1.05,1.95
2022-11-15 11:13:40.6110,0.69,-1.46,0.52,1.69
2022-11-15 11:13:40.6130,0.02,-1.01,0.01,1.01
2022-11-15 11:13:40.6310,-0.22,0.0,-0.08,0.23
2022-11-15 11:13:40.6330,-0.35,0.55,-0.54,0.84
2022-11-15 11:13:40.6470,-0.54,0.34,-0.93,1.12
2022-11-15 11:13:40.6500,-0.13,-0.06,-0.44,0.46
2022-11-15 11:13:40.6620,0.77,-0.3,0.14,0.83
2022-11-15 11:13:40.6650,1.18,-0.29,0.79,1.44
2022-11-15 11:13:40.6790,1.2,-0.11,1.44,1.87
2022-11-15 11:13:40.6820,0.77,0.34,1.15,1.42
2022-11-15 11:13:40.6940,0.46,0.86,1.73,1.98
2022-11-15 11:13:40.6970,0.48,1.07,2.31,2.59
2022-11-15 11:13:40.7140,0.16,0.85,1.71,1.91
2022-11-15 11:13:40.7160,-0.49,0.67,0.15,0.84
2022-11-15 11:13:40.7300,-1.16,0.72,-1.82,2.27
2022-11-15 11:13:40.7330,-1.28,0.45,-2.64,2.96
2022-11-15 11:13:40.7450,-0.55,0.06,-0.88,1.03
2022-11-15 11:13:40.7470,0.3,-0.44,0.77,0.93
2022-11-15 11:13:40.7640,0.95,-0.87,2.01,2.38
2022-11-15 11:13:40.7670,1.64,-1.62,3.41,4.11
2022-11-15 11:13:40.7780,0.96,-1.56,2.42,3.03
2022-11-15 11:13:40.7800,-0.15,-0.84,0.88,1.22
2022-11-15 11:13:40.7980,-0.52,-0.52,0.1,0.74
2022-11-15 11:13:40.8000,-0.92,-0.37,-1.0,1.4
2022-11-15 11:13:40.8140,-1.07,-0.17,-2.12,2.38
2022-11-15 11:13:40.8170,-0.68,-0.21,-2.33,2.43
2022-11-15 11:13:40.8300,-0.23,-0.95,-2.15,2.36
2022-11-15 11:13:40.8330,0.87,-1.81,-0.74,2.14
2022-11-15 11:13:40.8480,2.31,-1.38,1.11,2.91
2022-11-15 11:13:40.8500,2.56,-0.72,1.96,3.3
2022-11-15 11:13:40.8620,1.79,-0.59,2.13,2.84
2022-11-15 11:13:40.8640,0.65,-0.77,2.72,2.9
2022-11-15 11:13:40.8810,-5.29,2.72,3.58,6.94
2022-11-15 11:13:40.8830,-0.76,4.61,-6.49,7.99
2022-11-15 11:13:40.8970,-0.22,2.63,-3.97,4.76
2022-11-15 11:13:40.8990,-0.96,0.78,0.46,1.31
2022-11-15 11:13:40.9130,1.05,1.72,-1.29,2.39
2022-11-15 11:13:40.9160,1.06,2.28,-0.94,2.68
2022-11-15 11:13:40.9300,0.47,2.6,0.47,2.68
2022-11-15 11:13:40.9330,0.21,2.94,-0.37,2.97
2022-11-15 11:13:40.9450,-0.06,2.3,-1.69,2.85
2022-11-15 11:13:40.9470,-0.16,1.64,-1.59,2.28
2022-11-15 11:13:40.9640,-0.03,1.46,-1.72,2.25
2022-11-15 11:13:40.9660,0.16,1.33,-1.18,1.78
2022-11-15 11:13:40.9800,0.16,0.86,-0.48,0.99
2022-11-15 11:13:40.9820,-0.03,0.98,0.03,0.98
2022-11-15 11:13:40.9950,-0.45,1.54,0.78,1.78
2022-11-15 11:13:40.9980,-0.83,1.9,1.51,2.56
2022-11-15 11:13:41.0120,-1.08,1.9,1.39,2.59
2022-11-15 11:13:41.0140,-1.11,1.07,1.01,1.84
2022-11-15 11:13:41.0280,-0.62,-0.07,0.87,1.07
2022-11-15 11:13:41.0300,-0.14,-0.11,1.18,1.19
2022-11-15 11:13:41.0490,0.18,0.47,1.92,1.98
2022-11-15 11:13:41.0510,0.82,-0.17,0.89,1.22
2022-11-15 11:13:41.0620,0.93,-1.22,-0.35,1.57
2022-11-15 11:13:41.0640,0.99,-1.11,-0.57,1.59
2022-11-15 11:13:41.0800,1.26,-0.73,-0.16,1.46
2022-11-15 11:13:41.0830,0.34,-0.02,0.29,0.44
2022-11-15 11:13:41.0950,-1.2,1.14,0.61,1.76
2022-11-15 11:13:41.0980,-1.95,1.27,0.94,2.5
2022-11-15 11:13:41.1110,-2.56,1.1,0.95,2.94
2022-11-15 11:13:41.1130,-1.87,0.41,1.06,2.18
2022-11-15 11:13:41.1310,-1.16,-0.12,0.19,1.18
2022-11-15 11:13:41.1330,-0.66,0.23,-0.32,0.76
2022-11-15 11:13:41.1470,-0.26,0.37,0.49,0.66
2022-11-15 11:13:41.1490,-0.31,1.27,1.2,1.77
2022-11-15 11:13:41.1620,-0.66,0.85,-1.34,1.71
2022-11-15 11:13:41.1640,-0.53,0.48,-2.23,2.34
2022-11-15 11:13:41.1790,-0.32,0.16,-2.21,2.23
2022-11-15 11:13:41.1820,0.73,-0.03,-0.98,1.22
2022-11-15 11:13:41.1950,1.33,-0.84,0.25,1.59
2022-11-15 11:13:41.1970,1.45,-1.72,1.26,2.57
2022-11-15 11:13:41.2140,1.2,-1.85,2.01,2.98
2022-11-15 11:13:41.2160,2.69,-1.74,1.28,3.44
2022-11-15 11:13:41.2300,2.99,-1.86,0.41,3.54
2022-11-15 11:13:41.2320,1.84,-1.55,0.44,2.44
2022-11-15 11:13:41.2470,0.92,-0.99,0.39,1.4
2022-11-15 11:13:41.2500,0.87,-0.42,0.63,1.15
2022-11-15 11:13:41.2620,1.95,1.02,1.63,2.73
2022-11-15 11:13:41.2640,1.18,0.75,1.48,2.03
2022-11-15 11:13:41.2780,-1.28,-1.05,0.15,1.66
2022-11-15 11:13:41.2800,0.14,-0.38,-1.09,1.16
2022-11-15 11:13:41.2980,1.34,0.06,-1.13,1.75
2022-11-15 11:13:41.3000,0.88,0.57,0.12,1.05
2022-11-15 11:13:41.3140,1.76,1.66,2.05,3.17
2022-11-15 11:13:41.3170,1.61,1.38,2.83,3.53
2022-11-15 11:13:41.3290,0.4,0.6,2.09,2.21
2022-11-15 11:13:41.3320,-0.26,0.4,1.03,1.13
2022-11-15 11:13:41.3450,-1.27,0.06,-0.17,1.28
2022-11-15 11:13:41.3480,-1.66,-0.06,-0.84,1.86
2022-11-15 11:13:41.3610,-0.75,0.1,-0.91,1.18
2022-11-15 11:13:41.3630,-0.75,0.34,-0.8,1.14
2022-11-15 11:13:41.3810,-1.15,0.41,-1.07,1.62
2022-11-15 11:13:41.3830,-1.22,0.13,-1.84,2.21
2022-11-15 11:13:41.3970,-0.17,0.15,-2.1,2.11
2022-11-15 11:13:41.3980,1.57,1.14,-0.16,1.94
2022-11-15 11:13:41.4120,1.95,1.78,1.54,3.05
2022-11-15 11:13:41.4140,0.47,1.08,1.65,2.02
2022-11-15 11:13:41.4300,-1.31,0.18,1.67,2.13
2022-11-15 11:13:41.4330,-1.63,0.13,1.44,2.17
2022-11-15 11:13:41.4450,-1.5,0.5,1.09,1.92
2022-11-15 11:13:41.4470,-1.18,1.16,0.6,1.76
2022-11-15 11:13:41.4650,-0.71,2.05,-0.29,2.18
2022-11-15 11:13:41.4670,-0.1,2.7,-2.16,3.45
2022-11-15 11:13:41.4800,-0.5,2.19,-3.37,4.05
2022-11-15 11:13:41.4820,-1.75,1.37,-3.08,3.79
2022-11-15 11:13:41.4950,-1.8,2.56,-2.98,4.32
2022-11-15 11:13:41.4990,1.37,7.63,-3.77,8.62
2022-11-15 11:13:41.5110,-1.12,5.27,0.74,5.43
2022-11-15 11:13:41.5140,-3.32,2.85,4.93,6.59
2022-11-15 11:13:41.5300,-1.54,3.33,4.7,5.96
2022-11-15 11:13:41.5320,-1.03,2.74,3.75,4.75
2022-11-15 11:13:41.5480,-1.02,2.02,2.88,3.66
2022-11-15 11:13:41.5490,-1.1,1.95,1.8,2.87
2022-11-15 11:13:41.5640,-2.3,0.01,0.99,2.5
2022-11-15 11:13:41.5670,-2.23,-1.71,-0.18,2.81
2022-11-15 11:13:41.5790,-1.5,-2.35,-1.47,3.15
2022-11-15 11:13:41.5810,-1.16,-2.65,-1.57,3.29
2022-11-15 11:13:41.5970,-0.83,-3.5,-1.21,3.79
2022-11-15 11:13:41.6000,-0.13,-5.06,-0.42,5.07
2022-11-15 11:13:41.6110,0.22,-6.26,1.06,6.35
2022-11-15 11:13:41.6130,0.88,-6.44,1.56,6.68
2022-11-15 11:13:41.6310,1.37,-5.77,1.8,6.19
2022-11-15 11:13:41.6330,0.91,-5.35,1.81,5.72
2022-11-15 11:13:41.6470,-0.02,-5.27,1.68,5.53
2022-11-15 11:13:41.6500,-0.38,-4.3,1.96,4.74
2022-11-15 11:13:41.6640,-0.46,-2.5,2.02,3.24
2022-11-15 11:13:41.6660,0.46,-0.74,1.51,1.74
2022-11-15 11:13:41.6790,1.14,1.12,1.05,1.91
2022-11-15 11:13:41.6820,0.92,1.54,0.35,1.82
2022-11-15 11:13:41.6950,0.72,1.72,-0.27,1.88
2022-11-15 11:13:41.6970,0.58,1.87,-0.53,2.02
2022-11-15 11:13:41.7140,0.67,1.91,-0.49,2.08
2022-11-15 11:13:41.7160,0.68,1.71,-0.15,1.84
2022-11-15 11:13:41.7300,0.64,1.34,0.43,1.54
2022-11-15 11:13:41.7330,0.6,0.99,0.89,1.46
2022-11-15 11:13:41.7470,0.34,0.91,1.04,1.42
2022-11-15 11:13:41.7500,0.28,0.96,0.77,1.26
2022-11-15 11:13:41.7630,0.38,0.84,0.26,0.95
2022-11-15 11:13:41.7660,0.56,0.68,-0.26,0.91
2022-11-15 11:13:41.7780,0.85,0.54,-0.46,1.1
2022-11-15 11:13:41.7800,1.47,0.42,-0.24,1.54
2022-11-15 11:13:41.7980,2.26,0.28,0.11,2.27
2022-11-15 11:13:41.8000,2.66,0.18,0.33,2.68
2022-11-15 11:13:41.8150,2.69,0.03,0.34,2.71
2022-11-15 11:13:41.8170,2.75,-0.08,0.02,2.75
2022-11-15 11:13:41.8300,2.58,-0.13,-0.19,2.59
2022-11-15 11:13:41.8320,2.41,-0.17,-0.21,2.42
2022-11-15 11:13:41.8460,2.35,-0.14,-0.08,2.35
2022-11-15 11:13:41.8480,2.37,-0.09,0.12,2.37
2022-11-15 11:13:41.8620,2.37,-0.04,0.2,2.37
2022-11-15 11:13:41.8640,2.34,-0.02,0.25,2.35
2022-11-15 11:13:41.8810,2.28,-0.11,0.44,2.32
2022-11-15 11:13:41.8830,2.19,-0.32,0.58,2.28
2022-11-15 11:13:41.8970,1.93,-0.57,0.56,2.08
2022-11-15 11:13:41.8990,1.5,-0.72,0.52,1.74
2022-11-15 11:13:41.9130,1.04,-0.73,0.62,1.41
2022-11-15 11:13:41.9160,0.56,-0.62,0.86,1.19
2022-11-15 11:13:41.9300,0.06,-0.37,1.14,1.2
2022-11-15 11:13:41.9320,-0.35,0.04,1.38,1.42
2022-11-15 11:13:41.9440,-0.63,0.49,1.48,1.68
2022-11-15 11:13:41.9470,-0.72,0.83,1.51,1.86
2022-11-15 11:13:41.9640,-0.58,1.04,1.48,1.89
2022-11-15 11:13:41.9660,-0.17,1.04,1.46,1.8
2022-11-15 11:13:41.9800,0.38,0.82,1.38,1.64
2022-11-15 11:13:41.9810,0.95,0.62,1.29,1.71
2022-11-15 11:13:41.9960,1.48,0.61,1.17,1.98
2022-11-15 11:13:41.9980,1.98,0.7,1.06,2.35
2022-11-15 11:13:42.0110,2.45,0.71,1.09,2.77
2022-11-15 11:13:42.0140,2.8,0.77,1.31,3.18
2022-11-15 11:13:42.0280,3.03,1.11,1.6,3.6
2022-11-15 11:13:42.0300,3.14,1.09,1.3,3.56
2022-11-15 11:13:42.0470,3.3,1.14,0.89,3.6
2022-11-15 11:13:42.0490,3.54,1.08,0.89,3.8
2022-11-15 11:13:42.0640,3.77,0.91,1.13,4.03
2022-11-15 11:13:42.0670,3.98,0.58,1.55,4.31
2022-11-15 11:13:42.0800,4.01,-0.01,2.01,4.48
2022-11-15 11:13:42.0830,3.78,-0.76,2.31,4.49
2022-11-15 11:13:42.0960,3.22,-1.36,2.27,4.16
2022-11-15 11:13:42.0980,2.63,-1.65,2.11,3.75
2022-11-15 11:13:42.1110,2.25,-1.73,1.96,3.44
2022-11-15 11:13:42.1130,2.01,-1.68,1.99,3.28
2022-11-15 11:13:42.1310,2.21,-1.77,2.21,3.59
2022-11-15 11:13:42.1330,2.9,-2.34,2.51,4.49
2022-11-15 11:13:42.1460,3.73,-3.2,2.73,5.62
2022-11-15 11:13:42.1480,4.6,-3.9,3.06,6.76
2022-11-15 11:13:42.1620,5.46,-4.16,3.83,7.86
2022-11-15 11:13:42.1640,6.07,-4.4,4.55,8.76
2022-11-15 11:13:42.1800,6.37,-4.1,5.14,9.15
2022-11-15 11:13:42.1830,6.27,-3.26,5.82,9.15
2022-11-15 11:13:42.1950,5.63,-2.34,6.43,8.86
2022-11-15 11:13:42.1970,4.95,-1.62,7.26,8.93
2022-11-15 11:13:42.2140,4.75,-1.07,7.92,9.29
2022-11-15 11:13:42.2160,5.11,-0.42,7.75,9.29
2022-11-15 11:13:42.2300,5.82,0.48,6.43,8.68
2022-11-15 11:13:42.2330,6.49,1.38,3.84,7.66
2022-11-15 11:13:42.2450,6.59,1.51,0.68,6.79
2022-11-15 11:13:42.2480,5.82,0.9,-2.19,6.28
2022-11-15 11:13:42.2620,4.77,0.42,-3.66,6.02
2022-11-15 11:13:42.2650,4.32,0.57,-3.05,5.31
2022-11-15 11:13:42.2780,4.76,0.63,-1.0,4.9
2022-11-15 11:13:42.2800,5.97,-0.24,2.07,6.32
2022-11-15 11:13:42.2960,7.37,-3.36,6.18,10.18
2022-11-15 11:13:42.2980,7.66,-9.46,9.09,15.19
2022-11-15 11:13:42.3130,7.36,-16.19,6.73,19.01
2022-11-15 11:13:42.3150,8.42,-21.55,0.82,23.15
2022-11-15 11:13:42.3300,8.42,-22.4,-2.65,24.07
2022-11-15 11:13:42.3320,6.79,-20.34,-2.49,21.58
2022-11-15 11:13:42.3460,3.86,-17.6,-2.66,18.21
2022-11-15 11:13:42.3490,0.33,-12.69,-4.91,13.61
2022-11-15 11:13:42.3610,-2.68,-5.81,-6.06,8.81
2022-11-15 11:13:42.3630,-3.27,-3.03,-6.26,7.68
2022-11-15 11:13:42.3810,-3.18,-1.87,-4.11,5.52
2022-11-15 11:13:42.3830,-1.13,-1.72,-2.28,3.07
2022-11-15 11:13:42.3970,1.43,-1.23,-0.63,1.98
2022-11-15 11:13:42.3980,3.07,-1.08,-0.23,3.26
2022-11-15 11:13:42.4120,1.22,-0.55,-0.39,1.39
2022-11-15 11:13:42.4140,-1.88,0.7,-1.39,2.44
2022-11-15 11:13:42.4300,-3.87,2.79,-1.84,5.11
2022-11-15 11:13:42.4330,-4.69,5.19,-2.28,7.35
2022-11-15 11:13:42.4440,-4.41,7.36,-2.93,9.06
2022-11-15 11:13:42.4470,-4.49,9.03,-3.65,10.72
2022-11-15 11:13:42.4640,-5.84,9.92,-4.02,12.19
2022-11-15 11:13:42.4660,-6.72,10.79,-4.19,13.38
2022-11-15 11:13:42.4800,-7.19,11.6,-3.59,14.11
2022-11-15 11:13:42.4830,-7.85,12.36,-2.62,14.87
2022-11-15 11:13:42.4970,-8.32,13.19,-1.64,15.68
2022-11-15 11:13:42.4990,-8.65,13.96,-0.79,16.44
2022-11-15 11:13:42.5130,-8.69,14.78,-0.26,17.14
2022-11-15 11:13:42.5160,-8.88,15.57,0.39,17.92
2022-11-15 11:13:42.5280,-9.45,16.02,1.17,18.63
2022-11-15 11:13:42.5300,-10.05,14.98,1.34,18.08
2022-11-15 11:13:42.5480,-8.6,12.28,2.22,15.15
2022-11-15 11:13:42.5500,-4.74,7.5,3.08,9.39
2022-11-15 11:13:42.5620,-2.6,3.73,2.23,5.06
2022-11-15 11:13:42.5640,-1.56,1.1,2.17,2.89
2022-11-15 11:13:42.5790,-1.39,0.13,1.59,2.11
2022-11-15 11:13:42.5810,-1.73,-0.58,1.34,2.26
2022-11-15 11:13:42.5960,-4.33,-3.69,1.65,5.92
2022-11-15 11:13:42.5980,-4.09,-4.55,-5.28,8.08
2022-11-15 11:13:42.6120,-2.11,-4.72,-11.68,12.77
2022-11-15 11:13:42.6140,-1.08,-10.44,-12.5,16.32
2022-11-15 11:13:42.6310,0.93,-16.36,-11.39,19.95
2022-11-15 11:13:42.6330,2.41,-19.14,-8.8,21.2
2022-11-15 11:13:42.6460,2.51,-16.33,-6.45,17.73
2022-11-15 11:13:42.6480,2.48,-10.3,-4.11,11.36
2022-11-15 11:13:42.6620,3.21,-5.97,-3.23,7.5
2022-11-15 11:13:42.6650,3.75,-3.22,-2.92,5.74
2022-11-15 11:13:42.6800,4.8,-2.13,-2.96,6.02
2022-11-15 11:13:42.6830,5.9,-2.97,-2.17,6.95
2022-11-15 11:13:42.6950,7.22,-5.75,-0.59,9.24
2022-11-15 11:13:42.6970,8.31,-9.1,-0.42,12.33
2022-11-15 11:13:42.7140,9.98,-10.6,-0.38,14.56
2022-11-15 11:13:42.7160,12.81,-11.13,4.23,17.48
2022-11-15 11:13:42.7310,12.33,-10.37,11.99,20.08
2022-11-15 11:13:42.7330,4.77,-8.55,13.22,16.45
2022-11-15 11:13:42.7470,1.06,-6.89,10.35,12.47
2022-11-15 11:13:42.7490,2.03,-6.4,6.82,9.57
2022-11-15 11:13:42.7620,3.74,-4.42,8.29,10.11
2022-11-15 11:13:42.7650,3.77,-2.17,12.22,12.97
2022-11-15 11:13:42.7780,3.14,-1.33,12.07,12.54
2022-11-15 11:13:42.7810,3.94,-1.02,8.78,9.67
2022-11-15 11:13:42.7980,5.55,-0.59,4.57,7.21
2022-11-15 11:13:42.8000,6.64,0.8,1.33,6.81
2022-11-15 11:13:42.8130,6.82,2.94,-0.31,7.43
2022-11-15 11:13:42.8150,6.56,5.9,-0.68,8.84
2022-11-15 11:13:42.8300,6.23,9.15,0.08,11.06
2022-11-15 11:13:42.8330,5.97,11.54,1.68,13.1
2022-11-15 11:13:42.8450,5.7,13.07,4.31,14.89
2022-11-15 11:13:42.8480,5.71,14.0,8.15,17.17
2022-11-15 11:13:42.8610,5.88,13.85,8.82,17.44
2022-11-15 11:13:42.8630,5.49,12.9,4.73,14.79
2022-11-15 11:13:42.8790,4.63,12.08,1.08,12.98
2022-11-15 11:13:42.8810,3.31,11.04,-1.5,11.62
2022-11-15 11:13:42.8970,1.63,8.97,-3.23,9.67
2022-11-15 11:13:42.8990,0.48,6.15,-2.8,6.77
2022-11-15 11:13:42.9120,0.05,2.95,-2.58,3.91
2022-11-15 11:13:42.9150,-0.22,1.49,-3.03,3.38
2022-11-15 11:13:42.9300,-0.51,-4.65,2.95,5.53
2022-11-15 11:13:42.9330,-0.62,-19.91,11.6,23.05
2022-11-15 11:13:42.9450,2.33,-39.78,10.64,41.24
2022-11-15 11:13:42.9470,6.66,-62.08,3.37,62.52
2022-11-15 11:13:42.9640,7.87,-63.29,-6.67,64.12
2022-11-15 11:13:42.9660,5.32,-34.93,-7.16,36.05
2022-11-15 11:13:42.9780,0.84,-13.71,-1.8,13.85
2022-11-15 11:13:42.9800,-1.0,-4.83,-2.27,5.42
2022-11-15 11:13:42.9970,1.23,2.37,-2.23,3.47
2022-11-15 11:13:43.0000,4.68,6.01,-3.44,8.35
2022-11-15 11:13:43.0120,6.17,6.98,-4.87,10.51
2022-11-15 11:13:43.0150,3.78,7.13,-4.65,9.31
2022-11-15 11:13:43.0280,-2.0,6.9,-4.38,8.41
2022-11-15 11:13:43.0300,-6.25,6.96,-4.01,10.17
2022-11-15 11:13:43.0480,-8.36,7.15,-4.66,11.94
2022-11-15 11:13:43.0490,-9.43,7.17,-6.57,13.54
2022-11-15 11:13:43.0640,-9.63,7.44,-7.47,14.27
2022-11-15 11:13:43.0680,-9.6,8.31,-6.55,14.28
2022-11-15 11:13:43.0780,-9.69,9.45,-4.67,14.31
2022-11-15 11:13:43.0800,-9.71,10.55,-3.02,14.65
2022-11-15 11:13:43.0950,-9.51,12.14,-1.9,15.53
2022-11-15 11:13:43.0980,-9.55,14.83,-1.28,17.68
2022-11-15 11:13:43.1110,-9.46,18.17,-0.85,20.5
2022-11-15 11:13:43.1130,-9.32,20.12,0.21,22.17
2022-11-15 11:13:43.1310,-9.57,19.18,2.12,21.53
2022-11-15 11:13:43.1330,-9.25,16.8,3.91,19.57
2022-11-15 11:13:43.1460,-6.64,14.06,4.76,16.26
2022-11-15 11:13:43.1480,-4.05,9.65,4.39,11.34
2022-11-15 11:13:43.1620,-2.19,4.98,6.47,8.45
2022-11-15 11:13:43.1650,-1.25,0.84,8.78,8.9
2022-11-15 11:13:43.1800,-1.87,-0.88,3.73,4.26
2022-11-15 11:13:43.1830,-2.75,-1.49,-3.13,4.42
2022-11-15 11:13:43.1940,-3.12,-2.54,-9.0,9.85
2022-11-15 11:13:43.1960,-4.42,-5.52,-14.64,16.25
2022-11-15 11:13:43.2140,-3.47,-14.17,-16.35,21.91
2022-11-15 11:13:43.2160,1.05,-24.21,-15.38,28.7
2022-11-15 11:13:43.2300,5.09,-28.43,-8.33,30.05
2022-11-15 11:13:43.2320,5.16,-22.64,0.68,23.23
2022-11-15 11:13:43.2470,2.68,-12.34,4.16,13.29
2022-11-15 11:13:43.2500,-0.46,-6.39,-1.27,6.53
2022-11-15 11:13:43.2620,-1.53,-4.0,-4.88,6.49
2022-11-15 11:13:43.2650,-1.27,-2.55,-4.65,5.45
2022-11-15 11:13:43.2780,-0.85,-2.13,-2.28,3.23
2022-11-15 11:13:43.2800,-0.25,-2.78,1.8,3.32
2022-11-15 11:13:43.2980,1.69,-8.46,0.84,8.66
2022-11-15 11:13:43.3000,6.44,-12.39,-6.87,15.56
2022-11-15 11:13:43.3140,10.62,-10.81,-5.95,16.28
2022-11-15 11:13:43.3170,12.45,-7.46,9.83,17.52
2022-11-15 11:13:43.3300,9.26,-6.18,21.16,23.9
2022-11-15 11:13:43.3330,5.43,-8.68,13.19,16.69
2022-11-15 11:13:43.3450,6.22,-9.46,7.12,13.37
2022-11-15 11:13:43.3480,5.87,-5.48,9.93,12.77
2022-11-15 11:13:43.3610,5.4,-1.87,10.58,12.02
2022-11-15 11:13:43.3630,5.95,-0.24,6.94,9.14
2022-11-15 11:13:43.3810,6.78,0.27,2.67,7.29
2022-11-15 11:13:43.3830,7.54,1.44,0.58,7.69
2022-11-15 11:13:43.3980,8.09,3.42,-0.34,8.78
2022-11-15 11:13:43.4000,8.32,6.05,-0.85,10.32
2022-11-15 11:13:43.4140,8.18,8.9,-0.97,12.12
2022-11-15 11:13:43.4170,8.01,11.16,-0.03,13.73
2022-11-15 11:13:43.4300,7.7,12.6,1.61,14.85
2022-11-15 11:13:43.4330,7.47,13.57,3.1,15.79
2022-11-15 11:13:43.4440,7.83,14.08,3.96,16.59
2022-11-15 11:13:43.4470,8.11,13.4,3.3,16.0
2022-11-15 11:13:43.4640,7.67,12.08,1.5,14.38
2022-11-15 11:13:43.4660,6.56,10.86,-0.88,12.71
2022-11-15 11:13:43.4800,5.24,9.76,-2.92,11.45
2022-11-15 11:13:43.4820,3.54,7.5,-3.3,8.92
2022-11-15 11:13:43.4960,1.57,4.56,-2.74,5.54
2022-11-15 11:13:43.4980,0.59,2.24,-1.82,2.94
2022-11-15 11:13:43.5120,0.48,-2.35,2.22,3.26
2022-11-15 11:13:43.5150,-0.09,-10.31,5.58,11.72
2022-11-15 11:13:43.5280,-1.94,-22.99,6.11,23.86
2022-11-15 11:13:43.5300,-1.09,-42.8,5.49,43.16
2022-11-15 11:13:43.5470,0.15,-58.72,3.51,58.82
2022-11-15 11:13:43.5490,1.13,-59.22,-0.42,59.23
2022-11-15 11:13:43.5630,1.7,-36.12,-2.87,36.27
2022-11-15 11:13:43.5650,0.01,-14.48,-1.91,14.6
2022-11-15 11:13:43.5800,0.45,-4.1,-3.29,5.27
2022-11-15 11:13:43.5830,1.84,2.67,-4.31,5.39
2022-11-15 11:13:43.5950,2.73,5.75,-4.49,7.78
2022-11-15 11:13:43.5980,2.2,6.47,-4.52,8.19
2022-11-15 11:13:43.6110,-1.38,7.01,-4.88,8.65
2022-11-15 11:13:43.6130,-5.9,6.81,-5.56,10.58
2022-11-15 11:13:43.6310,-9.35,6.95,-6.36,13.27
2022-11-15 11:13:43.6330,-10.89,8.34,-6.12,15.02
2022-11-15 11:13:43.6470,-11.05,8.97,-5.31,15.19
2022-11-15 11:13:43.6500,-10.33,9.31,-4.85,14.72
2022-11-15 11:13:43.6620,-9.55,10.03,-4.39,14.52
2022-11-15 11:13:43.6650,-9.12,10.57,-3.66,14.43
2022-11-15 11:13:43.6800,-8.64,11.62,-3.2,14.82
2022-11-15 11:13:43.6830,-8.12,13.52,-2.88,16.03
2022-11-15 11:13:43.6940,-7.91,16.84,-1.55,18.66
2022-11-15 11:13:43.6960,-7.52,19.62,-0.6,21.02
2022-11-15 11:13:43.7140,-7.1,20.64,0.26,21.82
2022-11-15 11:13:43.7160,-6.92,19.62,1.5,20.85
2022-11-15 11:13:43.7300,-6.77,16.87,2.46,18.34
2022-11-15 11:13:43.7320,-5.2,15.96,4.49,17.37
2022-11-15 11:13:43.7470,-1.63,11.53,7.66,13.93
2022-11-15 11:13:43.7500,-0.12,2.8,11.51,11.84
2022-11-15 11:13:43.7620,1.53,-4.84,13.75,14.65
2022-11-15 11:13:43.7650,1.41,-5.98,4.04,7.35
2022-11-15 11:13:43.7780,-0.38,-0.83,-12.32,12.35
2022-11-15 11:13:43.7800,-0.72,-2.86,-16.1,16.36
2022-11-15 11:13:43.7980,-1.59,-8.98,-14.73,17.32
2022-11-15 11:13:43.8000,1.0,-21.55,-12.66,25.01
2022-11-15 11:13:43.8130,5.85,-37.03,2.51,37.57
2022-11-15 11:13:43.8150,0.7,-34.35,9.43,35.62
2022-11-15 11:13:43.8300,-6.35,-17.97,-2.39,19.2
2022-11-15 11:13:43.8330,-5.2,-8.27,-6.85,11.93
2022-11-15 11:13:43.8450,-3.33,-3.72,-7.73,9.2
2022-11-15 11:13:43.8480,-2.61,-1.07,-6.06,6.68
2022-11-15 11:13:43.8610,-2.17,1.34,-2.99,3.92
2022-11-15 11:13:43.8640,-2.54,2.96,-0.74,3.96
2022-11-15 11:13:43.8810,-4.41,0.6,1.11,4.58
2022-11-15 11:13:43.8830,-0.92,-7.69,-2.8,8.23
2022-11-15 11:13:43.8970,6.53,-10.34,-8.33,14.79
2022-11-15 11:13:43.9000,11.46,-12.23,-1.15,16.79
2022-11-15 11:13:43.9130,17.98,-10.6,16.68,26.71
2022-11-15 11:13:43.9150,14.42,-8.03,20.34,26.19
2022-11-15 11:13:43.9300,5.18,-8.36,11.99,15.5
2022-11-15 11:13:43.9330,3.67,-7.04,7.46,10.89
2022-11-15 11:13:43.9450,5.95,-2.17,10.56,12.31
2022-11-15 11:13:43.9470,7.07,0.88,10.38,12.58
2022-11-15 11:13:43.9640,6.81,1.05,5.89,9.06
2022-11-15 11:13:43.9660,6.53,1.08,1.69,6.83
2022-11-15 11:13:43.9790,6.92,2.96,-0.05,7.52
2022-11-15 11:13:43.9810,7.19,5.26,-0.24,8.91
2022-11-15 11:13:43.9940,7.59,8.07,0.17,11.07
2022-11-15 11:13:43.9960,8.03,10.37,1.75,13.23
2022-11-15 11:13:44.0130,8.2,11.79,3.04,14.67
2022-11-15 11:13:44.0150,8.48,12.39,5.13,15.86
2022-11-15 11:13:44.0280,9.23,12.26,8.74,17.66
2022-11-15 11:13:44.0300,8.72,10.29,7.09,15.23
2022-11-15 11:13:44.0470,7.19,8.38,2.82,11.39
2022-11-15 11:13:44.0490,5.31,7.76,0.72,9.43
2022-11-15 11:13:44.0630,3.38,7.44,-1.22,8.26
2022-11-15 11:13:44.0650,1.96,7.07,-4.23,8.46
2022-11-15 11:13:44.0800,0.67,5.69,-5.67,8.06
2022-11-15 11:13:44.0830,-0.01,3.26,-4.68,5.7
2022-11-15 11:13:44.0970,0.19,1.93,-3.84,4.3
2022-11-15 11:13:44.1000,-0.64,-2.04,-0.1,2.14
2022-11-15 11:13:44.1120,-2.15,-12.44,8.18,15.04
2022-11-15 11:13:44.1140,-3.19,-34.74,14.23,37.67
2022-11-15 11:13:44.1310,-2.58,-62.0,11.19,63.05
2022-11-15 11:13:44.1330,-0.8,-68.11,-1.62,68.13
2022-11-15 11:13:44.1470,-0.67,-41.27,-9.59,42.37
2022-11-15 11:13:44.1500,-2.36,-14.07,-8.89,16.8
2022-11-15 11:13:44.1630,-4.41,-3.35,-4.27,6.99
2022-11-15 11:13:44.1660,-4.37,2.59,-4.27,6.63
2022-11-15 11:13:44.1800,-1.71,6.6,-5.43,8.71
2022-11-15 11:13:44.1830,-0.66,8.67,-4.93,9.99
2022-11-15 11:13:44.1940,-0.37,9.11,-5.01,10.4
2022-11-15 11:13:44.1970,-1.48,9.17,-5.0,10.54
2022-11-15 11:13:44.2140,-2.96,9.14,-4.17,10.47
2022-11-15 11:13:44.2160,-3.97,9.73,-4.02,11.25
2022-11-15 11:13:44.2310,-4.6,9.84,-4.54,11.77
2022-11-15 11:13:44.2340,-5.19,9.01,-5.51,11.76
2022-11-15 11:13:44.2470,-5.58,8.95,-6.2,12.23
2022-11-15 11:13:44.2490,-6.1,9.48,-5.08,12.36
2022-11-15 11:13:44.2630,-6.64,10.21,-3.29,12.61
2022-11-15 11:13:44.2660,-6.79,11.71,-1.96,13.67
2022-11-15 11:13:44.2780,-6.89,14.41,-1.8,16.07
2022-11-15 11:13:44.2800,-6.18,16.79,-3.92,18.31
2022-11-15 11:13:44.2980,-5.11,17.51,-5.87,19.16
2022-11-15 11:13:44.2990,-5.26,15.98,-4.85,17.5
2022-11-15 11:13:44.3130,-5.71,12.94,-2.43,14.35
2022-11-15 11:13:44.3150,-4.68,11.5,0.91,12.44
2022-11-15 11:13:44.3300,-1.08,10.54,4.84,11.64
2022-11-15 11:13:44.3330,1.55,5.61,8.1,9.97
2022-11-15 11:13:44.3450,2.82,-2.09,15.21,15.6
2022-11-15 11:13:44.3480,2.84,-7.14,14.7,16.58
2022-11-15 11:13:44.3610,-0.56,-5.18,1.39,5.39
2022-11-15 11:13:44.3630,-4.45,-4.35,-6.8,9.21
2022-11-15 11:13:44.3810,-5.31,-5.61,-9.76,12.44
2022-11-15 11:13:44.3830,-6.35,-12.6,-12.85,19.08
2022-11-15 11:13:44.3950,-3.38,-27.79,-10.54,29.91
2022-11-15 11:13:44.3980,-1.41,-34.42,-0.16,34.44
2022-11-15 11:13:44.4130,-4.87,-22.46,-0.13,22.98
2022-11-15 11:13:44.4160,-5.88,-8.74,-4.47,11.44
2022-11-15 11:13:44.4290,-3.77,-1.9,-8.0,9.04
2022-11-15 11:13:44.4310,-2.69,2.42,-9.4,10.07
2022-11-15 11:13:44.4450,-2.63,5.83,-7.7,10.0
2022-11-15 11:13:44.4470,-2.26,7.21,-6.58,10.01
2022-11-15 11:13:44.4650,-1.35,7.13,-8.03,10.82
2022-11-15 11:13:44.4660,0.3,4.45,-8.67,9.74
2022-11-15 11:13:44.4800,1.74,-3.62,-4.4,5.95
2022-11-15 11:13:44.4820,4.6,-11.38,-1.16,12.32
2022-11-15 11:13:44.4960,12.53,-16.82,9.01,22.82
2022-11-15 11:13:44.4980,18.09,-18.28,19.25,32.12
2022-11-15 11:13:44.5130,11.2,-14.52,15.51,24.01
2022-11-15 11:13:44.5160,3.56,-9.66,8.02,13.05
2022-11-15 11:13:44.5280,0.7,-4.29,7.84,8.96
2022-11-15 11:13:44.5300,1.13,-0.86,8.93,9.04
2022-11-15 11:13:44.5470,1.68,1.02,7.99,8.22
2022-11-15 11:13:44.5490,3.27,3.04,6.22,7.65
2022-11-15 11:13:44.5630,5.6,4.46,4.28,8.34
2022-11-15 11:13:44.5660,7.25,4.96,2.92,9.25
2022-11-15 11:13:44.5800,8.19,5.04,1.43,9.72
2022-11-15 11:13:44.5830,9.31,6.38,1.11,11.34
2022-11-15 11:13:44.5950,10.4,7.94,1.36,13.15
2022-11-15 11:13:44.5980,11.41,9.29,1.63,14.8
2022-11-15 11:13:44.6110,11.87,10.09,1.84,15.68
2022-11-15 11:13:44.6130,12.02,10.34,2.77,16.09
2022-11-15 11:13:44.6310,11.83,9.93,3.53,15.84
2022-11-15 11:13:44.6330,11.0,8.83,3.55,14.54
2022-11-15 11:13:44.6450,9.21,7.69,1.18,12.05
2022-11-15 11:13:44.6480,6.68,7.31,-3.07,10.36
2022-11-15 11:13:44.6630,4.43,6.81,-5.05,9.56
2022-11-15 11:13:44.6660,2.56,4.75,-5.15,7.45
2022-11-15 11:13:44.6790,1.13,1.88,-4.47,4.97
2022-11-15 11:13:44.6810,0.59,-2.48,-1.32,2.87
2022-11-15 11:13:44.6960,0.77,-11.96,7.04,13.89
2022-11-15 11:13:44.6980,-0.94,-26.74,13.5,29.96
2022-11-15 11:13:44.7120,-3.36,-44.83,11.05,46.29
2022-11-15 11:13:44.7140,-6.01,-58.99,5.68,59.56
2022-11-15 11:13:44.7300,-8.18,-55.4,2.48,56.05
2022-11-15 11:13:44.7320,-7.25,-34.46,-0.78,35.22
2022-11-15 11:13:44.7460,-6.63,-15.43,-5.37,17.63
2022-11-15 11:13:44.7470,-7.47,-3.67,-5.38,9.91
2022-11-15 11:13:44.7630,-4.88,1.93,-5.04,7.27
2022-11-15 11:13:44.7660,-1.75,4.21,-6.28,7.76
2022-11-15 11:13:44.7770,0.63,4.89,-8.1,9.48
2022-11-15 11:13:44.7800,0.62,5.26,-8.83,10.29
2022-11-15 11:13:44.7980,-2.62,5.7,-6.42,8.97
2022-11-15 11:13:44.7990,-7.78,7.21,-3.74,11.24
2022-11-15 11:13:44.8130,-11.54,8.91,-1.91,14.7
2022-11-15 11:13:44.8160,-11.25,10.08,-2.28,15.27
2022-11-15 11:13:44.8300,-8.39,11.4,-3.75,14.64
2022-11-15 11:13:44.8330,-6.07,12.14,-4.33,14.24
2022-11-15 11:13:44.8450,-5.47,12.59,-4.08,14.32
2022-11-15 11:13:44.8470,-5.57,13.71,-3.29,15.15
2022-11-15 11:13:44.8630,-5.66,15.64,-2.03,16.75
2022-11-15 11:13:44.8650,-5.48,17.39,-1.26,18.27
2022-11-15 11:13:44.8810,-4.88,17.83,-1.86,18.57
2022-11-15 11:13:44.8830,-5.02,17.45,-1.77,18.24
2022-11-15 11:13:44.8970,-5.6,15.22,-1.21,16.26
2022-11-15 11:13:44.8980,-5.69,12.43,-0.03,13.67
2022-11-15 11:13:44.9130,-3.68,9.99,4.79,11.67
2022-11-15 11:13:44.9160,1.78,4.16,11.3,12.17
2022-11-15 11:13:44.9290,3.39,-3.95,12.11,13.18
2022-11-15 11:13:44.9320,3.56,-9.28,9.14,13.5
2022-11-15 11:13:44.9440,1.48,-5.88,-3.25,6.87
2022-11-15 11:13:44.9460,0.0,-2.0,-10.91,11.09
2022-11-15 11:13:44.9640,-1.89,-2.86,-8.94,9.57
2022-11-15 11:13:44.9660,-3.65,-7.36,-6.51,10.48
2022-11-15 11:13:44.9810,-4.28,-20.24,-6.05,21.55
2022-11-15 11:13:44.9840,-4.15,-35.67,4.96,36.25
2022-11-15 11:13:44.9950,-8.71,-29.34,1.57,30.64
2022-11-15 11:13:44.9980,-9.21,-13.9,-7.07,18.11
2022-11-15 11:13:45.0120,-5.28,-4.4,-8.3,10.77
2022-11-15 11:13:45.0140,-2.94,0.53,-8.53,9.03
2022-11-15 11:13:45.0280,-1.93,4.06,-6.65,8.02
2022-11-15 11:13:45.0300,-1.9,6.65,-5.4,8.77
2022-11-15 11:13:45.0480,-2.27,7.06,-6.31,9.73
2022-11-15 11:13:45.0490,-2.13,5.6,-7.13,9.31
2022-11-15 11:13:45.0630,-0.51,-1.68,-4.75,5.06
2022-11-15 11:13:45.0650,3.33,-11.65,-4.59,12.95
2022-11-15 11:13:45.0800,7.85,-15.85,-4.21,18.18
2022-11-15 11:13:45.0840,16.38,-18.37,11.39,27.11
2022-11-15 11:13:45.0950,18.4,-17.59,24.96,35.65
2022-11-15 11:13:45.0980,8.04,-15.49,16.99,24.35
2022-11-15 11:13:45.1110,2.91,-12.17,11.59,17.05
2022-11-15 11:13:45.1130,4.27,-5.28,13.66,15.25
2022-11-15 11:13:45.1310,4.9,-1.04,12.11,13.1
2022-11-15 11:13:45.1330,5.08,0.56,8.01,9.5
2022-11-15 11:13:45.1480,6.02,0.71,4.11,7.32
2022-11-15 11:13:45.1500,6.92,1.01,1.45,7.14
2022-11-15 11:13:45.1640,7.12,2.16,-0.14,7.44
2022-11-15 11:13:45.1660,7.39,4.5,-0.51,8.66
2022-11-15 11:13:45.1800,8.12,7.47,0.43,11.04
2022-11-15 11:13:45.1830,9.14,9.98,2.26,13.72
2022-11-15 11:13:45.1940,9.76,11.12,4.78,15.54
2022-11-15 11:13:45.1970,10.17,11.52,6.73,16.77
2022-11-15 11:13:45.2140,10.12,10.94,6.75,16.36
2022-11-15 11:13:45.2160,8.66,9.34,4.93,13.65
2022-11-15 11:13:45.2300,6.0,8.13,1.45,10.2
2022-11-15 11:13:45.2320,3.61,7.72,-2.54,8.89
2022-11-15 11:13:45.2470,2.13,7.27,-5.47,9.34
2022-11-15 11:13:45.2490,0.78,5.65,-5.94,8.23
2022-11-15 11:13:45.2630,-0.09,2.76,-3.71,4.62
2022-11-15 11:13:45.2660,0.03,-0.13,-0.73,0.74
2022-11-15 11:13:45.2780,-0.37,-6.1,4.55,7.61
2022-11-15 11:13:45.2800,-1.21,-17.39,11.01,20.61
2022-11-15 11:13:45.2980,-3.44,-34.55,11.58,36.6
2022-11-15 11:13:45.3000,-4.24,-55.01,6.58,55.56
2022-11-15 11:13:45.3140,-3.65,-62.39,-2.76,62.55
2022-11-15 11:13:45.3170,-3.4,-47.48,-9.85,48.61
2022-11-15 11:13:45.3280,-8.31,-21.38,-10.09,25.05
2022-11-15 11:13:45.3310,-9.11,-6.81,-5.07,12.45
2022-11-15 11:13:45.3450,-5.55,0.7,-3.44,6.56
2022-11-15 11:13:45.3480,-1.7,5.61,-4.38,7.31
2022-11-15 11:13:45.3610,1.64,7.01,-5.7,9.18
2022-11-15 11:13:45.3630,1.3,8.01,-6.57,10.44
2022-11-15 11:13:45.3810,-0.57,8.65,-7.0,11.14
2022-11-15 11:13:45.3830,-2.75,9.5,-7.38,12.34
2022-11-15 11:13:45.3970,-4.94,10.31,-6.82,13.31
2022-11-15 11:13:45.3980,-6.82,11.17,-5.91,14.35
2022-11-15 11:13:45.4130,-7.49,12.02,-5.18,15.08
2022-11-15 11:13:45.4150,-7.32,12.74,-4.9,15.48
2022-11-15 11:13:45.4290,-7.45,13.72,-4.31,16.19
2022-11-15 11:13:45.4330,-7.65,15.03,-3.13,17.15
2022-11-15 11:13:45.4440,-7.29,17.12,-1.89,18.7
2022-11-15 11:13:45.4470,-6.56,18.9,-1.61,20.07
2022-11-15 11:13:45.4640,-5.38,19.53,-3.23,20.51
2022-11-15 11:13:45.4660,-5.02,19.34,-3.68,20.31
2022-11-15 11:13:45.4800,-5.29,16.63,-2.73,17.66
2022-11-15 11:13:45.4820,-4.66,13.59,-1.97,14.5
2022-11-15 11:13:45.4950,-2.51,10.08,-0.4,10.39
2022-11-15 11:13:45.4980,0.45,4.54,1.96,4.96
2022-11-15 11:13:45.5130,1.64,-1.33,6.84,7.15
2022-11-15 11:13:45.5160,2.92,-7.38,14.25,16.31
2022-11-15 11:13:45.5280,2.02,-8.44,12.94,15.58
2022-11-15 11:13:45.5300,-0.81,-0.86,-2.28,2.56
2022-11-15 11:13:45.5470,-2.17,2.08,-8.23,8.76
2022-11-15 11:13:45.5490,-3.72,0.54,-6.77,7.74
2022-11-15 11:13:45.5630,-5.23,-3.68,-4.97,8.09
2022-11-15 11:13:45.5650,-7.26,-12.12,-6.95,15.74
2022-11-15 11:13:45.5800,-7.63,-29.79,-0.92,30.76
2022-11-15 11:13:45.5840,-7.41,-34.5,4.59,35.58
2022-11-15 11:13:45.5950,-7.26,-19.14,-6.03,21.34
2022-11-15 11:13:45.5980,-4.49,-6.62,-11.79,14.24
2022-11-15 11:13:45.6110,-2.09,-0.53,-11.42,11.62
2022-11-15 11:13:45.6130,-1.18,2.89,-9.5,9.99
2022-11-15 11:13:45.6310,-0.85,4.41,-6.25,7.69
2022-11-15 11:13:45.6330,-1.15,3.16,-5.48,6.42
2022-11-15 11:13:45.6460,-1.55,-0.12,-6.17,6.36
2022-11-15 11:13:45.6480,-1.72,-5.49,-5.33,7.84
2022-11-15 11:13:45.6640,1.17,-14.29,-7.77,16.3
2022-11-15 11:13:45.6660,7.29,-17.72,-8.46,20.94
2022-11-15 11:13:45.6780,16.34,-18.78,6.41,25.7
2022-11-15 11:13:45.6810,19.24,-15.97,26.01,36.07
2022-11-15 11:13:45.6940,6.22,-14.07,22.01,26.85
2022-11-15 11:13:45.6970,0.26,-10.48,11.8,15.78
2022-11-15 11:13:45.7140,0.31,-3.58,13.62,14.08
2022-11-15 11:13:45.7160,-0.22,-0.41,13.83,13.83
2022-11-15 11:13:45.7310,1.0,1.13,9.99,10.1
2022-11-15 11:13:45.7340,4.16,1.91,5.08,6.83
2022-11-15 11:13:45.7450,7.51,2.23,2.94,8.36
2022-11-15 11:13:45.7480,9.14,2.29,1.81,9.59
2022-11-15 11:13:45.7630,9.44,2.91,-0.17,9.87
2022-11-15 11:13:45.7660,9.72,5.13,-1.49,11.09
2022-11-15 11:13:45.7780,10.42,8.3,-0.56,13.33
2022-11-15 11:13:45.7800,11.24,10.85,2.84,15.87
2022-11-15 11:13:45.7980,11.62,11.96,6.0,17.72
2022-11-15 11:13:45.7990,11.8,11.77,6.8,18.0
2022-11-15 11:13:45.8130,11.24,10.11,5.57,16.11
2022-11-15 11:13:45.8150,9.49,8.08,2.47,12.7
2022-11-15 11:13:45.8280,7.19,7.15,-2.89,10.54
2022-11-15 11:13:45.8310,4.96,6.84,-6.79,10.83
2022-11-15 11:13:45.8460,3.13,5.93,-7.16,9.8
2022-11-15 11:13:45.8490,2.08,4.01,-5.31,6.97
2022-11-15 11:13:45.8610,1.69,-0.24,-0.75,1.86
2022-11-15 11:13:45.8630,0.54,-6.51,4.42,7.88
2022-11-15 11:13:45.8810,-2.32,-15.37,8.93,17.92
2022-11-15 11:13:45.8830,-5.38,-27.78,9.8,29.94
2022-11-15 11:13:45.8970,-8.56,-41.13,5.83,42.41
2022-11-15 11:13:45.8980,-11.59,-55.17,6.09,56.7
2022-11-15 11:13:45.9120,-9.36,-56.21,1.74,57.01
2022-11-15 11:13:45.9140,-4.71,-38.31,-6.09,39.07
2022-11-15 11:13:45.9280,-3.91,-18.62,-8.14,20.69
2022-11-15 11:13:45.9310,-4.02,-4.79,-5.06,8.04
2022-11-15 11:13:45.9450,-3.89,3.03,-5.88,7.67
2022-11-15 11:13:45.9470,-1.43,6.23,-6.74,9.28
2022-11-15 11:13:45.9640,0.28,7.05,-6.73,9.75
2022-11-15 11:13:45.9660,-0.58,8.4,-7.11,11.02
2022-11-15 11:13:45.9810,-2.1,9.58,-7.88,12.58
2022-11-15 11:13:45.9830,-4.08,10.69,-7.46,13.65
2022-11-15 11:13:45.9960,-6.11,11.01,-6.89,14.35
2022-11-15 11:13:45.9980,-7.5,11.12,-7.02,15.13
2022-11-15 11:13:46.0140,-7.75,11.29,-6.67,15.23
2022-11-15 11:13:46.0170,-7.28,11.9,-6.22,15.27
2022-11-15 11:13:46.0280,-7.16,12.83,-5.28,15.61
2022-11-15 11:13:46.0300,-7.38,14.26,-3.64,16.46
2022-11-15 11:13:46.0470,-8.03,17.58,-1.15,19.36
2022-11-15 11:13:46.0490,-7.81,21.35,-0.93,22.75
2022-11-15 11:13:46.0640,-6.61,22.25,-3.14,23.42
2022-11-15 11:13:46.0670,-5.49,21.32,-4.13,22.39
2022-11-15 11:13:46.0800,-5.21,18.11,-2.63,19.02
2022-11-15 11:13:46.0830,-4.98,15.05,-1.69,15.94
2022-11-15 11:13:46.0960,-3.95,13.66,-0.57,14.23
2022-11-15 11:13:46.0980,-0.95,9.58,0.96,9.67
2022-11-15 11:13:46.1110,2.27,1.92,10.19,10.61
2022-11-15 11:13:46.1130,2.4,-8.9,24.42,26.1
2022-11-15 11:13:46.1290,2.58,-14.06,25.56,29.28
2022-11-15 11:13:46.1310,-0.11,-2.58,3.62,4.44
2022-11-15 11:13:46.1470,-2.96,2.1,-9.84,10.48
2022-11-15 11:13:46.1480,-4.18,-0.51,-13.49,14.13
2022-11-15 11:13:46.1620,-5.74,-5.17,-14.59,16.5
2022-11-15 11:13:46.1640,-7.45,-15.0,-13.77,21.68
2022-11-15 11:13:46.1780,-5.91,-27.3,-13.46,31.0
2022-11-15 11:13:46.1810,-5.43,-30.05,-6.8,31.28
2022-11-15 11:13:46.1950,-6.22,-19.99,-1.23,20.97
2022-11-15 11:13:46.1970,-6.09,-9.48,-4.76,12.23
2022-11-15 11:13:46.2140,-4.65,-3.82,-7.82,9.86
2022-11-15 11:13:46.2160,-3.62,0.17,-6.63,7.55
2022-11-15 11:13:46.2300,-2.94,2.6,-3.85,5.49
2022-11-15 11:13:46.2320,-2.12,3.14,-4.26,5.7
2022-11-15 11:13:46.2460,-1.26,2.94,-6.9,7.6
2022-11-15 11:13:46.2480,-1.53,-1.42,-5.75,6.11
2022-11-15 11:13:46.2630,-0.17,-8.76,-5.11,10.14
2022-11-15 11:13:46.2660,6.22,-13.67,-3.52,15.42
2022-11-15 11:13:46.2770,15.74,-16.8,10.36,25.24
2022-11-15 11:13:46.2800,14.68,-16.98,21.53,31.1
2022-11-15 11:13:46.2970,5.02,-16.1,15.33,22.79
2022-11-15 11:13:46.2990,0.5,-11.56,9.52,14.98
2022-11-15 11:13:46.3140,-0.2,-4.45,10.14,11.07
2022-11-15 11:13:46.3170,0.17,-0.58,10.45,10.46
2022-11-15 11:13:46.3300,2.28,1.24,8.83,9.2
2022-11-15 11:13:46.3330,5.95,1.99,6.98,9.38
2022-11-15 11:13:46.3460,8.77,1.72,6.31,10.94
2022-11-15 11:13:46.3480,8.93,0.77,5.06,10.29
2022-11-15 11:13:46.3610,8.41,0.71,2.42,8.78
2022-11-15 11:13:46.3630,8.65,2.38,0.59,8.99
2022-11-15 11:13:46.3810,9.47,4.83,0.4,10.63
2022-11-15 11:13:46.3830,10.37,6.65,0.99,12.35
2022-11-15 11:13:46.3980,10.96,7.88,2.59,13.74
2022-11-15 11:13:46.4010,11.18,8.85,4.11,14.83
2022-11-15 11:13:46.4130,10.72,9.22,4.65,14.88
2022-11-15 11:13:46.4160,10.04,9.23,5.4,14.66
2022-11-15 11:13:46.4300,8.35,8.23,3.78,12.31
2022-11-15 11:13:46.4330,5.64,6.91,-1.11,8.98
2022-11-15 11:13:46.4450,3.74,6.37,-5.42,9.16
2022-11-15 11:13:46.4470,2.41,5.36,-7.64,9.63
2022-11-15 11:13:46.4650,1.46,2.75,-6.29,7.01
2022-11-15 11:13:46.4660,1.68,-0.53,-2.17,2.79
2022-11-15 11:13:46.4800,2.2,-5.27,0.66,5.74
2022-11-15 11:13:46.4820,-0.34,-14.38,5.94,15.56
2022-11-15 11:13:46.4960,-4.19,-29.15,11.58,31.64
2022-11-15 11:13:46.4980,-8.94,-49.46,12.87,51.88
2022-11-15 11:13:46.5130,-14.14,-64.24,6.24,66.07
2022-11-15 11:13:46.5160,-12.4,-57.56,-3.31,58.97
2022-11-15 11:13:46.5280,-11.58,-28.82,-13.2,33.74
2022-11-15 11:13:46.5300,-11.75,-8.44,-10.71,18.0
2022-11-15 11:13:46.5470,-9.46,0.71,-4.27,10.4
2022-11-15 11:13:46.5490,-6.57,6.94,-3.3,10.11
2022-11-15 11:13:46.5610,-2.56,9.38,-3.76,10.42
2022-11-15 11:13:46.5630,0.33,9.47,-4.63,10.54
2022-11-15 11:13:46.5780,-0.26,9.91,-6.09,11.63
2022-11-15 11:13:46.5790,-1.83,10.48,-6.18,12.3
2022-11-15 11:13:46.5950,-3.24,10.87,-5.07,12.42
2022-11-15 11:13:46.5980,-4.44,11.34,-3.85,12.77
2022-11-15 11:13:46.6110,-4.97,11.59,-3.88,13.19
2022-11-15 11:13:46.6130,-4.67,11.85,-4.38,13.46
2022-11-15 11:13:46.6310,-4.42,12.3,-4.63,13.86
2022-11-15 11:13:46.6330,-4.57,13.11,-4.19,14.5
2022-11-15 11:13:46.6470,-5.0,14.06,-2.27,15.09
2022-11-15 11:13:46.6510,-4.69,15.41,-1.0,16.13
2022-11-15 11:13:46.6630,-3.85,16.35,-2.92,17.04
2022-11-15 11:13:46.6660,-2.61,16.52,-5.42,17.58
2022-11-15 11:13:46.6800,-2.46,15.65,-5.79,16.86
2022-11-15 11:13:46.6820,-2.78,13.48,-4.52,14.48
2022-11-15 11:13:46.6940,-2.94,10.7,-2.79,11.44
2022-11-15 11:13:46.6960,-1.95,8.48,-0.18,8.7
2022-11-15 11:13:46.7140,1.51,3.64,2.99,4.94
2022-11-15 11:13:46.7160,3.84,-3.39,5.56,7.55
2022-11-15 11:13:46.7300,3.14,-6.29,6.86,9.82
2022-11-15 11:13:46.7320,1.47,-5.2,5.63,7.8
2022-11-15 11:13:46.7460,-1.37,-2.22,0.04,2.6
2022-11-15 11:13:46.7490,-5.92,-4.98,-1.02,7.8
2022-11-15 11:13:46.7640,-9.1,-7.54,0.78,11.84
2022-11-15 11:13:46.7670,-7.6,-6.61,-5.41,11.43
2022-11-15 11:13:46.7780,-9.12,-14.09,-7.9,18.55
2022-11-15 11:13:46.7800,-9.53,-20.71,-5.54,23.46
2022-11-15 11:13:46.7980,-11.01,-17.37,-2.81,20.75
2022-11-15 11:13:46.8000,-9.4,-7.9,-5.02,13.26
2022-11-15 11:13:46.8130,-5.27,-2.14,-8.86,10.52
2022-11-15 11:13:46.8150,-2.92,0.23,-10.47,10.87
2022-11-15 11:13:46.8290,-1.87,1.74,-11.41,11.69
2022-11-15 11:13:46.8310,-1.62,2.04,-11.5,11.79
2022-11-15 11:13:46.8460,-1.33,0.17,-11.66,11.73
2022-11-15 11:13:46.8490,-0.02,-4.3,-11.07,11.87
2022-11-15 11:13:46.8610,2.54,-11.59,-8.35,14.5
2022-11-15 11:13:46.8630,4.52,-16.9,-5.58,18.36
2022-11-15 11:13:46.8810,10.66,-20.27,5.11,23.46
2022-11-15 11:13:46.8830,17.53,-20.3,24.49,36.32
2022-11-15 11:13:46.8960,10.76,-17.64,26.69,33.75
2022-11-15 11:13:46.8980,2.7,-17.03,15.69,23.31
2022-11-15 11:13:46.9130,2.15,-10.62,12.0,16.16
2022-11-15 11:13:46.9160,4.75,-3.81,15.43,16.58
2022-11-15 11:13:46.9300,5.61,-1.61,14.43,15.56
2022-11-15 11:13:46.9330,5.41,-1.63,9.57,11.11
2022-11-15 11:13:46.9450,5.8,-2.2,4.16,7.46
2022-11-15 11:13:46.9470,6.33,-1.69,1.64,6.75
2022-11-15 11:13:46.9640,6.62,-0.3,-0.03,6.62
2022-11-15 11:13:46.9660,6.93,1.33,-2.05,7.34
2022-11-15 11:13:46.9800,7.55,3.7,-2.91,8.89
2022-11-15 11:13:46.9820,8.58,6.53,-1.0,10.82
2022-11-15 11:13:46.9960,9.76,8.8,3.92,13.71
2022-11-15 11:13:46.9980,10.65,10.45,8.17,17.01
2022-11-15 11:13:47.0140,10.55,11.14,8.71,17.64
2022-11-15 11:13:47.0170,9.79,10.97,5.41,15.66
2022-11-15 11:13:47.0280,8.23,9.98,1.34,13.0
2022-11-15 11:13:47.0300,5.85,8.27,-2.96,10.55
2022-11-15 11:13:47.0480,3.46,6.5,-6.84,10.05
2022-11-15 11:13:47.0500,1.56,3.97,-6.3,7.6
2022-11-15 11:13:47.0640,0.44,0.29,-3.47,3.5
2022-11-15 11:13:47.0660,0.48,-1.39,-1.71,2.25
2022-11-15 11:13:47.0810,0.23,-6.92,4.53,8.27
2022-11-15 11:13:47.0830,-0.83,-17.02,9.5,19.5
2022-11-15 11:13:47.0960,-4.27,-33.14,10.05,34.89
2022-11-15 11:13:47.1000,-9.84,-50.47,1.5,51.44
2022-11-15 11:13:47.1110,-14.52,-57.3,-5.48,59.36
2022-11-15 11:13:47.1130,-13.82,-41.73,-8.72,44.81
2022-11-15 11:13:47.1310,-12.25,-17.33,-9.54,23.26
2022-11-15 11:13:47.1330,-7.26,-4.75,-6.87,11.06
2022-11-15 11:13:47.1460,-2.55,2.6,-5.0,6.18
2022-11-15 11:13:47.1480,0.47,6.68,-4.04,7.82
2022-11-15 11:13:47.1620,0.61,8.37,-5.12,9.83
2022-11-15 11:13:47.1640,-0.65,9.33,-4.98,10.59
2022-11-15 11:13:47.1780,-2.02,9.92,-4.58,11.11
2022-11-15 11:13:47.1810,-3.24,10.15,-4.88,11.71
2022-11-15 11:13:47.1960,-3.78,11.18,-5.15,12.87
2022-11-15 11:13:47.1990,-4.15,12.43,-5.61,14.25
2022-11-15 11:13:47.2150,-4.49,13.23,-5.48,15.0
2022-11-15 11:13:47.2160,-4.99,13.53,-5.09,15.29
2022-11-15 11:13:47.2310,-5.48,13.93,-4.25,15.56
2022-11-15 11:13:47.2340,-5.47,14.6,-3.04,15.88
2022-11-15 11:13:47.2470,-5.13,16.08,-2.12,17.01
2022-11-15 11:13:47.2490,-4.91,18.32,-1.91,19.06
2022-11-15 11:13:47.2630,-4.21,19.51,-2.94,20.17
2022-11-15 11:13:47.2660,-3.15,18.99,-3.87,19.63
2022-11-15 11:13:47.2780,-2.67,17.7,-3.43,18.22
2022-11-15 11:13:47.2800,-2.9,15.7,-1.63,16.04
2022-11-15 11:13:47.2970,-2.78,14.17,0.89,14.46
2022-11-15 11:13:47.2990,-1.02,11.31,4.54,12.22
2022-11-15 11:13:47.3120,0.54,4.42,9.0,10.04
2022-11-15 11:13:47.3140,0.59,-2.6,13.06,13.32
2022-11-15 11:13:47.3300,1.07,-5.82,11.44,12.87
2022-11-15 11:13:47.3330,-1.82,-2.83,-0.72,3.44
2022-11-15 11:13:47.3460,-4.99,-3.24,-9.52,11.22
2022-11-15 11:13:47.3490,-6.85,-8.85,-10.57,15.39
2022-11-15 11:13:47.3610,-8.77,-21.5,-14.04,27.13
2022-11-15 11:13:47.3630,-6.01,-39.35,-9.76,40.98
2022-11-15 11:13:47.3810,-5.13,-38.22,2.78,38.66
2022-11-15 11:13:47.3830,-9.42,-17.65,-0.45,20.01
2022-11-15 11:13:47.3970,-7.83,-6.73,-7.85,12.97
2022-11-15 11:13:47.4000,-5.01,-2.27,-8.99,10.53
2022-11-15 11:13:47.4130,-3.15,1.48,-7.7,8.45
2022-11-15 11:13:47.4160,-1.67,5.03,-5.55,7.67
2022-11-15 11:13:47.4280,-0.76,7.17,-4.21,8.34
2022-11-15 11:13:47.4310,-0.61,7.4,-4.15,8.5
2022-11-15 11:13:47.4440,-2.29,0.87,-1.41,2.82
2022-11-15 11:13:47.4460,0.61,-5.69,-9.37,10.97
2022-11-15 11:13:47.4640,3.4,-10.98,-14.89,18.81
2022-11-15 11:13:47.4660,6.7,-17.08,-7.58,19.85
2022-11-15 11:13:47.4810,15.26,-19.09,17.21,29.89
2022-11-15 11:13:47.4830,13.13,-16.71,24.9,32.73
2022-11-15 11:13:47.4960,4.02,-14.75,15.89,22.05
2022-11-15 11:13:47.4990,-0.8,-10.32,11.36,15.36
2022-11-15 11:13:47.5130,1.15,-2.51,13.73,14.0
2022-11-15 11:13:47.5160,5.45,1.92,16.45,17.43
2022-11-15 11:13:47.5280,7.07,1.55,13.39,15.22
2022-11-15 11:13:47.5300,7.06,-0.87,8.09,10.77
2022-11-15 11:13:47.5470,7.24,-1.54,4.93,8.89
2022-11-15 11:13:47.5490,7.42,-0.8,2.62,7.9
2022-11-15 11:13:47.5620,7.39,0.39,-0.47,7.41
2022-11-15 11:13:47.5640,7.48,2.85,-1.73,8.18
2022-11-15 11:13:47.5780,8.11,5.89,-1.48,10.13
2022-11-15 11:13:47.5800,8.66,8.1,0.79,11.88
2022-11-15 11:13:47.5970,9.12,9.77,4.12,13.98
2022-11-15 11:13:47.6000,9.68,10.83,7.0,16.12
2022-11-15 11:13:47.6110,9.9,10.93,8.0,16.77
2022-11-15 11:13:47.6130,8.9,9.61,6.19,14.48
2022-11-15 11:13:47.6310,6.79,7.94,1.55,10.56
2022-11-15 11:13:47.6330,4.77,7.11,-4.35,9.6
2022-11-15 11:13:47.6470,3.43,6.51,-8.07,10.92
2022-11-15 11:13:47.6500,2.2,4.79,-8.51,10.01
2022-11-15 11:13:47.6630,1.45,2.39,-5.47,6.14
2022-11-15 11:13:47.6660,1.22,-0.62,-2.47,2.82
2022-11-15 11:13:47.6780,0.15,-8.04,3.47,8.75
2022-11-15 11:13:47.6810,-3.54,-22.7,12.03,25.93
2022-11-15 11:13:47.6940,-7.76,-43.31,13.51,46.02
2022-11-15 11:13:47.6970,-11.55,-61.8,8.25,63.4
2022-11-15 11:13:47.7140,-11.03,-61.51,0.45,62.49
2022-11-15 11:13:47.7160,-8.68,-34.27,-10.43,36.85
2022-11-15 11:13:47.7280,-9.8,-12.62,-12.11,20.04
2022-11-15 11:13:47.7310,-10.16,-2.91,-6.39,12.35
2022-11-15 11:13:47.7460,-7.15,3.54,-4.37,9.09
2022-11-15 11:13:47.7490,-2.03,7.19,-6.07,9.62
2022-11-15 11:13:47.7620,1.24,8.22,-6.63,10.63
2022-11-15 11:13:47.7650,1.0,8.81,-7.13,11.37
2022-11-15 11:13:47.7790,-0.61,9.28,-6.82,11.53
2022-11-15 11:13:47.7810,-3.02,9.96,-5.74,11.88
2022-11-15 11:13:47.7970,-4.52,10.67,-4.94,12.59
2022-11-15 11:13:47.7990,-5.05,11.3,-4.83,13.28
2022-11-15 11:13:47.8130,-5.37,11.95,-4.61,13.88
2022-11-15 11:13:47.8150,-5.42,12.39,-3.92,14.08
2022-11-15 11:13:47.8280,-5.23,13.0,-3.54,14.45
2022-11-15 11:13:47.8310,-4.63,14.17,-2.91,15.18
2022-11-15 11:13:47.8460,-3.89,16.33,-1.9,16.89
2022-11-15 11:13:47.8490,-3.21,17.52,-2.23,17.95
2022-11-15 11:13:47.8610,-2.52,17.4,-3.34,17.89
2022-11-15 11:13:47.8640,-1.78,17.2,-3.94,17.73
2022-11-15 11:13:47.8790,-1.28,16.14,-3.67,16.6
2022-11-15 11:13:47.8810,-1.6,13.64,-1.95,13.87
2022-11-15 11:13:47.8960,-1.55,11.54,0.78,11.66
2022-11-15 11:13:47.8980,0.67,8.65,4.88,9.95
2022-11-15 11:13:47.9130,3.42,2.6,9.26,10.2
2022-11-15 11:13:47.9160,3.46,-3.41,12.18,13.11
2022-11-15 11:13:47.9300,2.39,-6.04,10.05,11.96
2022-11-15 11:13:47.9330,-1.67,-3.39,-2.04,4.29
2022-11-15 11:13:47.9450,-4.7,-2.15,-10.56,11.75
2022-11-15 11:13:47.9470,-5.91,-6.14,-10.13,13.23
2022-11-15 11:13:47.9640,-7.35,-12.57,-11.04,18.27
2022-11-15 11:13:47.9660,-5.96,-23.87,-7.3,25.66
2022-11-15 11:13:47.9800,-6.14,-26.24,-0.68,26.95
2022-11-15 11:13:47.9820,-11.68,-15.67,-0.96,19.56
2022-11-15 11:13:47.9970,-11.0,-6.84,-4.43,13.68
2022-11-15 11:13:48.0000,-6.82,-2.44,-6.06,9.44
2022-11-15 11:13:48.0130,-4.55,0.01,-7.04,8.38
2022-11-15 11:13:48.0160,-2.62,2.73,-7.38,8.29
2022-11-15 11:13:48.0280,-1.74,4.99,-8.05,9.62
2022-11-15 11:13:48.0300,-1.04,4.55,-8.0,9.26
2022-11-15 11:13:48.0480,0.0,-2.27,-6.3,6.69
2022-11-15 11:13:48.0500,2.29,-7.33,-11.77,14.05
2022-11-15 11:13:48.0630,4.09,-12.13,-14.06,19.01
2022-11-15 11:13:48.0650,7.56,-17.77,-3.61,19.64
2022-11-15 11:13:48.0790,14.47,-20.85,21.89,33.51
2022-11-15 11:13:48.0810,6.68,-21.42,24.93,33.54
2022-11-15 11:13:48.0970,-0.51,-18.82,19.14,26.84
2022-11-15 11:13:48.0990,-1.23,-10.89,15.4,18.9
2022-11-15 11:13:48.1110,1.97,-2.68,15.43,15.78
2022-11-15 11:13:48.1130,5.64,0.16,16.57,17.5
2022-11-15 11:13:48.1310,6.62,-0.7,12.67,14.31
2022-11-15 11:13:48.1330,6.7,-2.49,6.67,9.77
2022-11-15 11:13:48.1460,7.0,-2.95,3.46,8.34
2022-11-15 11:13:48.1480,7.71,-1.45,2.36,8.19
2022-11-15 11:13:48.1640,7.76,-0.25,-0.34,7.77
2022-11-15 11:13:48.1660,7.89,1.67,-2.5,8.44
2022-11-15 11:13:48.1780,8.77,4.5,-2.46,10.15
2022-11-15 11:13:48.1810,10.1,6.92,0.83,12.27
2022-11-15 11:13:48.1940,11.24,8.74,5.41,15.23
2022-11-15 11:13:48.1960,11.98,10.17,8.82,18.02
2022-11-15 11:13:48.2140,12.05,10.55,9.43,18.58
2022-11-15 11:13:48.2160,10.58,9.18,4.38,14.67
2022-11-15 11:13:48.2300,7.99,7.61,-3.9,11.7
2022-11-15 11:13:48.2320,5.61,6.2,-7.9,11.5
2022-11-15 11:13:48.2450,3.04,2.45,-6.24,7.36
2022-11-15 11:13:48.2470,1.43,-1.01,-3.69,4.08
2022-11-15 11:13:48.2620,0.82,-3.77,-1.28,4.06
2022-11-15 11:13:48.2640,-0.52,-9.33,4.67,10.44
2022-11-15 11:13:48.2780,-4.12,-19.57,9.31,22.05
2022-11-15 11:13:48.2800,-7.79,-34.13,8.94,36.13
2022-11-15 11:13:48.2960,-13.01,-49.36,4.67,51.25
2022-11-15 11:13:48.2970,-17.57,-59.02,0.26,61.58
2022-11-15 11:13:48.3130,-14.69,-48.37,-6.56,50.97
2022-11-15 11:13:48.3150,-12.47,-22.6,-11.28,28.16
2022-11-15 11:13:48.3290,-8.22,-7.38,-9.37,14.48
2022-11-15 11:13:48.3310,-3.72,1.74,-7.05,8.15
2022-11-15 11:13:48.3470,-0.56,6.35,-6.2,8.89
2022-11-15 11:13:48.3500,1.68,7.22,-6.96,10.16
2022-11-15 11:13:48.3620,0.57,8.77,-7.14,11.32
2022-11-15 11:13:48.3640,-1.1,10.28,-5.51,11.71
2022-11-15 11:13:48.3810,-2.6,11.29,-4.53,12.43
2022-11-15 11:13:48.3830,-3.3,12.17,-5.12,13.6
2022-11-15 11:13:48.3960,-3.26,12.94,-6.17,14.7
2022-11-15 11:13:48.3980,-3.61,13.41,-5.67,15.0
2022-11-15 11:13:48.4130,-4.35,13.88,-3.86,15.04
2022-11-15 11:13:48.4160,-4.83,14.65,-2.58,15.63
2022-11-15 11:13:48.4290,-4.65,16.29,-1.9,17.04
2022-11-15 11:13:48.4310,-4.36,19.91,-1.13,20.41
2022-11-15 11:13:48.4440,-4.02,22.17,-3.2,22.75
2022-11-15 11:13:48.4460,-3.08,22.14,-6.2,23.19
2022-11-15 11:13:48.4640,-2.04,20.95,-7.41,22.31
2022-11-15 11:13:48.4660,-2.02,18.35,-5.1,19.15
2022-11-15 11:13:48.4810,-2.58,15.97,-2.05,16.3
2022-11-15 11:13:48.4830,-2.13,15.09,1.55,15.31
2022-11-15 11:13:48.4960,0.61,12.37,7.35,14.4
2022-11-15 11:13:48.4990,1.53,3.94,15.2,15.77
2022-11-15 11:13:48.5110,0.78,-4.76,23.77,24.25
2022-11-15 11:13:48.5140,1.44,-6.16,19.13,20.14
2022-11-15 11:13:48.5270,-0.38,0.38,1.42,1.51
2022-11-15 11:13:48.5300,-3.32,1.37,-11.12,11.68
2022-11-15 11:13:48.5470,-5.36,-3.75,-14.99,16.35
2022-11-15 11:13:48.5490,-8.35,-12.65,-17.69,23.29
2022-11-15 11:13:48.5640,-9.4,-27.12,-17.0,33.35
2022-11-15 11:13:48.5670,-8.87,-33.1,-14.22,37.1
2022-11-15 11:13:48.5780,-10.22,-24.92,-7.67,28.0
2022-11-15 11:13:48.5820,-10.88,-12.54,-1.37,16.65
2022-11-15 11:13:48.5950,-7.89,-5.22,-3.32,10.02
2022-11-15 11:13:48.5980,-4.76,-3.67,-6.31,8.71
2022-11-15 11:13:48.6120,-2.88,-1.64,-5.28,6.23
2022-11-15 11:13:48.6140,-1.85,0.17,-5.38,5.69
2022-11-15 11:13:48.6310,-1.45,0.41,-5.79,5.98
2022-11-15 11:13:48.6330,-1.9,-4.87,-4.22,6.71
2022-11-15 11:13:48.6470,1.87,-9.76,-8.67,13.18
2022-11-15 11:13:48.6500,7.02,-11.54,-6.82,15.13
2022-11-15 11:13:48.6620,14.99,-13.49,11.92,23.42
2022-11-15 11:13:48.6650,15.13,-13.09,27.76,34.21
2022-11-15 11:13:48.6790,3.29,-14.66,20.37,25.31
2022-11-15 11:13:48.6820,-2.35,-13.92,13.93,19.83
2022-11-15 11:13:48.6940,0.58,-6.61,15.6,16.95
2022-11-15 11:13:48.6960,3.93,-1.76,16.53,17.08
2022-11-15 11:13:48.7120,4.8,-0.62,12.85,13.73
2022-11-15 11:13:48.7140,5.78,-1.11,8.05,9.97
2022-11-15 11:13:48.7300,6.53,-1.55,5.88,8.92
2022-11-15 11:13:48.7320,6.51,-1.02,3.81,7.61
2022-11-15 11:13:48.7460,6.48,-0.01,0.43,6.49
2022-11-15 11:13:48.7490,7.0,2.1,-2.52,7.73
2022-11-15 11:13:48.7610,7.99,4.81,-2.55,9.66
2022-11-15 11:13:48.7640,9.36,7.04,0.41,11.71
2022-11-15 11:13:48.7790,10.76,8.68,4.78,14.62
2022-11-15 11:13:48.7810,11.77,9.56,8.92,17.59
2022-11-15 11:13:48.7970,11.54,8.98,9.6,17.49
2022-11-15 11:13:48.7990,9.09,7.02,5.35,12.67
2022-11-15 11:13:48.8140,5.66,5.92,-2.41,8.53
2022-11-15 11:13:48.8170,3.71,6.49,-7.35,10.48
2022-11-15 11:13:48.8290,2.34,5.05,-8.28,9.97
2022-11-15 11:13:48.8320,1.13,1.95,-6.18,6.57
2022-11-15 11:13:48.8460,1.01,-0.71,-3.82,4.01
2022-11-15 11:13:48.8490,0.39,-7.18,1.7,7.38
2022-11-15 11:13:48.8610,-2.41,-19.49,10.17,22.11
2022-11-15 11:13:48.8630,-7.07,-35.53,12.66,38.37
2022-11-15 11:13:48.8810,-13.99,-49.99,9.68,52.8
2022-11-15 11:13:48.8820,-19.4,-54.59,3.98,58.07
2022-11-15 11:13:48.8980,-15.72,-42.08,-4.23,45.11
2022-11-15 11:13:48.9010,-10.71,-21.61,-13.67,27.72
2022-11-15 11:13:48.9130,-8.86,-7.54,-14.48,18.57
2022-11-15 11:13:48.9160,-6.46,0.13,-9.76,11.7
2022-11-15 11:13:48.9290,-4.96,6.26,-5.85,9.9
2022-11-15 11:13:48.9320,-1.53,8.49,-5.98,10.49
2022-11-15 11:13:48.9440,0.13,8.8,-6.43,10.89
2022-11-15 11:13:48.9460,-0.5,9.26,-5.76,10.91
2022-11-15 11:13:48.9630,-1.49,10.17,-5.38,11.6
2022-11-15 11:13:48.9650,-2.49,11.21,-5.06,12.54
2022-11-15 11:13:48.9790,-2.74,11.51,-5.05,12.86
2022-11-15 11:13:48.9800,-2.71,11.51,-5.37,12.98
2022-11-15 11:13:48.9960,-3.05,11.64,-5.64,13.28
2022-11-15 11:13:48.9970,-3.62,11.94,-5.44,13.61
2022-11-15 11:13:49.0110,-4.0,12.58,-4.44,13.92
2022-11-15 11:13:49.0140,-4.02,14.22,-2.44,14.97
2022-11-15 11:13:49.0280,-3.52,16.48,-1.67,16.93
2022-11-15 11:13:49.0300,-2.8,17.65,-3.56,18.22
2022-11-15 11:13:49.0470,-1.95,18.03,-5.61,18.98
2022-11-15 11:13:49.0490,-1.35,17.2,-6.29,18.36
2022-11-15 11:13:49.0630,-1.39,15.6,-4.28,16.23
2022-11-15 11:13:49.0650,-1.4,13.98,-2.07,14.2
2022-11-15 11:13:49.0790,-0.76,12.53,1.39,12.62
2022-11-15 11:13:49.0820,1.89,9.92,7.6,12.63
2022-11-15 11:13:49.0970,4.0,1.04,16.05,16.57
2022-11-15 11:13:49.1000,2.85,-5.57,19.19,20.18
2022-11-15 11:13:49.1110,0.67,-3.83,10.78,11.45
2022-11-15 11:13:49.1140,-2.77,0.24,-0.52,2.82
2022-11-15 11:13:49.1310,-5.56,0.68,-8.48,10.16
2022-11-15 11:13:49.1330,-7.21,-4.27,-11.79,14.46
2022-11-15 11:13:49.1460,-10.97,-14.11,-14.67,23.12
2022-11-15 11:13:49.1480,-13.15,-27.48,-14.14,33.58
2022-11-15 11:13:49.1630,-11.35,-28.78,-10.54,32.68
2022-11-15 11:13:49.1660,-9.26,-18.11,-3.2,20.59
2022-11-15 11:13:49.1790,-7.33,-6.59,0.21,9.85
2022-11-15 11:13:49.1820,-6.38,-1.66,-3.94,7.68
2022-11-15 11:13:49.1940,-4.66,0.05,-5.48,7.19
2022-11-15 11:13:49.1960,-2.97,1.71,-5.14,6.17
2022-11-15 11:13:49.2140,-1.34,3.7,-5.52,6.77
2022-11-15 11:13:49.2160,0.07,4.22,-7.1,8.25
2022-11-15 11:13:49.2300,-0.62,0.92,-6.19,6.28
2022-11-15 11:13:49.2320,-0.15,-5.46,-9.49,10.94
2022-11-15 11:13:49.2460,2.28,-11.1,-14.4,18.32
2022-11-15 11:13:49.2500,5.46,-16.75,-9.5,20.01
2022-11-15 11:13:49.2620,12.33,-19.04,9.03,24.41
2022-11-15 11:13:49.2640,11.74,-19.07,22.68,31.87
2022-11-15 11:13:49.2770,3.84,-20.06,24.09,31.58
2022-11-15 11:13:49.2800,-1.43,-17.46,22.5,28.51
2022-11-15 11:13:49.2980,-0.25,-8.37,18.18,20.01
2022-11-15 11:13:49.2990,5.44,-1.71,18.25,19.12
2022-11-15 11:13:49.3140,8.18,-1.64,14.66,16.86
2022-11-15 11:13:49.3170,7.43,-3.22,7.92,11.32
2022-11-15 11:13:49.3290,5.84,-4.42,2.26,7.66
2022-11-15 11:13:49.3320,5.93,-2.98,-0.49,6.65
2022-11-15 11:13:49.3470,6.72,-0.43,-1.95,7.01
2022-11-15 11:13:49.3500,7.73,2.17,-2.43,8.38
2022-11-15 11:13:49.3620,8.83,4.49,-1.51,10.02
2022-11-15 11:13:49.3640,9.9,6.28,0.86,11.75
2022-11-15 11:13:49.3790,10.93,8.08,4.84,14.42
2022-11-15 11:13:49.3810,11.84,9.73,8.74,17.64
2022-11-15 11:13:49.3960,11.77,10.47,9.98,18.64
2022-11-15 11:13:49.3970,9.67,9.09,3.88,13.82
2022-11-15 11:13:49.4110,6.62,6.67,-4.96,10.62
2022-11-15 11:13:49.4130,4.02,4.36,-7.91,9.88
2022-11-15 11:13:49.4290,1.65,0.92,-5.18,5.51
2022-11-15 11:13:49.4320,0.58,-1.59,-1.44,2.22
2022-11-15 11:13:49.4450,-0.51,-5.02,2.75,5.74
2022-11-15 11:13:49.4470,-2.07,-12.47,8.71,15.35
2022-11-15 11:13:49.4640,-3.89,-23.4,11.17,26.21
2022-11-15 11:13:49.4660,-6.65,-35.17,7.03,36.47
2022-11-15 11:13:49.4790,-12.5,-46.32,2.73,48.05
2022-11-15 11:13:49.4820,-17.34,-48.11,-0.49,51.14
2022-11-15 11:13:49.4970,-17.21,-34.97,-5.9,39.41
2022-11-15 11:13:49.5000,-14.22,-16.73,-9.17,23.79
2022-11-15 11:13:49.5130,-6.98,-6.25,-8.42,12.59
2022-11-15 11:13:49.5160,-0.34,0.87,-8.94,8.98
2022-11-15 11:13:49.5280,2.92,4.45,-9.77,11.12
2022-11-15 11:13:49.5300,1.62,6.14,-10.78,12.51
2022-11-15 11:13:49.5470,-0.4,7.78,-8.11,11.24
2022-11-15 11:13:49.5490,-2.8,9.59,-6.39,11.85
2022-11-15 11:13:49.5630,-4.3,10.36,-5.36,12.43
2022-11-15 11:13:49.5650,-4.24,10.92,-5.17,12.8
2022-11-15 11:13:49.5790,-3.24,11.52,-6.42,13.58
2022-11-15 11:13:49.5820,-2.78,12.18,-7.52,14.58
2022-11-15 11:13:49.5970,-2.89,12.74,-7.1,14.86
2022-11-15 11:13:49.6000,-3.44,13.5,-5.38,14.93
2022-11-15 11:13:49.6110,-3.44,15.15,-3.57,15.94
2022-11-15 11:13:49.6130,-2.63,18.26,-1.54,18.51
2022-11-15 11:13:49.6310,-1.8,20.88,-0.78,20.97
2022-11-15 11:13:49.6330,-0.62,22.21,-2.81,22.39
2022-11-15 11:13:49.6450,0.72,21.55,-4.53,22.03
2022-11-15 11:13:49.6470,0.91,19.48,-3.39,19.79
2022-11-15 11:13:49.6620,-0.5,16.85,-0.23,16.85
2022-11-15 11:13:49.6650,-1.0,14.83,1.83,14.97
2022-11-15 11:13:49.6790,0.04,12.32,3.64,12.84
2022-11-15 11:13:49.6820,1.86,4.25,9.44,10.51
2022-11-15 11:13:49.6940,0.04,-7.77,17.41,19.06
2022-11-15 11:13:49.6960,-0.51,-8.69,15.77,18.01
2022-11-15 11:13:49.7140,-2.9,-2.68,2.76,4.81
2022-11-15 11:13:49.7160,-5.39,-1.41,-9.32,10.85
2022-11-15 11:13:49.7300,-8.27,-7.76,-12.93,17.19
2022-11-15 11:13:49.7320,-13.52,-21.1,-16.02,29.74
2022-11-15 11:13:49.7450,-14.75,-35.21,-15.07,41.04
2022-11-15 11:13:49.7470,-12.04,-32.59,-9.81,36.1
2022-11-15 11:13:49.7630,-10.1,-15.85,-5.75,19.65
2022-11-15 11:13:49.7660,-7.02,-5.34,-4.94,10.1
2022-11-15 11:13:49.7780,-4.41,-1.27,-6.89,8.27
2022-11-15 11:13:49.7800,-2.23,1.39,-6.94,7.42
2022-11-15 11:13:49.7980,-1.29,4.51,-6.89,8.33
2022-11-15 11:13:49.7990,-0.68,6.18,-8.53,10.55
2022-11-15 11:13:49.8140,-0.11,5.33,-11.48,12.65
2022-11-15 11:13:49.8170,-0.08,-0.91,-10.74,10.77
2022-11-15 11:13:49.8290,1.48,-6.29,-11.42,13.12
2022-11-15 11:13:49.8320,3.44,-11.98,-8.48,15.07
2022-11-15 11:13:49.8460,7.89,-19.94,5.81,22.21
2022-11-15 11:13:49.8490,9.63,-26.04,21.91,35.36
2022-11-15 11:13:49.8620,2.63,-24.85,20.52,32.33
2022-11-15 11:13:49.8640,-2.43,-18.28,16.7,24.87
2022-11-15 11:13:49.8810,-3.99,-7.72,16.71,18.83
2022-11-15 11:13:49.8830,-2.53,0.09,20.7,20.85
2022-11-15 11:13:49.8980,0.76,1.82,21.31,21.4
2022-11-15 11:13:49.9010,4.09,-0.35,16.49,16.99
2022-11-15 11:13:49.9120,5.88,-3.34,10.86,12.79
2022-11-15 11:13:49.9150,7.29,-4.32,8.47,11.98
2022-11-15 11:13:49.9290,6.99,-4.35,4.7,9.48
2022-11-15 11:13:49.9320,5.88,-3.62,-1.94,7.17
2022-11-15 11:13:49.9450,6.43,-1.05,-6.27,9.04
2022-11-15 11:13:49.9470,8.55,3.31,-8.36,12.4
2022-11-15 11:13:49.9640,9.93,6.45,-6.33,13.42
2022-11-15 11:13:49.9660,10.97,8.88,-0.38,14.11
2022-11-15 11:13:49.9780,12.57,11.34,8.34,18.87
2022-11-15 11:13:49.9800,14.03,13.09,16.98,25.62
2022-11-15 11:13:49.9970,12.44,11.62,14.87,22.6
2022-11-15 11:13:50.0000,8.38,8.58,2.75,12.3
2022-11-15 11:13:50.0110,5.87,7.59,-5.84,11.23
2022-11-15 11:13:50.0140,4.41,7.11,-10.14,13.14
2022-11-15 11:13:50.0270,2.61,5.41,-10.29,11.91
2022-11-15 11:13:50.0300,1.39,2.85,-6.28,7.03
2022-11-15 11:13:50.0470,1.01,-0.05,-2.51,2.7
2022-11-15 11:13:50.0490,-0.39,-7.0,4.27,8.2
2022-11-15 11:13:50.0620,-2.84,-21.03,15.25,26.13
2022-11-15 11:13:50.0650,-7.13,-40.09,16.37,43.88
2022-11-15 11:13:50.0800,-16.95,-63.77,11.2,66.92
2022-11-15 11:13:50.0830,-21.62,-69.31,3.32,72.67
2022-11-15 11:13:50.0950,-16.21,-49.21,-12.47,53.29
2022-11-15 11:13:50.0980,-14.01,-17.09,-16.66,27.67
2022-11-15 11:13:50.1130,-10.54,-3.4,-11.22,15.76
2022-11-15 11:13:50.1150,-6.55,4.87,-7.86,11.33
2022-11-15 11:13:50.1310,-2.67,9.39,-7.63,12.39
2022-11-15 11:13:50.1330,0.29,10.14,-7.53,12.63
2022-11-15 11:13:50.1470,-0.02,10.64,-6.52,12.47
2022-11-15 11:13:50.1500,-1.46,11.02,-5.4,12.35
2022-11-15 11:13:50.1610,-2.29,11.99,-4.39,12.97
2022-11-15 11:13:50.1640,-2.48,13.02,-4.0,13.84
2022-11-15 11:13:50.1790,-2.86,13.16,-4.58,14.22
2022-11-15 11:13:50.1820,-3.79,13.35,-4.71,14.65
2022-11-15 11:13:50.1940,-4.41,13.56,-4.59,14.97
2022-11-15 11:13:50.1960,-4.97,13.83,-3.32,15.06
2022-11-15 11:13:50.2140,-4.95,14.67,-2.5,15.68
2022-11-15 11:13:50.2160,-4.32,17.11,-1.78,17.73
2022-11-15 11:13:50.2300,-4.08,20.85,-2.54,21.39
2022-11-15 11:13:50.2310,-2.85,21.61,-5.5,22.48
2022-11-15 11:13:50.2460,-1.48,20.7,-7.53,22.07
2022-11-15 11:13:50.2490,-1.22,18.83,-7.04,20.13
2022-11-15 11:13:50.2610,-1.7,15.88,-4.18,16.5
2022-11-15 11:13:50.2640,-1.52,14.01,-1.83,14.21
2022-11-15 11:13:50.2790,-0.01,12.52,2.08,12.69
2022-11-15 11:13:50.2810,2.72,7.25,10.95,13.41
2022-11-15 11:13:50.2970,1.48,-6.03,22.75,23.58
2022-11-15 11:13:50.2990,0.11,-8.81,20.37,22.19
2022-11-15 11:13:50.3130,-1.3,-3.61,7.5,8.42
2022-11-15 11:13:50.3150,-3.82,-0.5,-8.65,9.46
2022-11-15 11:13:50.3300,-7.35,-6.6,-13.8,16.97
2022-11-15 11:13:50.3330,-11.5,-17.29,-18.08,27.53
2022-11-15 11:13:50.3460,-12.51,-28.73,-17.22,35.75
2022-11-15 11:13:50.3490,-8.86,-26.87,-12.36,30.87
2022-11-15 11:13:50.3610,-7.87,-15.63,-6.83,18.78
2022-11-15 11:13:50.3630,-7.99,-6.09,-3.82,10.74
2022-11-15 11:13:50.3810,-6.61,-1.06,-3.53,7.56
2022-11-15 11:13:50.3830,-4.91,-0.07,-6.53,8.17
2022-11-15 11:13:50.3960,-3.89,1.03,-9.62,10.42
2022-11-15 11:13:50.3980,-2.61,2.43,-11.62,12.15
2022-11-15 11:13:50.4120,-1.61,1.88,-11.07,11.34
2022-11-15 11:13:50.4140,-0.76,-3.9,-7.97,8.9
2022-11-15 11:13:50.4300,2.22,-8.34,-7.32,11.31
2022-11-15 11:13:50.4330,5.09,-12.59,-5.85,14.78
2022-11-15 11:13:50.4450,11.36,-17.65,9.48,23.03
2022-11-15 11:13:50.4470,10.06,-21.86,28.57,37.35
2022-11-15 11:13:50.4640,-0.5,-24.71,27.15,36.71
2022-11-15 11:13:50.4660,-3.19,-19.88,18.25,27.17
2022-11-15 11:13:50.4800,0.64,-9.21,17.34,19.64
2022-11-15 11:13:50.4830,4.85,-3.76,18.49,19.48
2022-11-15 11:13:50.4950,6.94,-2.92,13.67,15.6
2022-11-15 11:13:50.4980,6.95,-3.14,6.68,10.13
2022-11-15 11:13:50.5110,6.49,-3.03,2.88,7.71
2022-11-15 11:13:50.5140,6.51,-1.82,1.0,6.83
2022-11-15 11:13:50.5280,7.0,0.12,-1.53,7.16
2022-11-15 11:13:50.5300,7.82,2.6,-3.41,8.91
2022-11-15 11:13:50.5470,9.68,5.26,-2.54,11.3
2022-11-15 11:13:50.5490,11.59,7.47,1.7,13.89
2022-11-15 11:13:50.5640,13.02,9.23,7.16,17.49
2022-11-15 11:13:50.5670,13.15,10.14,10.07,19.42
2022-11-15 11:13:50.5780,11.65,9.43,7.16,16.61
2022-11-15 11:13:50.5800,8.53,7.33,0.15,11.24
2022-11-15 11:13:50.5960,5.55,5.31,-6.04,9.77
2022-11-15 11:13:50.5990,3.28,2.67,-7.82,8.89
2022-11-15 11:13:50.6110,1.67,-0.03,-5.97,6.19
2022-11-15 11:13:50.6130,0.86,-2.12,-2.01,3.04
2022-11-15 11:13:50.6310,1.07,-7.82,3.92,8.81
2022-11-15 11:13:50.6320,0.28,-17.8,7.9,19.47
2022-11-15 11:13:50.6460,-4.79,-32.31,8.12,33.65
2022-11-15 11:13:50.6480,-13.53,-47.86,4.91,49.97
2022-11-15 11:13:50.6620,-22.82,-55.34,3.11,59.94
2022-11-15 11:13:50.6650,-24.6,-43.64,-2.32,50.14
2022-11-15 11:13:50.6800,-19.4,-19.31,-9.32,28.91
2022-11-15 11:13:50.6830,-9.76,-6.51,-8.62,14.55
2022-11-15 11:13:50.6940,-1.56,0.76,-10.13,10.27
2022-11-15 11:13:50.6960,4.33,4.41,-12.01,13.5
2022-11-15 11:13:50.7140,3.35,6.99,-12.3,14.53
2022-11-15 11:13:50.7160,1.04,8.62,-8.43,12.1
2022-11-15 11:13:50.7300,-1.77,10.25,-5.31,11.67
2022-11-15 11:13:50.7310,-3.77,12.32,-4.55,13.66
2022-11-15 11:13:50.7460,-3.37,13.32,-5.69,14.87
2022-11-15 11:13:50.7500,-3.04,13.91,-7.29,15.99
2022-11-15 11:13:50.7620,-3.07,13.99,-8.26,16.53
2022-11-15 11:13:50.7640,-3.43,14.44,-7.68,16.71
2022-11-15 11:13:50.7770,-4.08,15.21,-6.09,16.88
2022-11-15 11:13:50.7800,-4.32,17.12,-3.91,18.08
2022-11-15 11:13:50.7960,-4.14,21.13,-2.09,21.63
2022-11-15 11:13:50.7980,-2.98,23.52,-2.39,23.82
2022-11-15 11:13:50.8130,-0.64,23.62,-4.46,24.04
2022-11-15 11:13:50.8150,1.36,22.5,-5.25,23.14
2022-11-15 11:13:50.8300,1.37,19.66,-2.27,19.83
2022-11-15 11:13:50.8330,0.65,16.78,0.68,16.8
2022-11-15 11:13:50.8460,0.46,14.16,2.37,14.36
2022-11-15 11:13:50.8490,1.33,10.49,5.95,12.13
2022-11-15 11:13:50.8610,0.82,1.71,14.11,14.23
2022-11-15 11:13:50.8630,-1.23,-10.17,24.96,26.98
2022-11-15 11:13:50.8810,-4.8,-8.26,13.19,16.28
2022-11-15 11:13:50.8820,-7.21,-1.23,-5.97,9.44
2022-11-15 11:13:50.8960,-9.34,-5.98,-11.64,16.07
2022-11-15 11:13:50.8980,-14.29,-16.51,-17.25,27.82
2022-11-15 11:13:50.9120,-17.15,-32.74,-19.36,41.72
2022-11-15 11:13:50.9140,-11.45,-34.0,-14.77,38.79
2022-11-15 11:13:50.9290,-7.16,-18.91,-8.97,22.12
2022-11-15 11:13:50.9310,-6.15,-7.03,-7.3,11.85
2022-11-15 11:13:50.9440,-4.26,-1.1,-6.87,8.15
2022-11-15 11:13:50.9460,-2.63,1.26,-7.38,7.93
2022-11-15 11:13:50.9640,-0.82,3.15,-7.78,8.43
2022-11-15 11:13:50.9660,0.57,4.27,-8.91,9.89
2022-11-15 11:13:50.9800,2.17,3.66,-9.9,10.77
2022-11-15 11:13:50.9830,3.1,-2.17,-7.12,8.06
2022-11-15 11:13:50.9940,4.3,-8.51,-7.37,12.05
2022-11-15 11:13:50.9960,7.74,-13.35,-2.35,15.6
2022-11-15 11:13:51.0120,12.22,-21.59,19.23,31.38
2022-11-15 11:13:51.0150,8.4,-23.08,27.25,36.68
2022-11-15 11:13:51.0280,0.95,-17.7,13.76,22.43
2022-11-15 11:13:51.0300,-3.48,-10.86,5.87,12.82
2022-11-15 11:13:51.0460,-3.36,-2.68,9.78,10.68
2022-11-15 11:13:51.0480,-0.57,1.31,13.5,13.57
2022-11-15 11:13:51.0620,2.18,2.47,12.54,12.96
2022-11-15 11:13:51.0640,6.34,2.39,11.71,13.52
2022-11-15 11:13:51.0790,9.24,0.06,13.24,16.14
2022-11-15 11:13:51.0810,9.09,-2.96,10.91,14.5
2022-11-15 11:13:51.0950,7.05,-4.01,4.33,9.19
2022-11-15 11:13:51.0990,7.05,-1.41,-0.58,7.21
2022-11-15 11:13:51.1110,8.56,2.06,-1.6,8.94
2022-11-15 11:13:51.1130,10.11,5.2,-0.08,11.36
2022-11-15 11:13:51.1300,11.32,7.19,3.94,13.97
2022-11-15 11:13:51.1320,12.27,8.27,8.82,17.22
2022-11-15 11:13:51.1450,11.81,7.91,9.32,16.99
2022-11-15 11:13:51.1460,9.49,6.35,3.85,12.05
2022-11-15 11:13:51.1610,7.03,5.63,-4.08,9.88
2022-11-15 11:13:51.1630,5.68,5.45,-9.25,12.14
2022-11-15 11:13:51.1790,3.79,3.4,-8.9,10.25
2022-11-15 11:13:51.1820,1.97,0.04,-5.33,5.68
2022-11-15 11:13:51.1950,1.61,-3.9,-0.62,4.26
2022-11-15 11:13:51.1970,0.98,-14.03,7.18,15.79
2022-11-15 11:13:51.2140,0.34,-28.31,11.81,30.67
2022-11-15 11:13:51.2160,-4.01,-44.14,10.55,45.56
2022-11-15 11:13:51.2310,-13.73,-59.13,10.88,61.67
2022-11-15 11:13:51.2330,-22.89,-56.09,4.33,60.73
2022-11-15 11:13:51.2460,-22.72,-33.32,-7.58,41.03
2022-11-15 11:13:51.2490,-19.04,-13.15,-12.87,26.47
2022-11-15 11:13:51.2620,-13.18,-1.7,-10.29,16.8
2022-11-15 11:13:51.2650,-3.71,3.85,-11.21,12.41
2022-11-15 11:13:51.2770,1.48,6.26,-12.24,13.82
2022-11-15 11:13:51.2790,1.05,7.4,-11.61,13.8
2022-11-15 11:13:51.2970,0.1,8.6,-9.36,12.71
2022-11-15 11:13:51.2990,-2.34,9.85,-7.15,12.39
2022-11-15 11:13:51.3130,-4.82,11.09,-6.05,13.52
2022-11-15 11:13:51.3150,-5.7,12.06,-4.6,14.11
2022-11-15 11:13:51.3300,-4.55,12.56,-5.2,14.33
2022-11-15 11:13:51.3330,-3.82,13.53,-7.91,16.13
2022-11-15 11:13:51.3440,-3.37,14.69,-8.2,17.15
2022-11-15 11:13:51.3470,-2.72,15.92,-6.32,17.34
2022-11-15 11:13:51.3620,-2.55,18.43,-4.05,19.04
2022-11-15 11:13:51.3640,-2.61,21.69,-2.78,22.02
2022-11-15 11:13:51.3810,-0.98,23.04,-4.87,23.56
2022-11-15 11:13:51.3830,0.56,23.06,-5.97,23.82
2022-11-15 11:13:51.3960,0.79,21.43,-5.41,22.11
2022-11-15 11:13:51.3980,-0.15,18.88,-2.97,19.11
2022-11-15 11:13:51.4120,-1.24,16.53,0.19,16.57
2022-11-15 11:13:51.4150,-1.03,14.12,2.22,14.33
2022-11-15 11:13:51.4300,1.7,9.76,7.58,12.47
2022-11-15 11:13:51.4330,1.68,-4.19,21.67,22.13
2022-11-15 11:13:51.4440,-1.22,-8.71,18.67,20.63
2022-11-15 11:13:51.4470,-3.54,-0.92,4.95,6.15
2022-11-15 11:13:51.4630,-6.83,1.08,-4.01,7.99
2022-11-15 11:13:51.4650,-10.02,-3.81,-8.75,13.83
2022-11-15 11:13:51.4780,-14.58,-12.96,-13.44,23.68
2022-11-15 11:13:51.4800,-22.56,-33.01,-17.25,43.54
2022-11-15 11:13:51.4950,-17.96,-42.53,-12.86,47.92
2022-11-15 11:13:51.4970,-8.93,-26.63,-7.0,28.94
2022-11-15 11:13:51.5120,-6.29,-10.73,-6.65,14.1
2022-11-15 11:13:51.5150,-5.52,-4.58,-8.86,11.39
2022-11-15 11:13:51.5270,-3.85,-0.23,-8.62,9.44
2022-11-15 11:13:51.5300,-1.86,3.47,-6.97,8.0
2022-11-15 11:13:51.5470,0.21,6.33,-6.04,8.75
2022-11-15 11:13:51.5490,1.93,5.72,-6.52,8.88
2022-11-15 11:13:51.5620,3.91,-0.77,-3.84,5.53
2022-11-15 11:13:51.5650,3.03,-9.95,-6.62,12.32
2022-11-15 11:13:51.5800,3.78,-14.41,-10.05,17.97
2022-11-15 11:13:51.5820,8.17,-21.0,1.56,22.58
2022-11-15 11:13:51.5940,12.85,-25.47,29.81,41.26
2022-11-15 11:13:51.5970,4.71,-24.12,29.34,38.27
2022-11-15 11:13:51.6110,-0.53,-19.66,15.59,25.09
2022-11-15 11:13:51.6130,0.91,-9.37,12.18,15.39
2022-11-15 11:13:51.6310,4.55,-1.23,13.17,13.98
2022-11-15 11:13:51.6330,6.43,1.67,12.43,14.09
2022-11-15 11:13:51.6460,6.35,1.4,8.98,11.08
2022-11-15 11:13:51.6480,5.75,-0.29,5.73,8.12
2022-11-15 11:13:51.6620,5.74,-0.28,3.84,6.91
2022-11-15 11:13:51.6650,5.96,0.89,0.8,6.07
2022-11-15 11:13:51.6800,6.73,2.76,-0.42,7.28
2022-11-15 11:13:51.6820,8.25,5.14,0.71,9.74
2022-11-15 11:13:51.6940,9.98,6.88,3.36,12.57
2022-11-15 11:13:51.6960,11.29,7.87,6.74,15.32
2022-11-15 11:13:51.7140,11.28,8.13,7.01,15.57
2022-11-15 11:13:51.7160,10.02,7.79,4.18,13.36
2022-11-15 11:13:51.7280,7.45,6.87,1.53,10.24
2022-11-15 11:13:51.7300,4.88,6.04,-1.65,7.93
2022-11-15 11:13:51.7440,4.1,5.93,-5.96,9.35
2022-11-15 11:13:51.7450,3.86,4.68,-8.75,10.64
2022-11-15 11:13:51.7620,3.06,1.18,-6.97,7.7
2022-11-15 11:13:51.7650,3.33,-2.0,-2.77,4.77
2022-11-15 11:13:51.7770,4.42,-6.73,1.69,8.22
2022-11-15 11:13:51.7800,2.43,-17.38,7.2,18.96
2022-11-15 11:13:51.7970,-5.6,-36.69,15.01,40.03
2022-11-15 11:13:51.7990,-17.16,-55.05,10.53,58.61
2022-11-15 11:13:51.8130,-24.59,-57.16,-2.26,62.26
2022-11-15 11:13:51.8160,-21.26,-35.39,-9.26,42.31
2022-11-15 11:13:51.8300,-15.62,-14.86,-8.12,23.03
2022-11-15 11:13:51.8330,-9.35,-3.79,-7.68,12.67
2022-11-15 11:13:51.8460,-1.4,2.11,-8.71,9.07
2022-11-15 11:13:51.8490,3.65,6.03,-9.34,11.7
2022-11-15 11:13:51.8610,3.31,8.35,-9.03,12.73
2022-11-15 11:13:51.8630,2.52,9.63,-7.25,12.31
2022-11-15 11:13:51.8810,1.04,10.97,-6.68,12.88
2022-11-15 11:13:51.8820,-0.57,11.77,-6.41,13.41
2022-11-15 11:13:51.8960,-1.26,12.0,-6.32,13.62
2022-11-15 11:13:51.8980,-1.68,11.86,-7.49,14.12
2022-11-15 11:13:51.9130,-2.4,11.88,-8.42,14.75
2022-11-15 11:13:51.9160,-3.15,12.17,-7.8,14.79
2022-11-15 11:13:51.9300,-3.69,13.44,-5.16,14.86
2022-11-15 11:13:51.9330,-3.7,15.53,-3.3,16.3
2022-11-15 11:13:51.9450,-3.02,19.06,-3.19,19.55
2022-11-15 11:13:51.9470,-2.25,21.91,-4.64,22.5
2022-11-15 11:13:51.9640,-1.25,21.9,-5.89,22.71
2022-11-15 11:13:51.9660,-1.02,20.56,-4.91,21.16
2022-11-15 11:13:51.9810,-2.02,18.46,-1.89,18.66
2022-11-15 11:13:51.9830,-2.89,16.25,0.97,16.53
2022-11-15 11:13:51.9970,-1.22,13.08,4.04,13.74
2022-11-15 11:13:51.9990,1.6,6.25,8.36,10.55
2022-11-15 11:13:52.0120,0.27,-2.71,14.54,14.79
2022-11-15 11:13:52.0150,-2.92,-6.32,13.68,15.34
2022-11-15 11:13:52.0270,-8.08,-2.88,3.07,9.11
2022-11-15 11:13:52.0290,-10.84,-1.94,-5.27,12.2
2022-11-15 11:13:52.0470,-12.54,-6.89,-8.52,16.65
2022-11-15 11:13:52.0490,-14.81,-11.8,-11.95,22.39
2022-11-15 11:13:52.0630,-17.33,-22.12,-12.98,30.95
2022-11-15 11:13:52.0640,-11.72,-25.33,-10.03,29.65
2022-11-15 11:13:52.0790,-6.83,-16.78,-8.1,19.84
2022-11-15 11:13:52.0810,-6.5,-7.68,-8.52,13.18
2022-11-15 11:13:52.0960,-5.96,-3.34,-9.21,11.46
2022-11-15 11:13:52.0990,-4.93,-1.59,-10.84,12.01
2022-11-15 11:13:52.1110,-3.32,-1.12,-11.29,11.82
2022-11-15 11:13:52.1130,-1.37,-0.73,-10.5,10.61
2022-11-15 11:13:52.1310,3.34,-1.65,-8.56,9.33
2022-11-15 11:13:52.1330,5.65,-10.39,-5.72,13.13
2022-11-15 11:13:52.1460,2.84,-18.19,-9.9,20.9
2022-11-15 11:13:52.1480,3.9,-22.8,-8.4,24.6
2022-11-15 11:13:52.1620,13.11,-24.87,14.4,31.58
2022-11-15 11:13:52.1650,15.09,-21.86,34.54,43.57
2022-11-15 11:13:52.1770,2.03,-20.28,25.14,32.36
2022-11-15 11:13:52.1790,-3.85,-15.99,15.83,22.82
2022-11-15 11:13:52.1960,0.83,-6.25,16.74,17.88
2022-11-15 11:13:52.1980,5.5,-0.65,18.5,19.31
2022-11-15 11:13:52.2140,6.42,-0.55,15.88,17.13
2022-11-15 11:13:52.2160,5.29,-2.94,10.82,12.39
2022-11-15 11:13:52.2290,5.11,-4.63,6.81,9.69
2022-11-15 11:13:52.2310,5.42,-4.45,2.85,7.56
2022-11-15 11:13:52.2460,5.42,-3.27,-3.01,7.0
2022-11-15 11:13:52.2490,6.59,-0.22,-6.36,9.16
2022-11-15 11:13:52.2620,8.39,3.6,-6.24,11.05
2022-11-15 11:13:52.2650,10.0,7.08,-2.4,12.48
2022-11-15 11:13:52.2770,11.28,10.12,4.02,15.67
2022-11-15 11:13:52.2800,11.93,12.36,9.42,19.59
2022-11-15 11:13:52.2970,11.4,13.26,9.92,20.1
2022-11-15 11:13:52.2990,9.41,12.4,6.49,16.86
2022-11-15 11:13:52.3130,6.21,9.5,0.07,11.34
2022-11-15 11:13:52.3150,4.33,6.72,-6.52,10.31
2022-11-15 11:13:52.3300,3.65,4.28,-9.67,11.18
2022-11-15 11:13:52.3330,3.21,1.07,-7.75,8.45
2022-11-15 11:13:52.3460,2.89,-2.95,-2.5,4.82
2022-11-15 11:13:52.3490,3.44,-9.51,5.57,11.54
2022-11-15 11:13:52.3610,2.41,-20.21,12.6,23.93
2022-11-15 11:13:52.3630,-3.07,-35.11,12.05,37.24
2022-11-15 11:13:52.3810,-10.41,-53.91,3.07,54.99
2022-11-15 11:13:52.3830,-19.38,-66.73,-2.47,69.53
2022-11-15 11:13:52.3970,-22.91,-49.83,-7.65,55.37
2022-11-15 11:13:52.4000,-18.83,-19.52,-9.28,28.66
2022-11-15 11:13:52.4130,-10.31,-4.51,-9.5,14.72
2022-11-15 11:13:52.4150,-1.97,2.5,-9.97,10.46
2022-11-15 11:13:52.4290,1.78,6.54,-9.96,12.04
2022-11-15 11:13:52.4310,-0.95,9.48,-8.88,13.02
2022-11-15 11:13:52.4440,-2.92,11.77,-7.38,14.19
2022-11-15 11:13:52.4460,-4.12,12.52,-6.6,14.74
2022-11-15 11:13:52.4640,-3.38,12.85,-6.86,14.95
2022-11-15 11:13:52.4660,-2.99,12.83,-7.13,14.97
2022-11-15 11:13:52.4790,-3.63,12.34,-6.81,14.55
2022-11-15 11:13:52.4810,-4.51,12.44,-6.91,14.92
2022-11-15 11:13:52.4960,-4.82,13.35,-7.47,16.03
2022-11-15 11:13:52.4990,-5.07,14.61,-6.69,16.84
2022-11-15 11:13:52.5110,-4.27,16.79,-4.72,17.95
2022-11-15 11:13:52.5140,-3.34,20.61,-2.99,21.09
2022-11-15 11:13:52.5270,-1.79,22.81,-4.13,23.24
2022-11-15 11:13:52.5300,-0.77,23.47,-4.53,23.91
2022-11-15 11:13:52.5470,-0.16,22.22,-4.26,22.62
2022-11-15 11:13:52.5490,-0.52,20.22,-2.02,20.32
2022-11-15 11:13:52.5630,-0.96,18.57,0.75,18.6
2022-11-15 11:13:52.5660,-0.46,16.12,3.38,16.47
2022-11-15 11:13:52.5780,1.48,11.13,8.28,13.95
2022-11-15 11:13:52.5810,1.02,-0.14,16.27,16.3
2022-11-15 11:13:52.5950,-1.77,-5.54,16.39,17.39
2022-11-15 11:13:52.5980,-3.44,-1.36,7.1,8.0
2022-11-15 11:13:52.6110,-5.71,1.25,-3.09,6.61
2022-11-15 11:13:52.6130,-9.0,-2.91,-9.8,13.62
2022-11-15 11:13:52.6310,-14.13,-12.3,-14.22,23.51
2022-11-15 11:13:52.6320,-21.12,-30.34,-17.16,40.75
2022-11-15 11:13:52.6450,-16.76,-41.17,-10.64,45.7
2022-11-15 11:13:52.6480,-8.43,-27.19,-3.19,28.64
2022-11-15 11:13:52.6630,-8.21,-9.88,-4.14,13.49
2022-11-15 11:13:52.6660,-6.21,-2.93,-6.51,9.46
2022-11-15 11:13:52.6800,-3.4,0.13,-8.39,9.05
2022-11-15 11:13:52.6830,-1.41,2.03,-9.13,9.45
2022-11-15 11:13:52.6940,0.16,3.51,-9.51,10.13
2022-11-15 11:13:52.6960,1.59,3.58,-10.96,11.63
2022-11-15 11:13:52.7140,2.96,-0.32,-8.42,8.93
2022-11-15 11:13:52.7160,3.46,-9.53,-6.96,12.29
2022-11-15 11:13:52.7310,4.71,-15.4,-7.04,17.57
2022-11-15 11:13:52.7330,7.19,-21.7,-0.79,22.87
2022-11-15 11:13:52.7460,12.14,-25.57,15.42,32.23
2022-11-15 11:13:52.7490,9.96,-22.73,23.95,34.48
2022-11-15 11:13:52.7630,0.8,-19.0,19.0,26.88
2022-11-15 11:13:52.7650,-2.88,-11.21,14.86,18.83
2022-11-15 11:13:52.7770,-0.9,-1.65,18.3,18.39
2022-11-15 11:13:52.7790,1.74,1.78,20.84,20.98
2022-11-15 11:13:52.7970,3.87,0.17,19.2,19.58
2022-11-15 11:13:52.7990,4.59,-3.69,13.11,14.37
2022-11-15 11:13:52.8130,5.85,-5.24,7.72,11.01
2022-11-15 11:13:52.8150,6.07,-4.77,2.17,8.01
2022-11-15 11:13:52.8300,5.52,-3.48,-4.1,7.7
2022-11-15 11:13:52.8330,6.47,-0.05,-6.81,9.39
2022-11-15 11:13:52.8460,8.21,3.88,-6.29,11.04
2022-11-15 11:13:52.8490,9.66,6.98,-2.5,12.17
2022-11-15 11:13:52.8610,10.91,9.53,3.81,14.97
2022-11-15 11:13:52.8630,11.98,11.34,10.19,19.38
2022-11-15 11:13:52.8790,12.01,12.53,12.47,21.37
2022-11-15 11:13:52.8810,10.18,11.95,7.7,17.48
2022-11-15 11:13:52.8950,6.97,9.49,-1.56,11.87
2022-11-15 11:13:52.8970,4.95,7.23,-8.26,12.04
2022-11-15 11:13:52.9130,3.72,4.64,-9.42,11.14
2022-11-15 11:13:52.9160,2.57,0.73,-5.96,6.53
2022-11-15 11:13:52.9300,2.29,-2.98,-1.65,4.1
2022-11-15 11:13:52.9320,2.24,-10.43,6.8,12.65
2022-11-15 11:13:52.9440,1.65,-19.72,13.36,23.87
2022-11-15 11:13:52.9460,-1.79,-31.53,11.31,33.54
2022-11-15 11:13:52.9640,-8.42,-47.08,3.99,47.99
2022-11-15 11:13:52.9660,-18.63,-59.83,-0.65,62.66
2022-11-15 11:13:52.9800,-26.9,-55.84,-1.33,61.99
2022-11-15 11:13:52.9830,-24.65,-25.09,-6.98,35.85
2022-11-15 11:13:52.9950,-12.97,-7.27,-8.01,16.88
2022-11-15 11:13:52.9970,-4.41,1.98,-8.56,9.83
2022-11-15 11:13:53.0130,-1.38,6.1,-8.38,10.45
2022-11-15 11:13:53.0160,-1.04,7.63,-10.45,12.98
2022-11-15 11:13:53.0280,-0.63,9.62,-10.77,14.45
2022-11-15 11:13:53.0300,-2.11,10.67,-8.15,13.59
2022-11-15 11:13:53.0470,-3.17,10.95,-6.54,13.14
2022-11-15 11:13:53.0490,-3.26,11.84,-6.35,13.82
2022-11-15 11:13:53.0630,-3.24,12.46,-7.08,14.69
2022-11-15 11:13:53.0660,-3.49,12.63,-7.56,15.12
2022-11-15 11:13:53.0800,-3.34,13.69,-7.22,15.83
2022-11-15 11:13:53.0830,-3.82,15.29,-6.01,16.86
2022-11-15 11:13:53.0970,-3.65,17.81,-4.22,18.66
2022-11-15 11:13:53.1000,-2.88,21.47,-3.22,21.9
2022-11-15 11:13:53.1110,-1.53,23.93,-4.84,24.46
2022-11-15 11:13:53.1130,-0.73,24.36,-4.75,24.82
2022-11-15 11:13:53.1310,-0.75,22.56,-2.95,22.76
2022-11-15 11:13:53.1330,-1.12,19.89,-0.39,19.92
2022-11-15 11:13:53.1480,-1.35,17.63,2.11,17.8
2022-11-15 11:13:53.1500,-0.55,14.69,3.25,15.05
2022-11-15 11:13:53.1640,1.29,10.42,5.69,11.94
2022-11-15 11:13:53.1660,1.4,0.09,13.15,13.22
2022-11-15 11:13:53.1770,-1.8,-5.95,15.56,16.75
2022-11-15 11:13:53.1790,-4.58,-1.24,7.22,8.63
2022-11-15 11:13:53.1950,-7.67,1.2,-1.59,7.92
2022-11-15 11:13:53.1980,-10.5,-2.52,-6.73,12.72
2022-11-15 11:13:53.2140,-13.15,-9.38,-9.62,18.8
2022-11-15 11:13:53.2160,-17.31,-19.05,-13.15,28.9
2022-11-15 11:13:53.2310,-17.35,-31.42,-11.29,37.62
2022-11-15 11:13:53.2330,-11.6,-28.91,-6.35,31.79
2022-11-15 11:13:53.2460,-10.29,-15.51,-6.08,19.58
2022-11-15 11:13:53.2490,-8.78,-6.72,-7.26,13.22
2022-11-15 11:13:53.2620,-5.98,-2.1,-8.02,10.22
2022-11-15 11:13:53.2650,-3.53,0.71,-8.65,9.36
2022-11-15 11:13:53.2780,-1.2,2.17,-9.69,10.0
2022-11-15 11:13:53.2800,0.87,2.19,-10.59,10.84
2022-11-15 11:13:53.2970,4.45,-1.41,-7.75,9.04
2022-11-15 11:13:53.2990,4.7,-11.75,-4.75,13.51
2022-11-15 11:13:53.3130,3.28,-17.31,-7.94,19.32
2022-11-15 11:13:53.3150,6.29,-22.34,-2.38,23.33
2022-11-15 11:13:53.3300,14.94,-25.75,22.38,37.24
2022-11-15 11:13:53.3330,12.31,-23.59,29.75,39.91
2022-11-15 11:13:53.3450,1.0,-22.22,17.4,28.23
2022-11-15 11:13:53.3470,-2.36,-14.45,13.63,20.0
2022-11-15 11:13:53.3610,1.6,-3.37,18.31,18.68
2022-11-15 11:13:53.3630,5.57,0.83,20.26,21.02
2022-11-15 11:13:53.3800,6.96,-0.78,17.88,19.2
2022-11-15 11:13:53.3820,5.67,-4.45,12.66,14.56
2022-11-15 11:13:53.3970,4.39,-5.89,7.28,10.34
2022-11-15 11:13:53.4000,3.82,-4.85,1.7,6.4
2022-11-15 11:13:53.4130,4.58,-2.5,-3.24,6.14
2022-11-15 11:13:53.4150,6.51,1.9,-5.5,8.73
2022-11-15 11:13:53.4300,8.25,5.27,-4.72,10.86
2022-11-15 11:13:53.4330,9.66,7.7,-0.24,12.35
2022-11-15 11:13:53.4440,11.0,10.3,6.22,16.3
2022-11-15 11:13:53.4470,11.92,12.1,10.68,20.06
2022-11-15 11:13:53.4640,11.06,11.75,8.76,18.36
2022-11-15 11:13:53.4660,8.43,8.97,2.13,12.49
2022-11-15 11:13:53.4790,6.13,6.27,-6.38,10.84
2022-11-15 11:13:53.4810,5.14,4.66,-11.51,13.43
2022-11-15 11:13:53.4960,3.53,1.3,-9.79,10.48
2022-11-15 11:13:53.4970,2.11,-3.34,-4.72,6.15
2022-11-15 11:13:53.5120,2.7,-9.36,1.84,9.91
2022-11-15 11:13:53.5140,0.12,-23.5,15.66,28.24
2022-11-15 11:13:53.5270,-7.31,-42.51,19.59,47.37
2022-11-15 11:13:53.5300,-14.51,-58.22,4.3,60.15
2022-11-15 11:13:53.5470,-20.12,-65.21,-4.15,68.36
2022-11-15 11:13:53.5490,-22.48,-41.63,-11.92,48.79
2022-11-15 11:13:53.5640,-20.41,-14.06,-12.58,27.79
2022-11-15 11:13:53.5670,-11.26,-3.38,-12.11,16.87
2022-11-15 11:13:53.5800,-1.56,1.1,-13.0,13.13
2022-11-15 11:13:53.5830,1.56,4.34,-12.61,13.42
2022-11-15 11:13:53.5950,0.06,7.55,-9.17,11.87
2022-11-15 11:13:53.5980,-2.24,10.59,-7.11,12.95
2022-11-15 11:13:53.6120,-3.75,12.44,-5.96,14.29
2022-11-15 11:13:53.6140,-3.71,12.39,-5.14,13.91
2022-11-15 11:13:53.6310,-3.78,12.87,-5.37,14.44
2022-11-15 11:13:53.6330,-4.49,13.93,-5.78,15.73
2022-11-15 11:13:53.6470,-5.01,14.7,-6.36,16.78
2022-11-15 11:13:53.6500,-4.82,14.88,-6.78,17.04
2022-11-15 11:13:53.6630,-4.43,14.97,-5.32,16.49
2022-11-15 11:13:53.6660,-3.87,15.24,-3.98,16.21
2022-11-15 11:13:53.6790,-2.41,16.79,-3.39,17.29
2022-11-15 11:13:53.6810,-1.04,18.41,-3.37,18.74
2022-11-15 11:13:53.6950,0.05,19.7,-4.26,20.15
2022-11-15 11:13:53.6970,0.45,20.93,-4.18,21.34
2022-11-15 11:13:53.7140,-0.04,20.13,-2.61,20.29
2022-11-15 11:13:53.7160,-0.92,18.49,-0.17,18.51
2022-11-15 11:13:53.7300,-0.8,16.7,2.08,16.84
2022-11-15 11:13:53.7310,-0.25,12.9,2.65,13.17
2022-11-15 11:13:53.7450,-0.04,9.62,3.65,10.28
2022-11-15 11:13:53.7470,-0.24,6.18,5.1,8.01
2022-11-15 11:13:53.7630,-2.68,2.52,5.33,6.47
2022-11-15 11:13:53.7660,-5.16,1.79,0.59,5.49
2022-11-15 11:13:53.7770,-6.97,0.39,-6.18,9.32
2022-11-15 11:13:53.7790,-10.27,-5.77,-9.69,15.25
2022-11-15 11:13:53.7970,-13.37,-14.54,-12.11,23.16
2022-11-15 11:13:53.7990,-15.2,-26.68,-12.81,33.27
2022-11-15 11:13:53.8140,-9.06,-36.58,0.33,37.68
2022-11-15 11:13:53.8170,-6.26,-25.93,3.34,26.88
2022-11-15 11:13:53.8300,-10.25,-11.95,-5.58,16.7
2022-11-15 11:13:53.8330,-7.45,-4.26,-7.19,11.19
2022-11-15 11:13:53.8450,-3.81,-0.39,-7.08,8.04
2022-11-15 11:13:53.8480,-0.57,2.3,-7.02,7.4
2022-11-15 11:13:53.8610,1.47,2.94,-9.22,9.78
2022-11-15 11:13:53.8630,3.06,2.16,-11.67,12.25
2022-11-15 11:13:53.8780,4.92,-2.49,-8.72,10.31
2022-11-15 11:13:53.8800,5.68,-10.98,-11.5,16.88
2022-11-15 11:13:53.8950,6.21,-16.54,-11.52,21.09
2022-11-15 11:13:53.8970,8.8,-21.88,-3.31,23.81
2022-11-15 11:13:53.9100,14.33,-22.86,12.05,29.54
2022-11-15 11:13:53.9120,10.53,-19.23,17.91,28.3
2022-11-15 11:13:53.9290,1.48,-15.46,17.33,23.27
2022-11-15 11:13:53.9300,-1.45,-9.58,19.24,21.54
2022-11-15 11:13:53.9440,0.3,-3.38,17.8,18.12
2022-11-15 11:13:53.9460,2.61,-0.88,18.82,19.02
2022-11-15 11:13:53.9640,4.84,-2.19,17.08,17.88
2022-11-15 11:13:53.9660,5.28,-4.85,11.38,13.45
2022-11-15 11:13:53.9800,5.66,-6.04,6.0,10.22
2022-11-15 11:13:53.9830,6.36,-5.27,2.28,8.56
2022-11-15 11:13:53.9950,6.72,-3.63,-0.47,7.65
2022-11-15 11:13:53.9980,7.27,-1.38,-3.06,8.0
2022-11-15 11:13:54.0110,8.38,1.85,-4.02,9.47
2022-11-15 11:13:54.0140,9.78,4.88,-1.97,11.1
2022-11-15 11:13:54.0290,11.27,7.74,2.81,13.95
2022-11-15 11:13:54.0310,12.44,10.51,9.07,18.64
2022-11-15 11:13:54.0470,12.52,12.4,12.0,21.31
2022-11-15 11:13:54.0490,11.11,12.34,9.07,18.92
2022-11-15 11:13:54.0630,8.29,10.6,1.11,13.5
2022-11-15 11:13:54.0650,5.69,8.64,-6.95,12.46
2022-11-15 11:13:54.0800,3.49,6.41,-9.15,11.7
2022-11-15 11:13:54.0820,1.07,1.86,-6.21,6.57
2022-11-15 11:13:54.0950,0.61,-1.64,-3.37,3.79
2022-11-15 11:13:54.0980,0.54,-5.34,0.53,5.39
2022-11-15 11:13:54.1110,-0.23,-14.93,8.91,17.38
2022-11-15 11:13:54.1130,-1.86,-28.22,13.79,31.46
2022-11-15 11:13:54.1310,-5.57,-43.93,8.61,45.11
2022-11-15 11:13:54.1330,-13.33,-59.91,1.17,61.38
2022-11-15 11:13:54.1460,-22.73,-66.77,-3.27,70.6
2022-11-15 11:13:54.1480,-23.11,-43.34,-10.84,50.29
2022-11-15 11:13:54.1630,-17.11,-15.74,-13.16,26.71
2022-11-15 11:13:54.1660,-9.04,-2.45,-10.55,14.1
2022-11-15 11:13:54.1800,-3.92,5.35,-8.34,10.65
2022-11-15 11:13:54.1820,-1.08,7.74,-7.37,10.74
2022-11-15 11:13:54.1940,0.58,9.29,-8.18,12.39
2022-11-15 11:13:54.1970,0.25,10.2,-7.65,12.75
2022-11-15 11:13:54.2140,-0.75,11.21,-5.46,12.49
2022-11-15 11:13:54.2160,-1.42,12.84,-4.86,13.8
2022-11-15 11:13:54.2300,-2.01,14.03,-5.58,15.23
2022-11-15 11:13:54.2310,-2.52,14.11,-6.51,15.74
2022-11-15 11:13:54.2450,-3.1,14.14,-6.25,15.76
2022-11-15 11:13:54.2480,-3.96,14.7,-5.54,16.2
2022-11-15 11:13:54.2630,-4.6,15.7,-4.73,17.03
2022-11-15 11:13:54.2660,-4.67,17.55,-3.12,18.42
2022-11-15 11:13:54.2770,-3.68,21.65,-1.9,22.04
2022-11-15 11:13:54.2790,-2.2,24.96,-4.87,25.52
2022-11-15 11:13:54.2970,-1.16,25.44,-6.79,26.35
2022-11-15 11:13:54.2990,-0.61,23.08,-5.42,23.71
2022-11-15 11:13:54.3140,-0.71,19.76,-2.14,19.88
2022-11-15 11:13:54.3170,-0.25,17.89,0.52,17.89
2022-11-15 11:13:54.3300,0.61,16.31,2.49,16.51
2022-11-15 11:13:54.3330,1.97,13.79,5.34,14.91
2022-11-15 11:13:54.3450,2.97,8.1,11.59,14.44
2022-11-15 11:13:54.3480,1.21,-1.6,20.32,20.41
2022-11-15 11:13:54.3610,0.09,-2.78,17.61,17.82
2022-11-15 11:13:54.3630,-0.74,2.22,5.66,6.12
2022-11-15 11:13:54.3800,-3.47,3.37,-7.82,9.19
2022-11-15 11:13:54.3820,-7.06,-2.6,-14.53,16.36
2022-11-15 11:13:54.3960,-11.97,-12.33,-20.13,26.46
2022-11-15 11:13:54.3980,-19.17,-30.42,-23.93,43.19
2022-11-15 11:13:54.4110,-17.79,-41.22,-19.71,49.03
2022-11-15 11:13:54.4140,-12.42,-32.54,-7.1,35.54
2022-11-15 11:13:54.4300,-8.99,-14.64,1.21,17.22
2022-11-15 11:13:54.4330,-7.73,-5.28,-1.13,9.42
2022-11-15 11:13:54.4440,-6.81,-3.63,-5.45,9.44
2022-11-15 11:13:54.4460,-5.15,-2.08,-6.61,8.63
2022-11-15 11:13:54.4640,-3.46,0.2,-7.66,8.4
2022-11-15 11:13:54.4660,-2.09,2.22,-7.57,8.16
2022-11-15 11:13:54.4800,-3.14,0.35,-4.08,5.16
2022-11-15 11:13:54.4830,-1.0,-6.32,-5.45,8.4
2022-11-15 11:13:54.4950,4.59,-7.97,-8.58,12.57
