time,ax,ay,az,atotal
2022-11-15 11:13:33.3070,0.38,-0.2,-0.3,0.52
2022-11-15 11:13:33.3130,0.71,-0.55,-0.85,1.23
2022-11-15 11:13:33.3240,1.17,-0.93,-0.89,1.73
2022-11-15 11:13:33.3340,1.16,-1.08,-1.02,1.88
2022-11-15 11:13:33.3440,0.62,-0.92,-1.12,1.57
2022-11-15 11:13:33.3540,0.23,-0.63,-0.9,1.12
2022-11-15 11:13:33.3680,0.19,0.01,-0.48,0.51
2022-11-15 11:13:33.3740,-0.06,0.36,-0.22,0.42
2022-11-15 11:13:33.3840,-0.43,0.18,-0.08,0.47
2022-11-15 11:13:33.3940,-0.59,-0.73,-0.03,0.93
2022-11-15 11:13:33.4040,-0.41,-1.87,-0.03,1.91
2022-11-15 11:13:33.4140,0.03,-2.24,-0.79,2.37
2022-11-15 11:13:33.4240,0.37,-2.26,-1.26,2.61
2022-11-15 11:13:33.4340,1.15,-1.76,-1.04,2.34
2022-11-15 11:13:33.4450,1.71,-1.09,-0.98,2.25
2022-11-15 11:13:33.4550,1.39,-0.67,-0.84,1.75
2022-11-15 11:13:33.4680,0.67,-0.43,-0.13,0.8
2022-11-15 11:13:33.4740,0.41,-0.01,0.93,1.01
2022-11-15 11:13:33.4840,0.48,0.55,1.49,1.65
2022-11-15 11:13:33.4950,0.18,1.14,1.48,1.87
2022-11-15 11:13:33.5050,-0.17,1.82,1.02,2.09
2022-11-15 11:13:33.5150,-0.68,2.01,0.02,2.12
2022-11-15 11:13:33.5250,-1.28,1.59,-0.92,2.23
2022-11-15 11:13:33.5350,-1.23,1.39,-0.93,2.07
2022-11-15 11:13:33.5440,-0.56,1.38,-0.48,1.56
2022-11-15 11:13:33.5550,-0.01,0.91,-0.29,0.95
2022-11-15 11:13:33.5690,-0.38,0.29,-0.29,0.55
2022-11-15 11:13:33.5740,-0.59,0.13,-0.31,0.67
2022-11-15 11:13:33.5840,-0.38,0.22,0.14,0.46
2022-11-15 11:13:33.5950,0.48,0.17,1.21,1.31
2022-11-15 11:13:33.6050,1.41,0.48,1.52,2.12
2022-11-15 11:13:33.6150,1.3,0.93,1.1,1.94
2022-11-15 11:13:33.6250,0.32,1.11,0.25,1.18
2022-11-15 11:13:33.6350,-0.33,1.2,-0.54,1.35
2022-11-15 11:13:33.6450,-0.02,1.11,-0.93,1.44
2022-11-15 11:13:33.6550,0.98,1.25,-0.03,1.58
2022-11-15 11:13:33.6700,0.88,1.22,0.62,1.62
2022-11-15 11:13:33.6750,-0.31,0.33,0.45,0.63
2022-11-15 11:13:33.6850,-0.75,-0.45,0.87,1.23
2022-11-15 11:13:33.6950,-0.47,-0.39,0.98,1.15
2022-11-15 11:13:33.7050,-0.49,-0.64,0.49,0.94
2022-11-15 11:13:33.7150,-0.35,-1.0,0.48,1.16
2022-11-15 11:13:33.7250,0.05,-1.26,0.24,1.28
2022-11-15 11:13:33.7350,0.56,-1.3,-0.36,1.46
2022-11-15 11:13:33.7450,1.02,0.41,-0.02,1.09
2022-11-15 11:13:33.7550,1.19,1.52,-0.17,1.93
2022-11-15 11:13:33.7700,1.04,0.93,-0.43,1.45
2022-11-15 11:13:33.7750,0.31,-0.21,-0.06,0.37
2022-11-15 11:13:33.7850,-0.12,-1.06,-0.16,1.07
2022-11-15 11:13:33.7950,0.05,-0.95,-0.63,1.14
2022-11-15 11:13:33.8050,0.41,-0.78,0.02,0.88
2022-11-15 11:13:33.8150,0.55,-0.98,0.36,1.18
2022-11-15 11:13:33.8260,0.18,-0.58,0.24,0.65
2022-11-15 11:13:33.8360,0.14,-0.37,-0.06,0.4
2022-11-15 11:13:33.8460,0.53,-0.39,-0.19,0.68
2022-11-15 11:13:33.8560,1.0,-0.29,-1.01,1.45
2022-11-15 11:13:33.8720,0.81,-0.02,-2.28,2.41
2022-11-15 11:13:33.8750,0.55,0.67,-1.66,1.87
2022-11-15 11:13:33.8860,0.68,0.29,-0.86,1.13
2022-11-15 11:13:33.8960,-0.16,-0.84,-1.1,1.39
2022-11-15 11:13:33.9060,-0.9,-0.21,-0.86,1.26
2022-11-15 11:13:33.9160,0.37,-0.01,-0.06,0.37
2022-11-15 11:13:33.9260,1.24,-1.13,0.69,1.81
2022-11-15 11:13:33.9360,0.63,-0.29,0.52,0.86
2022-11-15 11:13:33.9460,0.97,0.62,-0.04,1.15
2022-11-15 11:13:33.9560,1.79,0.39,0.2,1.84
2022-11-15 11:13:33.9700,2.17,0.57,-0.01,2.24
2022-11-15 11:13:33.9750,2.36,-0.13,-0.31,2.38
2022-11-15 11:13:33.9860,2.19,-0.37,-0.49,2.27
2022-11-15 11:13:33.9960,2.14,-0.2,-0.34,2.17
2022-11-15 11:13:34.0060,2.46,-0.52,-0.37,2.54
2022-11-15 11:13:34.0160,3.19,-0.83,-0.64,3.35
2022-11-15 11:13:34.0260,3.95,-1.24,-0.77,4.21
2022-11-15 11:13:34.0360,4.66,-1.55,-1.01,5.01
2022-11-15 11:13:34.0460,5.7,-1.45,-1.1,5.98
2022-11-15 11:13:34.0560,6.48,-2.2,-0.46,6.85
2022-11-15 11:13:34.0700,6.04,-2.44,-0.54,6.53
2022-11-15 11:13:34.0760,6.0,-2.43,-1.37,6.61
2022-11-15 11:13:34.0860,4.84,-3.39,-1.21,6.03
2022-11-15 11:13:34.0960,3.84,-3.64,-1.34,5.45
2022-11-15 11:13:34.1060,3.3,-4.17,-1.51,5.52
2022-11-15 11:13:34.1160,3.27,-4.6,-1.64,5.87
2022-11-15 11:13:34.1260,4.4,-4.32,-1.96,6.47
2022-11-15 11:13:34.1360,4.63,-4.0,-2.57,6.63
2022-11-15 11:13:34.1460,3.27,-4.25,-3.13,6.2
2022-11-15 11:13:34.1560,1.94,-4.54,-2.21,5.4
2022-11-15 11:13:34.1710,1.13,-4.52,-0.72,4.71
2022-11-15 11:13:34.1760,0.28,-4.24,-0.3,4.25
2022-11-15 11:13:34.1860,-1.03,-3.23,-0.29,3.4
2022-11-15 11:13:34.1970,-0.32,-3.26,-1.12,3.46
2022-11-15 11:13:34.2060,0.48,-2.71,-1.86,3.32
2022-11-15 11:13:34.2170,1.35,-2.01,-2.18,3.25
2022-11-15 11:13:34.2270,1.56,-1.61,-0.53,2.3
2022-11-15 11:13:34.2370,-0.61,-2.01,1.5,2.58
2022-11-15 11:13:34.2460,-2.58,-2.32,1.15,3.65
2022-11-15 11:13:34.2570,-3.64,-2.15,0.15,4.23
2022-11-15 11:13:34.2710,-3.39,-1.43,-1.1,3.84
2022-11-15 11:13:34.2760,-2.89,-0.77,-1.8,3.49
2022-11-15 11:13:34.2870,-3.66,-0.83,-2.07,4.28
2022-11-15 11:13:34.2970,-5.05,-1.05,-2.16,5.59
2022-11-15 11:13:34.3070,-5.92,-0.89,-1.82,6.25
2022-11-15 11:13:34.3170,-5.9,0.03,-0.72,5.94
2022-11-15 11:13:34.3270,-5.35,0.92,0.51,5.45
2022-11-15 11:13:34.3370,-4.9,0.88,0.91,5.06
2022-11-15 11:13:34.3470,-4.4,0.84,0.8,4.55
2022-11-15 11:13:34.3570,-3.75,1.31,0.8,4.05
2022-11-15 11:13:34.3710,-3.28,1.69,0.79,3.77
2022-11-15 11:13:34.3770,-3.82,1.48,-0.28,4.1
2022-11-15 11:13:34.3870,-4.53,1.2,-1.6,4.95
2022-11-15 11:13:34.3970,-4.48,1.15,-1.86,4.98
2022-11-15 11:13:34.4070,-4.52,0.9,-2.33,5.16
2022-11-15 11:13:34.4170,-4.61,0.52,-3.0,5.52
2022-11-15 11:13:34.4270,-3.25,0.39,-3.21,4.58
2022-11-15 11:13:34.4370,-3.83,-0.57,-1.46,4.13
2022-11-15 11:13:34.4470,-8.89,-3.12,2.52,9.75
2022-11-15 11:13:34.4570,-8.21,-2.52,4.59,9.73
2022-11-15 11:13:34.4710,-6.63,-0.89,3.76,7.67
2022-11-15 11:13:34.4770,-7.79,-0.64,1.52,7.96
2022-11-15 11:13:34.4870,-7.13,0.15,-0.42,7.14
2022-11-15 11:13:34.4970,-5.65,-0.04,-0.78,5.7
2022-11-15 11:13:34.5080,-5.22,-0.93,-0.76,5.35
2022-11-15 11:13:34.5170,-5.5,-1.83,0.74,5.84
2022-11-15 11:13:34.5280,-5.33,-2.01,0.77,5.74
2022-11-15 11:13:34.5380,-4.48,-1.78,0.89,4.9
2022-11-15 11:13:34.5480,-4.11,-1.2,1.98,4.71
2022-11-15 11:13:34.5580,-3.79,-0.61,2.53,4.59
2022-11-15 11:13:34.5720,-3.3,-0.36,2.26,4.01
2022-11-15 11:13:34.5770,-2.67,0.75,2.26,3.57
2022-11-15 11:13:34.5880,-2.49,3.08,2.04,4.45
2022-11-15 11:13:34.5970,-4.24,2.82,4.27,6.64
2022-11-15 11:13:34.6080,-4.6,0.99,6.1,7.7
2022-11-15 11:13:34.6180,-3.6,0.18,6.65,7.56
2022-11-15 11:13:34.6280,-2.8,-0.99,5.68,6.4
2022-11-15 11:13:34.6380,-1.65,-2.8,3.72,4.93
2022-11-15 11:13:34.6480,0.09,-4.18,3.45,5.42
2022-11-15 11:13:34.6580,0.89,-3.35,3.77,5.12
2022-11-15 11:13:34.6720,1.12,-1.35,4.25,4.59
2022-11-15 11:13:34.6780,1.64,0.12,4.13,4.44
2022-11-15 11:13:34.6880,1.27,0.93,4.08,4.37
2022-11-15 11:13:34.6980,0.16,0.92,3.64,3.75
2022-11-15 11:13:34.7080,-0.95,1.01,1.83,2.29
2022-11-15 11:13:34.7180,-2.01,1.02,0.49,2.3
2022-11-15 11:13:34.7280,-3.68,3.05,0.18,4.78
2022-11-15 11:13:34.7380,-2.55,0.88,-0.08,2.69
2022-11-15 11:13:34.7480,-1.09,-1.65,-0.21,1.98
2022-11-15 11:13:34.7580,0.42,-1.48,0.42,1.59
2022-11-15 11:13:34.7740,1.72,-1.74,0.99,2.63
2022-11-15 11:13:34.7780,2.33,0.09,1.34,2.68
2022-11-15 11:13:34.7880,3.87,0.79,1.58,4.25
2022-11-15 11:13:34.7980,3.83,-0.23,0.65,3.89
2022-11-15 11:13:34.8080,3.03,0.15,-0.45,3.06
2022-11-15 11:13:34.8190,2.15,1.3,-0.38,2.54
2022-11-15 11:13:34.8280,1.61,2.54,-0.12,3.0
2022-11-15 11:13:34.8380,0.92,3.39,-0.34,3.52
2022-11-15 11:13:34.8490,0.14,4.06,0.13,4.06
2022-11-15 11:13:34.8590,-0.12,4.62,-0.43,4.64
2022-11-15 11:13:34.8740,-0.61,4.54,-1.95,4.97
2022-11-15 11:13:34.8780,-0.53,4.74,-1.84,5.11
2022-11-15 11:13:34.8880,-0.27,5.66,-1.15,5.78
2022-11-15 11:13:34.8980,-0.5,6.43,0.05,6.44
2022-11-15 11:13:34.9090,-0.71,6.96,0.73,7.03
2022-11-15 11:13:34.9180,-1.57,6.96,1.55,7.3
2022-11-15 11:13:34.9290,-2.3,7.11,1.41,7.6
2022-11-15 11:13:34.9390,-2.28,7.11,1.63,7.64
2022-11-15 11:13:34.9490,-2.22,5.97,1.36,6.51
2022-11-15 11:13:34.9590,-3.8,3.48,1.24,5.29
2022-11-15 11:13:34.9740,-4.25,2.05,0.44,4.73
2022-11-15 11:13:34.9780,-2.68,1.0,-0.03,2.86
2022-11-15 11:13:34.9890,-1.19,-0.07,0.39,1.25
2022-11-15 11:13:34.9990,0.76,-1.1,1.22,1.8
2022-11-15 11:13:35.0090,1.92,-1.2,2.59,3.44
2022-11-15 11:13:35.0190,1.85,-0.8,3.49,4.03
2022-11-15 11:13:35.0290,1.39,-0.35,3.65,3.92
2022-11-15 11:13:35.0390,-0.23,0.33,2.21,2.24
2022-11-15 11:13:35.0490,-1.78,0.29,0.32,1.83
2022-11-15 11:13:35.0590,-2.83,-0.08,-0.41,2.86
2022-11-15 11:13:35.0740,-3.86,-0.67,-1.11,4.07
2022-11-15 11:13:35.0790,-3.78,-1.57,-1.5,4.35
2022-11-15 11:13:35.0890,-2.7,-2.4,-1.9,4.08
2022-11-15 11:13:35.0990,-1.67,-1.8,-1.88,3.09
2022-11-15 11:13:35.1090,-1.23,-0.15,-0.7,1.42
2022-11-15 11:13:35.1190,0.15,-1.73,-0.75,1.89
2022-11-15 11:13:35.1290,0.62,-2.52,-0.85,2.73
2022-11-15 11:13:35.1390,0.98,-1.67,-0.09,1.93
2022-11-15 11:13:35.1490,1.19,-1.9,0.78,2.37
2022-11-15 11:13:35.1600,2.08,-3.26,0.05,3.86
2022-11-15 11:13:35.1750,2.77,-3.91,0.1,4.79
2022-11-15 11:13:35.1790,2.88,-3.87,0.64,4.86
2022-11-15 11:13:35.1900,2.48,-3.81,0.64,4.59
2022-11-15 11:13:35.1990,1.54,-3.02,1.03,3.54
2022-11-15 11:13:35.2090,1.21,-1.66,1.0,2.28
2022-11-15 11:13:35.2190,1.41,-1.02,0.59,1.83
2022-11-15 11:13:35.2290,1.81,-1.18,0.4,2.19
2022-11-15 11:13:35.2400,1.96,-1.43,0.13,2.42
2022-11-15 11:13:35.2500,1.3,-0.88,-0.04,1.57
2022-11-15 11:13:35.2600,0.88,0.38,0.33,1.01
2022-11-15 11:13:35.2730,0.18,1.56,0.64,1.69
2022-11-15 11:13:35.2790,-0.88,2.06,0.1,2.24
2022-11-15 11:13:35.2900,-1.38,2.5,-0.99,3.02
2022-11-15 11:13:35.2990,-1.25,3.6,-2.01,4.3
2022-11-15 11:13:35.3100,-0.52,4.33,-3.04,5.31
2022-11-15 11:13:35.3200,-0.42,4.93,-3.53,6.07
2022-11-15 11:13:35.3290,-2.01,5.76,-3.66,7.11
2022-11-15 11:13:35.3400,-3.46,1.78,-5.06,6.38
2022-11-15 11:13:35.3500,-2.22,-1.32,-6.98,7.44
2022-11-15 11:13:35.3600,-0.46,-0.52,-6.32,6.35
2022-11-15 11:13:35.3750,0.31,-0.8,-3.66,3.75
2022-11-15 11:13:35.3790,0.66,-2.03,-2.14,3.02
2022-11-15 11:13:35.3900,1.13,-3.67,-0.81,3.92
2022-11-15 11:13:35.4000,1.68,-4.11,1.16,4.58
2022-11-15 11:13:35.4100,2.78,-2.3,2.72,4.51
2022-11-15 11:13:35.4200,3.11,-1.53,4.63,5.78
2022-11-15 11:13:35.4300,1.58,-2.18,5.09,5.75
2022-11-15 11:13:35.4400,-0.58,-2.51,4.39,5.09
2022-11-15 11:13:35.4500,-1.27,-2.57,2.85,4.04
2022-11-15 11:13:35.4600,-0.5,-2.31,1.31,2.7
2022-11-15 11:13:35.4750,0.12,-2.97,0.58,3.02
2022-11-15 11:13:35.4800,0.88,-3.27,-0.98,3.52
2022-11-15 11:13:35.4900,0.52,-3.51,-2.81,4.52
2022-11-15 11:13:35.5000,-0.71,-3.53,-2.36,4.3
2022-11-15 11:13:35.5100,-0.32,-2.67,-1.04,2.88
2022-11-15 11:13:35.5200,0.3,-2.02,0.73,2.16
2022-11-15 11:13:35.5300,-0.13,-2.85,1.18,3.08
2022-11-15 11:13:35.5400,-0.72,-3.18,0.51,3.3
2022-11-15 11:13:35.5500,-1.84,-2.57,0.18,3.16
2022-11-15 11:13:35.5610,-3.12,-0.49,-0.28,3.17
2022-11-15 11:13:35.5740,-3.42,2.8,0.24,4.42
2022-11-15 11:13:35.5800,-3.94,5.55,1.24,6.91
2022-11-15 11:13:35.5900,-2.54,6.07,1.55,6.76
2022-11-15 11:13:35.6010,-2.68,4.9,1.65,5.82
2022-11-15 11:13:35.6100,-1.28,3.75,1.85,4.37
2022-11-15 11:13:35.6210,-0.67,3.43,1.76,3.91
2022-11-15 11:13:35.6300,-1.29,3.32,1.25,3.77
2022-11-15 11:13:35.6410,-2.58,3.06,0.56,4.04
2022-11-15 11:13:35.6510,-3.41,2.73,-0.53,4.4
2022-11-15 11:13:35.6610,-3.58,2.87,-0.65,4.63
2022-11-15 11:13:35.6760,-3.01,3.38,-0.71,4.58
2022-11-15 11:13:35.6800,-1.72,3.59,-1.0,4.1
2022-11-15 11:13:35.6910,-0.52,3.11,-1.0,3.3
2022-11-15 11:13:35.7010,0.79,2.12,-1.33,2.62
2022-11-15 11:13:35.7110,1.79,0.9,-1.46,2.47
2022-11-15 11:13:35.7210,1.34,-0.01,-1.22,1.81
2022-11-15 11:13:35.7310,1.16,-0.64,-0.96,1.63
2022-11-15 11:13:35.7410,0.94,-1.79,-0.8,2.17
2022-11-15 11:13:35.7510,0.9,-2.34,-0.15,2.51
2022-11-15 11:13:35.7610,1.06,-2.02,0.6,2.35
2022-11-15 11:13:35.7760,1.31,-1.5,1.18,2.31
2022-11-15 11:13:35.7810,1.62,-1.21,1.62,2.59
2022-11-15 11:13:35.7910,1.66,-1.31,1.6,2.65
2022-11-15 11:13:35.8010,1.34,-1.4,1.76,2.61
2022-11-15 11:13:35.8110,0.92,-1.15,1.94,2.43
2022-11-15 11:13:35.8210,0.43,-1.0,1.67,1.99
2022-11-15 11:13:35.8310,0.67,-0.97,1.11,1.61
2022-11-15 11:13:35.8410,1.37,-0.5,0.17,1.46
2022-11-15 11:13:35.8510,2.27,0.1,-0.86,2.42
2022-11-15 11:13:35.8610,3.04,0.61,-1.71,3.54
2022-11-15 11:13:35.8760,3.34,1.07,-2.0,4.03
2022-11-15 11:13:35.8810,2.99,0.81,-2.06,3.72
2022-11-15 11:13:35.8910,1.68,0.02,-2.25,2.8
2022-11-15 11:13:35.9010,0.68,-0.07,-2.36,2.45
2022-11-15 11:13:35.9110,-0.09,0.57,-2.18,2.25
2022-11-15 11:13:35.9210,0.07,0.72,-1.59,1.74
2022-11-15 11:13:35.9310,2.2,0.79,-1.48,2.76
2022-11-15 11:13:35.9420,4.24,0.84,-1.31,4.51
2022-11-15 11:13:35.9510,4.33,-0.22,-0.45,4.35
2022-11-15 11:13:35.9610,3.54,-0.96,0.2,3.67
2022-11-15 11:13:35.9770,1.27,-0.64,-0.07,1.42
2022-11-15 11:13:35.9810,-2.97,-0.62,-0.64,3.1
2022-11-15 11:13:35.9910,-6.84,-0.18,-1.84,7.08
2022-11-15 11:13:36.0020,-8.9,0.24,-0.78,8.93
2022-11-15 11:13:36.0110,-9.9,1.3,1.55,10.1
2022-11-15 11:13:36.0220,-6.93,2.36,1.79,7.53
2022-11-15 11:13:36.0320,-2.79,1.69,1.34,3.52
2022-11-15 11:13:36.0420,-1.5,0.65,1.88,2.49
2022-11-15 11:13:36.0520,-1.8,0.53,2.6,3.2
2022-11-15 11:13:36.0620,-2.29,0.64,2.61,3.53
2022-11-15 11:13:36.0760,-2.63,0.41,1.94,3.29
2022-11-15 11:13:36.0820,-2.66,0.11,1.15,2.9
2022-11-15 11:13:36.0910,-2.58,0.19,1.61,3.04
2022-11-15 11:13:36.1020,-1.99,0.3,0.53,2.08
2022-11-15 11:13:36.1120,-1.23,0.39,-1.1,1.69
2022-11-15 11:13:36.1220,-0.65,0.37,-1.26,1.46
2022-11-15 11:13:36.1320,-0.28,0.06,0.17,0.33
2022-11-15 11:13:36.1420,0.05,-0.59,-0.02,0.59
2022-11-15 11:13:36.1520,0.5,-0.92,-1.24,1.62
2022-11-15 11:13:36.1620,1.47,-1.24,-1.39,2.37
2022-11-15 11:13:36.1770,2.4,-1.21,-1.27,2.97
2022-11-15 11:13:36.1820,2.83,-1.11,-1.46,3.37
2022-11-15 11:13:36.1920,2.88,-1.14,-1.77,3.56
2022-11-15 11:13:36.2020,2.94,-0.68,-1.11,3.21
2022-11-15 11:13:36.2120,3.96,-0.11,-0.61,4.0
2022-11-15 11:13:36.2220,4.82,0.37,-0.41,4.85
2022-11-15 11:13:36.2320,4.16,0.81,-0.41,4.25
2022-11-15 11:13:36.2430,3.22,1.02,-0.7,3.44
2022-11-15 11:13:36.2520,2.28,0.95,-0.9,2.62
2022-11-15 11:13:36.2630,0.88,1.09,-1.09,1.77
2022-11-15 11:13:36.2770,-0.09,1.5,-0.74,1.67
2022-11-15 11:13:36.2820,0.06,2.02,0.94,2.22
2022-11-15 11:13:36.2930,-0.23,1.82,1.4,2.3
2022-11-15 11:13:36.3020,-0.87,0.88,1.28,1.78
2022-11-15 11:13:36.3120,-0.93,0.27,1.69,1.94
2022-11-15 11:13:36.3230,-0.57,0.11,1.16,1.29
2022-11-15 11:13:36.3320,-0.27,0.22,-0.28,0.44
2022-11-15 11:13:36.3430,0.41,0.43,-0.35,0.68
2022-11-15 11:13:36.3530,0.56,0.2,-0.58,0.83
2022-11-15 11:13:36.3630,0.75,-0.5,-1.05,1.38
2022-11-15 11:13:36.3780,0.31,-1.18,-0.57,1.34
2022-11-15 11:13:36.3820,-0.62,-1.58,0.2,1.7
2022-11-15 11:13:36.3930,-1.17,-1.77,0.64,2.21
2022-11-15 11:13:36.4030,-1.8,-1.21,-0.43,2.21
2022-11-15 11:13:36.4130,-2.53,-1.62,-0.26,3.01
2022-11-15 11:13:36.4230,-2.21,-1.98,-0.22,2.97
2022-11-15 11:13:36.4330,-0.77,-1.37,-0.43,1.62
2022-11-15 11:13:36.4430,0.16,-0.7,-0.03,0.71
2022-11-15 11:13:36.4530,0.71,-0.45,0.56,1.01
2022-11-15 11:13:36.4630,0.98,-0.64,0.65,1.33
2022-11-15 11:13:36.4770,0.99,-0.95,0.34,1.41
2022-11-15 11:13:36.4830,0.64,-0.98,0.0,1.17
2022-11-15 11:13:36.4930,0.21,-0.79,-0.27,0.86
2022-11-15 11:13:36.5030,0.24,-0.52,-0.51,0.76
2022-11-15 11:13:36.5130,0.26,-0.57,-0.55,0.83
2022-11-15 11:13:36.5230,-0.09,-0.85,-0.21,0.88
2022-11-15 11:13:36.5330,0.04,-0.96,-0.1,0.96
2022-11-15 11:13:36.5430,0.29,-0.81,-0.01,0.86
2022-11-15 11:13:36.5540,0.42,-0.58,0.79,1.06
2022-11-15 11:13:36.5630,0.4,-0.39,1.49,1.59
2022-11-15 11:13:36.5780,0.38,-0.24,1.13,1.21
2022-11-15 11:13:36.5830,0.32,0.12,-0.14,0.36
2022-11-15 11:13:36.5930,0.44,0.39,-0.77,0.96
2022-11-15 11:13:36.6040,0.5,0.37,-0.67,0.91
2022-11-15 11:13:36.6130,0.67,0.51,-0.42,0.94
2022-11-15 11:13:36.6240,0.94,0.56,-0.28,1.12
2022-11-15 11:13:36.6330,1.05,0.45,-0.21,1.16
2022-11-15 11:13:36.6440,1.09,0.51,-0.25,1.22
2022-11-15 11:13:36.6540,0.9,0.46,0.26,1.04
2022-11-15 11:13:36.6630,0.22,0.08,0.32,0.39
2022-11-15 11:13:36.6780,-0.38,0.06,-0.2,0.43
2022-11-15 11:13:36.6830,-0.57,0.19,-0.28,0.66
2022-11-15 11:13:36.6940,-0.4,0.43,-0.16,0.6
2022-11-15 11:13:36.7040,-0.23,0.54,0.31,0.66
2022-11-15 11:13:36.7140,-0.13,0.51,0.57,0.77
2022-11-15 11:13:36.7240,-0.18,0.54,0.67,0.87
2022-11-15 11:13:36.7340,-0.35,0.67,0.93,1.19
2022-11-15 11:13:36.7440,-0.36,1.12,1.12,1.62
2022-11-15 11:13:36.7540,-0.77,1.58,1.81,2.52
2022-11-15 11:13:36.7640,-1.44,1.54,1.68,2.69
2022-11-15 11:13:36.7780,-1.57,1.22,1.21,2.32
2022-11-15 11:13:36.7840,-1.12,1.54,0.96,2.13
2022-11-15 11:13:36.7940,-0.96,1.85,0.89,2.26
2022-11-15 11:13:36.8040,-1.23,1.72,1.16,2.41
2022-11-15 11:13:36.8140,-1.66,1.5,1.26,2.56
2022-11-15 11:13:36.8240,-1.85,1.18,1.23,2.51
2022-11-15 11:13:36.8340,-1.86,0.7,1.1,2.27
2022-11-15 11:13:36.8440,-1.55,0.69,1.0,1.96
2022-11-15 11:13:36.8550,-1.01,1.07,0.72,1.63
2022-11-15 11:13:36.8640,-0.33,1.44,0.4,1.53
2022-11-15 11:13:36.8790,0.21,1.7,0.36,1.75
2022-11-15 11:13:36.8840,0.26,1.68,0.56,1.78
2022-11-15 11:13:36.8940,-0.02,1.49,0.21,1.5
2022-11-15 11:13:36.9040,-0.32,1.17,-0.67,1.38
2022-11-15 11:13:36.9140,-0.29,0.79,-1.48,1.7
2022-11-15 11:13:36.9240,-0.1,0.53,-1.89,1.96
2022-11-15 11:13:36.9350,0.03,0.49,-1.79,1.85
2022-11-15 11:13:36.9440,0.02,0.57,-1.3,1.41
2022-11-15 11:13:36.9550,-0.44,0.1,-0.55,0.71
2022-11-15 11:13:36.9640,-0.56,-0.51,-0.37,0.84
2022-11-15 11:13:36.9800,-0.12,-0.33,-0.48,0.59
2022-11-15 11:13:36.9840,0.01,0.11,-0.68,0.68
2022-11-15 11:13:36.9950,0.01,0.46,-1.15,1.23
2022-11-15 11:13:37.0050,-0.1,0.73,-1.51,1.68
2022-11-15 11:13:37.0150,0.05,0.94,-1.71,1.95
2022-11-15 11:13:37.0250,0.13,0.81,-1.65,1.84
2022-11-15 11:13:37.0350,0.14,0.4,-1.12,1.19
2022-11-15 11:13:37.0450,0.08,-0.43,-0.38,0.57
2022-11-15 11:13:37.0550,0.09,-0.98,-0.05,0.98
2022-11-15 11:13:37.0650,0.21,-0.9,-0.07,0.92
2022-11-15 11:13:37.0800,0.2,-0.72,-0.31,0.8
2022-11-15 11:13:37.0850,0.01,-0.93,-0.55,1.08
2022-11-15 11:13:37.0950,-0.01,-1.12,-0.68,1.31
2022-11-15 11:13:37.1050,-0.16,-1.25,-0.47,1.34
2022-11-15 11:13:37.1150,-0.25,-1.13,-0.16,1.16
2022-11-15 11:13:37.1250,-0.34,-0.88,0.27,0.98
2022-11-15 11:13:37.1350,0.28,-0.5,0.61,0.83
2022-11-15 11:13:37.1450,1.01,-0.27,0.89,1.37
2022-11-15 11:13:37.1550,0.59,-0.77,0.56,1.12
2022-11-15 11:13:37.1650,0.0,-1.35,-0.67,1.5
2022-11-15 11:13:37.1800,-0.19,-1.63,-1.78,2.42
2022-11-15 11:13:37.1850,-0.96,-2.17,-2.31,3.31
2022-11-15 11:13:37.1950,0.02,-1.51,-2.26,2.71
2022-11-15 11:13:37.2050,0.36,-0.73,-1.11,1.37
2022-11-15 11:13:37.2150,0.1,-0.63,0.16,0.65
2022-11-15 11:13:37.2250,0.17,-0.52,0.54,0.76
2022-11-15 11:13:37.2350,0.29,-0.11,0.44,0.53
2022-11-15 11:13:37.2450,0.05,0.4,0.53,0.66
2022-11-15 11:13:37.2550,-0.27,0.63,0.56,0.88
2022-11-15 11:13:37.2650,-0.31,0.57,0.0,0.64
2022-11-15 11:13:37.2790,-0.18,0.75,-0.17,0.78
2022-11-15 11:13:37.2850,-0.37,1.02,0.18,1.09
2022-11-15 11:13:37.2960,-0.55,1.27,0.06,1.38
2022-11-15 11:13:37.3060,-0.91,1.2,-0.28,1.53
2022-11-15 11:13:37.3150,-0.85,1.1,-0.57,1.5
2022-11-15 11:13:37.3250,-0.67,0.91,-0.73,1.34
2022-11-15 11:13:37.3360,-0.53,0.66,-0.99,1.3
2022-11-15 11:13:37.3450,-0.26,0.47,-0.94,1.08
2022-11-15 11:13:37.3560,-0.27,0.52,-0.52,0.78
2022-11-15 11:13:37.3660,-0.77,0.36,-0.31,0.9
2022-11-15 11:13:37.3800,-1.21,0.03,-0.46,1.29
2022-11-15 11:13:37.3850,-1.55,-0.42,-0.71,1.75
2022-11-15 11:13:37.3960,-1.31,-0.43,-0.87,1.63
2022-11-15 11:13:37.4060,-0.82,-0.25,-0.3,0.9
2022-11-15 11:13:37.4160,-0.12,-0.28,-0.33,0.44
2022-11-15 11:13:37.4260,0.34,-0.56,-0.46,0.8
2022-11-15 11:13:37.4360,0.62,-0.8,-0.08,1.01
2022-11-15 11:13:37.4460,0.9,-0.63,0.39,1.16
2022-11-15 11:13:37.4560,1.35,-0.55,0.22,1.47
2022-11-15 11:13:37.4660,0.97,-1.44,-0.29,1.76
2022-11-15 11:13:37.4800,-0.58,-2.02,-0.5,2.16
2022-11-15 11:13:37.4860,-1.18,-1.42,-1.07,2.13
2022-11-15 11:13:37.4960,-0.43,-0.96,-1.23,1.61
2022-11-15 11:13:37.5060,-0.16,-1.02,-0.7,1.24
2022-11-15 11:13:37.5160,-0.75,-0.79,-0.1,1.09
2022-11-15 11:13:37.5260,-0.05,-0.28,-0.17,0.33
2022-11-15 11:13:37.5360,0.29,-0.26,0.27,0.47
2022-11-15 11:13:37.5460,0.27,0.01,0.42,0.49
2022-11-15 11:13:37.5560,0.33,-0.08,0.3,0.45
2022-11-15 11:13:37.5660,0.28,-0.18,0.34,0.47
2022-11-15 11:13:37.5820,0.35,-0.3,0.67,0.81
2022-11-15 11:13:37.5860,0.56,-0.37,0.83,1.06
2022-11-15 11:13:37.5960,0.58,-0.43,0.34,0.79
2022-11-15 11:13:37.6060,0.5,-0.57,0.13,0.76
2022-11-15 11:13:37.6160,0.58,-0.58,0.26,0.86
2022-11-15 11:13:37.6260,0.82,-0.4,0.37,0.98
2022-11-15 11:13:37.6360,0.88,-0.22,0.07,0.9
2022-11-15 11:13:37.6460,0.63,-0.12,0.21,0.67
2022-11-15 11:13:37.6560,0.29,0.09,-0.31,0.43
2022-11-15 11:13:37.6660,-0.03,0.18,-0.75,0.77
2022-11-15 11:13:37.6800,0.15,0.19,-0.24,0.34
2022-11-15 11:13:37.6860,0.69,0.43,-0.44,0.92
2022-11-15 11:13:37.6970,1.0,0.63,-0.98,1.53
2022-11-15 11:13:37.7070,0.67,0.96,-1.46,1.87
2022-11-15 11:13:37.7170,0.13,1.14,-1.25,1.69
2022-11-15 11:13:37.7270,-0.2,1.15,0.09,1.17
2022-11-15 11:13:37.7370,-0.31,1.11,1.47,1.86
2022-11-15 11:13:37.7470,-0.66,0.95,1.66,2.02
2022-11-15 11:13:37.7570,-0.99,1.05,0.96,1.73
2022-11-15 11:13:37.7670,-0.61,1.29,0.27,1.45
2022-11-15 11:13:37.7810,0.18,1.63,0.52,1.72
2022-11-15 11:13:37.7860,1.1,1.94,0.92,2.41
2022-11-15 11:13:37.7970,1.54,1.71,0.51,2.35
2022-11-15 11:13:37.8070,0.85,0.84,-0.55,1.31
2022-11-15 11:13:37.8170,-0.28,0.32,-1.81,1.85
2022-11-15 11:13:37.8270,-0.86,0.49,-2.16,2.37
2022-11-15 11:13:37.8370,-1.23,1.11,-1.0,1.93
2022-11-15 11:13:37.8470,-1.55,1.59,0.88,2.38
2022-11-15 11:13:37.8570,-1.5,1.41,1.73,2.68
2022-11-15 11:13:37.8670,-2.02,0.97,-0.45,2.28
2022-11-15 11:13:37.8810,-2.83,-0.04,-1.95,3.43
2022-11-15 11:13:37.8870,-2.19,-0.02,-1.13,2.46
2022-11-15 11:13:37.8970,-0.95,0.49,1.2,1.6
2022-11-15 11:13:37.9070,-0.31,1.71,2.86,3.34
2022-11-15 11:13:37.9170,1.55,3.92,1.4,4.44
2022-11-15 11:13:37.9270,3.3,6.42,-0.44,7.23
2022-11-15 11:13:37.9370,1.34,5.25,0.99,5.5
2022-11-15 11:13:37.9480,-0.99,0.73,1.14,1.67
2022-11-15 11:13:37.9570,-3.28,-2.75,-1.18,4.43
2022-11-15 11:13:37.9670,-2.86,-2.38,-2.68,4.58
2022-11-15 11:13:37.9830,-2.49,-0.94,-2.91,3.94
2022-11-15 11:13:37.9870,-1.07,0.83,-1.66,2.14
2022-11-15 11:13:37.9980,1.45,5.23,0.89,5.49
2022-11-15 11:13:38.0070,-0.96,4.23,1.85,4.71
2022-11-15 11:13:38.0170,-1.0,1.52,1.47,2.33
2022-11-15 11:13:38.0270,-0.35,0.45,1.52,1.62
2022-11-15 11:13:38.0370,-1.22,0.0,1.69,2.08
2022-11-15 11:13:38.0480,-1.98,-0.16,1.77,2.66
2022-11-15 11:13:38.0580,-2.37,0.17,1.89,3.03
2022-11-15 11:13:38.0680,-3.47,0.4,0.77,3.57
2022-11-15 11:13:38.0820,-3.53,1.02,-0.85,3.77
2022-11-15 11:13:38.0870,-2.94,1.45,-2.48,4.11
2022-11-15 11:13:38.0980,-2.08,1.31,-3.2,4.03
2022-11-15 11:13:38.1080,-0.91,0.61,-2.73,2.94
2022-11-15 11:13:38.1180,0.24,-0.58,-0.92,1.11
2022-11-15 11:13:38.1280,1.31,-2.13,1.55,2.94
2022-11-15 11:13:38.1380,1.6,-4.42,3.06,5.6
2022-11-15 11:13:38.1480,1.28,-6.7,3.14,7.5
2022-11-15 11:13:38.1580,0.77,-7.73,2.21,8.07
2022-11-15 11:13:38.1680,-0.39,-6.32,0.75,6.37
2022-11-15 11:13:38.1820,-1.48,-2.56,-0.13,2.95
2022-11-15 11:13:38.1880,-1.72,0.67,0.44,1.89
2022-11-15 11:13:38.1980,-1.82,2.45,1.17,3.26
2022-11-15 11:13:38.2080,-2.07,3.1,1.7,4.09
2022-11-15 11:13:38.2180,-2.44,2.89,1.85,4.21
2022-11-15 11:13:38.2280,-2.92,2.31,1.71,4.09
2022-11-15 11:13:38.2380,-3.31,2.22,1.6,4.29
2022-11-15 11:13:38.2480,-3.33,2.63,1.43,4.47
2022-11-15 11:13:38.2580,-3.28,2.69,1.33,4.44
2022-11-15 11:13:38.2690,-3.29,2.62,1.68,4.52
2022-11-15 11:13:38.2820,-2.87,2.5,1.99,4.29
2022-11-15 11:13:38.2880,-2.29,2.09,2.14,3.76
2022-11-15 11:13:38.2980,-1.82,1.47,2.14,3.17
2022-11-15 11:13:38.3080,-1.39,0.56,2.03,2.52
2022-11-15 11:13:38.3190,-0.79,-0.29,1.84,2.02
2022-11-15 11:13:38.3280,-0.04,-0.67,1.48,1.62
2022-11-15 11:13:38.3380,0.19,-1.61,1.36,2.11
2022-11-15 11:13:38.3490,0.02,-2.96,1.43,3.28
2022-11-15 11:13:38.3590,-0.29,-4.13,1.7,4.47
2022-11-15 11:13:38.3690,-0.87,-4.98,2.17,5.5
2022-11-15 11:13:38.3820,-1.75,-5.1,2.78,6.06
2022-11-15 11:13:38.3880,-2.71,-4.45,3.18,6.1
2022-11-15 11:13:38.3990,-3.22,-3.06,2.87,5.28
2022-11-15 11:13:38.4090,-2.96,-1.32,2.04,3.82
2022-11-15 11:13:38.4190,-2.39,0.09,1.0,2.59
2022-11-15 11:13:38.4280,-1.95,0.98,0.03,2.18
2022-11-15 11:13:38.4390,-1.74,1.44,-0.56,2.32
2022-11-15 11:13:38.4490,-1.78,1.73,-0.51,2.53
2022-11-15 11:13:38.4590,-1.92,1.94,0.02,2.72
2022-11-15 11:13:38.4690,-1.95,2.04,0.72,2.91
2022-11-15 11:13:38.4830,-1.6,1.99,1.25,2.84
2022-11-15 11:13:38.4880,-0.83,1.68,1.49,2.39
2022-11-15 11:13:38.4980,0.06,1.36,1.18,1.8
2022-11-15 11:13:38.5090,0.58,1.35,0.53,1.56
2022-11-15 11:13:38.5190,0.74,1.55,-0.05,1.71
2022-11-15 11:13:38.5290,0.72,1.89,-0.47,2.07
2022-11-15 11:13:38.5390,0.72,2.07,-0.44,2.23
2022-11-15 11:13:38.5490,0.84,2.09,-0.14,2.25
2022-11-15 11:13:38.5590,0.96,2.1,0.27,2.32
2022-11-15 11:13:38.5690,1.06,2.07,0.56,2.39
2022-11-15 11:13:38.5830,1.12,1.99,0.72,2.39
2022-11-15 11:13:38.5890,1.03,1.9,0.93,2.35
2022-11-15 11:13:38.5990,0.7,1.94,1.14,2.35
2022-11-15 11:13:38.6090,0.08,2.06,0.99,2.28
2022-11-15 11:13:38.6190,-0.71,2.15,0.92,2.44
2022-11-15 11:13:38.6290,-1.38,2.2,1.29,2.89
2022-11-15 11:13:38.6390,-1.63,2.13,1.68,3.16
2022-11-15 11:13:38.6490,-1.45,1.85,1.84,2.98
2022-11-15 11:13:38.6590,-0.99,1.49,1.96,2.65
2022-11-15 11:13:38.6690,-0.7,1.24,2.2,2.62
2022-11-15 11:13:38.6820,-0.7,1.16,2.4,2.75
2022-11-15 11:13:38.6890,-0.99,1.08,2.45,2.85
2022-11-15 11:13:38.6990,-1.36,0.98,2.52,3.02
2022-11-15 11:13:38.7100,-1.75,0.8,2.3,2.99
2022-11-15 11:13:38.7190,-1.76,0.7,2.01,2.76
2022-11-15 11:13:38.7290,-1.82,0.95,1.57,2.58
2022-11-15 11:13:38.7400,-1.7,1.62,1.15,2.61
2022-11-15 11:13:38.7500,-1.21,2.54,1.2,3.05
2022-11-15 11:13:38.7600,-0.76,3.1,1.11,3.37
2022-11-15 11:13:38.7700,-0.16,3.4,0.5,3.44
2022-11-15 11:13:38.7850,1.27,3.72,-0.35,3.94
2022-11-15 11:13:38.7890,3.69,4.02,-0.94,5.53
2022-11-15 11:13:38.8000,5.79,4.02,-1.77,7.26
2022-11-15 11:13:38.8100,7.22,3.79,-2.67,8.58
2022-11-15 11:13:38.8200,8.38,3.67,-1.96,9.35
2022-11-15 11:13:38.8300,9.35,3.56,0.27,10.0
2022-11-15 11:13:38.8400,10.65,3.3,4.71,12.1
2022-11-15 11:13:38.8500,9.79,1.16,4.54,10.85
2022-11-15 11:13:38.8600,5.21,-2.47,-2.48,6.27
2022-11-15 11:13:38.8700,1.79,-6.13,-4.91,8.05
2022-11-15 11:13:38.8840,-1.43,-9.96,-5.1,11.28
2022-11-15 11:13:38.8900,-4.98,-12.62,-4.7,14.35
2022-11-15 11:13:38.9000,-7.55,-12.67,-1.7,14.84
2022-11-15 11:13:38.9100,-8.02,-10.03,3.14,13.22
2022-11-15 11:13:38.9200,-6.19,-6.13,4.27,9.7
2022-11-15 11:13:38.9300,-3.98,-2.95,2.83,5.7
2022-11-15 11:13:38.9400,-2.35,-0.64,1.66,2.94
2022-11-15 11:13:38.9500,-1.35,0.89,0.92,1.86
2022-11-15 11:13:38.9600,-0.99,1.26,-0.09,1.6
2022-11-15 11:13:38.9700,-0.88,0.74,-1.83,2.16
2022-11-15 11:13:38.9840,-1.23,-0.22,-3.92,4.11
2022-11-15 11:13:38.9900,-2.42,-1.52,-5.51,6.2
2022-11-15 11:13:39.0000,-4.3,-3.61,-6.64,8.69
2022-11-15 11:13:39.0100,-6.92,-6.6,-7.39,12.08
2022-11-15 11:13:39.0200,-10.12,-9.14,-7.68,15.65
2022-11-15 11:13:39.0300,-11.99,-9.48,-7.14,16.87
2022-11-15 11:13:39.0400,-12.95,-8.59,-5.39,16.44
2022-11-15 11:13:39.0500,-14.6,-8.14,-2.21,16.86
2022-11-15 11:13:39.0600,-15.35,-7.58,4.2,17.62
2022-11-15 11:13:39.0710,-12.54,-9.41,16.59,22.82
2022-11-15 11:13:39.0840,-8.7,-10.76,23.86,27.58
2022-11-15 11:13:39.0900,-8.12,-6.06,17.75,20.43
2022-11-15 11:13:39.1010,-8.44,-2.59,7.13,11.34
2022-11-15 11:13:39.1110,-9.04,-1.13,0.14,9.11
2022-11-15 11:13:39.1210,-9.74,-0.1,-0.19,9.74
2022-11-15 11:13:39.1310,-10.07,1.82,2.01,10.42
2022-11-15 11:13:39.1410,-9.65,3.51,3.07,10.71
2022-11-15 11:13:39.1510,-9.0,5.38,4.08,11.25
2022-11-15 11:13:39.1610,-8.41,7.49,5.45,12.51
2022-11-15 11:13:39.1710,-7.77,9.69,6.9,14.2
2022-11-15 11:13:39.1870,-7.08,11.72,8.53,16.13
2022-11-15 11:13:39.1900,-6.41,13.61,9.71,17.9
2022-11-15 11:13:39.2010,-5.53,14.93,8.59,18.09
2022-11-15 11:13:39.2110,-4.48,15.48,6.3,17.3
2022-11-15 11:13:39.2210,-3.33,15.44,4.78,16.5
2022-11-15 11:13:39.2310,-1.96,14.57,4.45,15.35
2022-11-15 11:13:39.2410,0.09,11.43,4.71,12.36
2022-11-15 11:13:39.2510,1.26,7.71,4.18,8.86
2022-11-15 11:13:39.2610,1.0,5.14,3.72,6.42
2022-11-15 11:13:39.2710,-0.02,2.18,4.65,5.13
2022-11-15 11:13:39.2850,-2.5,0.24,0.98,2.69
2022-11-15 11:13:39.2910,-3.8,-3.01,0.49,4.87
2022-11-15 11:13:39.3010,-4.4,-8.13,2.79,9.65
2022-11-15 11:13:39.3110,-5.94,-14.88,1.45,16.08
2022-11-15 11:13:39.3210,-11.65,-27.39,-7.49,30.69
2022-11-15 11:13:39.3320,-15.54,-39.35,-11.99,43.97
2022-11-15 11:13:39.3410,-14.29,-43.27,-10.08,46.67
2022-11-15 11:13:39.3510,-10.48,-37.28,-1.69,38.76
2022-11-15 11:13:39.3610,-7.03,-21.92,5.15,23.58
2022-11-15 11:13:39.3710,-4.53,-11.0,4.09,12.57
2022-11-15 11:13:39.3850,-2.08,-4.87,1.63,5.54
2022-11-15 11:13:39.3910,-0.02,-1.02,-0.31,1.06
2022-11-15 11:13:39.4010,1.11,0.82,-2.67,3.0
2022-11-15 11:13:39.4120,1.64,2.1,-4.54,5.26
2022-11-15 11:13:39.4210,2.41,3.45,-5.17,6.66
2022-11-15 11:13:39.4310,3.67,4.39,-5.37,7.84
2022-11-15 11:13:39.4410,4.8,4.83,-5.85,8.97
2022-11-15 11:13:39.4520,5.58,4.86,-6.15,9.62
2022-11-15 11:13:39.4610,6.23,4.9,-6.2,10.06
2022-11-15 11:13:39.4720,7.33,5.51,-7.19,11.65
2022-11-15 11:13:39.4850,8.28,6.28,-7.34,12.72
2022-11-15 11:13:39.4910,9.01,7.34,-6.76,13.44
2022-11-15 11:13:39.5010,9.74,8.7,-5.84,14.3
2022-11-15 11:13:39.5120,10.39,10.55,-4.81,15.56
2022-11-15 11:13:39.5220,10.61,12.84,-2.33,16.81
2022-11-15 11:13:39.5320,10.56,15.2,1.95,18.61
2022-11-15 11:13:39.5420,10.4,17.2,6.8,21.21
2022-11-15 11:13:39.5520,9.81,18.69,9.54,23.16
2022-11-15 11:13:39.5620,8.0,19.03,9.72,22.81
2022-11-15 11:13:39.5720,5.04,19.32,9.81,22.24
2022-11-15 11:13:39.5840,2.33,17.76,6.53,19.06
2022-11-15 11:13:39.5910,0.88,14.29,1.6,14.4
2022-11-15 11:13:39.6010,-0.07,11.03,1.92,11.19
2022-11-15 11:13:39.6110,0.39,6.91,6.63,9.58
2022-11-15 11:13:39.6210,3.71,5.58,2.0,6.99
2022-11-15 11:13:39.6310,5.03,6.7,-7.96,11.55
2022-11-15 11:13:39.6420,4.82,4.55,-7.93,10.33
2022-11-15 11:13:39.6520,3.05,-4.4,-9.63,11.01
2022-11-15 11:13:39.6630,-0.97,-21.51,-18.77,28.56
2022-11-15 11:13:39.6720,-6.09,-36.11,-24.01,43.78
2022-11-15 11:13:39.6900,-9.29,-42.27,-17.67,46.74
2022-11-15 11:13:39.6930,-7.68,-35.51,-3.37,36.48
2022-11-15 11:13:39.7020,-2.94,-19.01,4.36,19.72
2022-11-15 11:13:39.7120,-1.29,-10.48,6.6,12.45
2022-11-15 11:13:39.7220,-0.79,-6.94,5.77,9.05
2022-11-15 11:13:39.7330,-2.06,-4.86,4.34,6.83
2022-11-15 11:13:39.7420,-5.43,-6.05,2.52,8.51
2022-11-15 11:13:39.7530,-9.29,-7.74,0.02,12.09
2022-11-15 11:13:39.7620,-10.53,-7.58,-1.67,13.08
2022-11-15 11:13:39.7730,-13.74,-9.5,2.84,16.94
2022-11-15 11:13:39.7880,-12.23,-13.73,9.79,20.83
2022-11-15 11:13:39.7920,-4.4,-13.31,12.58,18.83
2022-11-15 11:13:39.8030,-0.96,-6.93,9.47,11.77
2022-11-15 11:13:39.8120,-2.78,-4.32,3.17,6.03
2022-11-15 11:13:39.8230,-6.08,-3.37,0.76,6.99
2022-11-15 11:13:39.8320,-8.2,-1.28,2.94,8.8
2022-11-15 11:13:39.8430,-8.39,1.29,4.17,9.45
2022-11-15 11:13:39.8520,-8.06,3.94,5.16,10.34
2022-11-15 11:13:39.8620,-7.94,6.69,6.83,12.42
2022-11-15 11:13:39.8730,-7.95,9.57,8.73,15.19
2022-11-15 11:13:39.8860,-7.81,12.12,9.64,17.34
2022-11-15 11:13:39.8920,-7.46,13.83,8.58,17.9
2022-11-15 11:13:39.9030,-6.83,14.83,6.58,17.6
2022-11-15 11:13:39.9130,-6.03,16.04,4.98,17.84
2022-11-15 11:13:39.9230,-4.72,17.0,3.67,18.02
2022-11-15 11:13:39.9330,-2.93,16.7,3.79,17.37
2022-11-15 11:13:39.9430,-0.48,13.7,5.43,14.74
2022-11-15 11:13:39.9530,1.53,9.06,5.99,10.96
2022-11-15 11:13:39.9630,1.79,6.32,4.71,8.08
2022-11-15 11:13:39.9730,1.12,4.55,2.79,5.45
2022-11-15 11:13:39.9870,0.18,2.36,3.06,3.86
2022-11-15 11:13:39.9930,-1.94,0.13,0.18,1.95
2022-11-15 11:13:40.0030,-4.75,-3.19,-3.63,6.77
2022-11-15 11:13:40.0130,-7.33,-9.25,-2.03,11.97
2022-11-15 11:13:40.0230,-9.66,-18.21,-1.53,20.67
2022-11-15 11:13:40.0330,-13.09,-32.04,-8.58,35.65
2022-11-15 11:13:40.0430,-14.72,-49.7,-8.92,52.59
2022-11-15 11:13:40.0540,-7.38,-50.16,-1.62,50.72
2022-11-15 11:13:40.0630,1.02,-35.89,4.41,36.17
2022-11-15 11:13:40.0730,2.75,-18.55,4.67,19.32
2022-11-15 11:13:40.0870,2.88,-9.63,1.05,10.1
2022-11-15 11:13:40.0930,2.95,-5.11,-1.8,6.16
2022-11-15 11:13:40.1030,2.41,-1.18,-3.7,4.57
2022-11-15 11:13:40.1140,2.07,2.52,-5.19,6.12
2022-11-15 11:13:40.1230,2.33,5.71,-5.15,8.03
2022-11-15 11:13:40.1330,3.1,8.14,-3.71,9.46
2022-11-15 11:13:40.1440,3.58,9.61,-2.75,10.61
2022-11-15 11:13:40.1540,3.67,10.36,-2.78,11.33
2022-11-15 11:13:40.1640,3.91,10.65,-3.74,11.94
2022-11-15 11:13:40.1740,4.45,10.42,-5.36,12.53
2022-11-15 11:13:40.1880,5.11,10.36,-6.61,13.3
2022-11-15 11:13:40.1930,5.73,10.52,-7.09,13.92
2022-11-15 11:13:40.2040,6.18,10.68,-6.57,13.97
2022-11-15 11:13:40.2140,6.43,10.92,-5.52,13.82
2022-11-15 11:13:40.2240,6.74,11.31,-4.88,14.04
2022-11-15 11:13:40.2340,7.05,11.98,-3.96,14.45
2022-11-15 11:13:40.2440,7.29,12.57,-2.6,14.76
2022-11-15 11:13:40.2540,7.51,12.71,-1.66,14.85
2022-11-15 11:13:40.2640,7.52,12.68,-0.81,14.76
2022-11-15 11:13:40.2740,7.18,13.37,1.79,15.28
2022-11-15 11:13:40.2890,5.49,14.63,5.88,16.69
2022-11-15 11:13:40.2940,1.63,13.05,6.2,14.53
2022-11-15 11:13:40.3040,-0.78,8.43,8.25,11.82
2022-11-15 11:13:40.3140,-0.08,2.43,15.44,15.63
2022-11-15 11:13:40.3240,4.03,2.24,3.3,5.66
2022-11-15 11:13:40.3340,4.27,3.38,-5.22,7.54
2022-11-15 11:13:40.3440,3.27,-0.29,-4.36,5.45
2022-11-15 11:13:40.3540,0.96,-9.77,-9.5,13.66
2022-11-15 11:13:40.3640,-4.3,-27.87,-16.5,32.67
2022-11-15 11:13:40.3740,-8.04,-41.36,-16.35,45.19
2022-11-15 11:13:40.3900,-6.03,-39.72,-9.7,41.32
2022-11-15 11:13:40.3940,-2.03,-26.89,-3.78,27.23
2022-11-15 11:13:40.4040,-0.2,-15.35,-1.37,15.41
2022-11-15 11:13:40.4140,1.48,-7.37,2.13,7.81
2022-11-15 11:13:40.4240,3.16,-1.8,4.19,5.54
2022-11-15 11:13:40.4340,3.09,1.01,0.05,3.25
2022-11-15 11:13:40.4450,1.79,1.01,-3.28,3.87
2022-11-15 11:13:40.4550,-0.5,-0.18,-2.99,3.03
2022-11-15 11:13:40.4640,-4.3,-4.25,-0.35,6.05
2022-11-15 11:13:40.4750,-11.14,-10.83,6.83,16.97
2022-11-15 11:13:40.4900,-14.84,-16.29,12.26,25.21
2022-11-15 11:13:40.4950,-7.0,-16.09,10.68,20.54
2022-11-15 11:13:40.5050,-0.21,-9.8,4.44,10.76
2022-11-15 11:13:40.5150,-0.99,-4.35,-0.4,4.47
2022-11-15 11:13:40.5250,-4.55,-2.02,-1.54,5.21
2022-11-15 11:13:40.5350,-8.74,-0.77,2.08,9.01
2022-11-15 11:13:40.5450,-10.05,1.18,5.34,11.44
2022-11-15 11:13:40.5550,-10.27,3.06,6.19,12.37
2022-11-15 11:13:40.5650,-10.37,4.83,6.22,13.02
2022-11-15 11:13:40.5750,-10.47,6.73,6.2,13.9
2022-11-15 11:13:40.5880,-10.38,8.72,6.17,14.89
2022-11-15 11:13:40.5940,-10.22,10.97,6.36,16.28
2022-11-15 11:13:40.6050,-9.91,13.51,6.51,17.97
2022-11-15 11:13:40.6150,-9.46,15.6,6.06,19.22
2022-11-15 11:13:40.6250,-8.45,17.1,5.12,19.74
2022-11-15 11:13:40.6350,-6.62,17.9,4.12,19.52
2022-11-15 11:13:40.6450,-4.49,17.62,3.55,18.52
2022-11-15 11:13:40.6550,-2.48,16.23,3.99,16.89
2022-11-15 11:13:40.6650,-0.37,12.45,4.74,13.32
2022-11-15 11:13:40.6750,0.71,8.22,4.09,9.2
2022-11-15 11:13:40.6890,0.35,5.82,3.37,6.73
2022-11-15 11:13:40.6950,-0.6,3.06,4.76,5.69
2022-11-15 11:13:40.7050,-3.0,0.63,0.29,3.07
2022-11-15 11:13:40.7150,-4.75,-3.26,-2.74,6.37
2022-11-15 11:13:40.7250,-6.51,-9.73,-1.15,11.76
2022-11-15 11:13:40.7350,-9.21,-21.47,-1.77,23.42
2022-11-15 11:13:40.7450,-14.57,-43.73,-8.72,46.91
2022-11-15 11:13:40.7560,-13.99,-58.43,-7.69,60.57
2022-11-15 11:13:40.7650,-8.65,-52.73,-1.66,53.46
2022-11-15 11:13:40.7750,-6.39,-32.65,0.2,33.27
2022-11-15 11:13:40.7890,-3.36,-17.04,2.53,17.55
2022-11-15 11:13:40.7950,0.49,-9.76,0.76,9.8
2022-11-15 11:13:40.8060,1.96,-5.41,-1.15,5.86
2022-11-15 11:13:40.8160,3.05,-1.98,-2.52,4.42
2022-11-15 11:13:40.8250,3.57,0.61,-3.97,5.37
2022-11-15 11:13:40.8360,3.53,2.92,-5.26,6.97
2022-11-15 11:13:40.8450,3.81,5.39,-5.07,8.32
2022-11-15 11:13:40.8560,4.46,7.59,-5.22,10.23
2022-11-15 11:13:40.8660,5.1,8.64,-6.01,11.69
2022-11-15 11:13:40.8760,6.05,9.39,-7.8,13.62
2022-11-15 11:13:40.8910,7.16,10.32,-9.45,15.71
2022-11-15 11:13:40.8950,7.93,11.58,-9.75,17.08
2022-11-15 11:13:40.9060,8.17,13.13,-7.87,17.35
2022-11-15 11:13:40.9160,8.18,14.07,-4.76,16.95
2022-11-15 11:13:40.9260,8.34,15.02,-1.48,17.24
2022-11-15 11:13:40.9360,8.49,16.2,2.56,18.46
2022-11-15 11:13:40.9460,8.68,17.51,6.36,20.55
2022-11-15 11:13:40.9560,8.77,18.11,6.79,21.23
2022-11-15 11:13:40.9660,8.13,17.64,4.77,20.0
2022-11-15 11:13:40.9760,6.34,16.88,3.69,18.4
2022-11-15 11:13:40.9900,4.04,15.81,3.72,16.73
2022-11-15 11:13:40.9960,0.65,15.0,6.45,16.34
2022-11-15 11:13:41.0060,-1.24,10.89,6.02,12.5
2022-11-15 11:13:41.0160,0.96,7.63,1.04,7.76
2022-11-15 11:13:41.0260,2.41,8.06,-1.84,8.61
2022-11-15 11:13:41.0360,4.26,7.79,-4.19,9.81
2022-11-15 11:13:41.0460,5.44,6.97,-3.9,9.66
2022-11-15 11:13:41.0560,5.91,6.06,-2.94,8.96
2022-11-15 11:13:41.0660,5.26,1.57,-2.96,6.23
2022-11-15 11:13:41.0770,1.98,-15.97,-8.1,18.01
2022-11-15 11:13:41.0920,-3.47,-37.05,-16.71,40.79
2022-11-15 11:13:41.0960,-7.6,-49.12,-19.5,53.39
2022-11-15 11:13:41.1060,-6.17,-46.27,-14.11,48.76
2022-11-15 11:13:41.1160,-0.3,-26.44,-4.27,26.78
2022-11-15 11:13:41.1260,4.13,-12.13,6.53,14.38
2022-11-15 11:13:41.1370,5.32,-4.66,11.56,13.55
2022-11-15 11:13:41.1460,2.97,-2.64,2.62,4.75
2022-11-15 11:13:41.1560,1.87,-2.13,-1.2,3.07
2022-11-15 11:13:41.1660,1.48,-3.59,-2.19,4.45
2022-11-15 11:13:41.1770,-2.94,-7.64,-5.37,9.79
2022-11-15 11:13:41.1910,-10.43,-13.15,5.02,17.51
2022-11-15 11:13:41.1960,-14.4,-19.49,19.81,31.29
2022-11-15 11:13:41.2070,-6.42,-18.06,15.67,24.75
2022-11-15 11:13:41.2170,-4.58,-10.04,3.08,11.45
2022-11-15 11:13:41.2270,-8.17,-5.1,-1.01,9.68
2022-11-15 11:13:41.2370,-10.87,-2.86,1.91,11.4
2022-11-15 11:13:41.2460,-11.71,-0.81,5.15,12.81
2022-11-15 11:13:41.2570,-11.65,1.53,5.61,13.02
2022-11-15 11:13:41.2660,-11.27,3.76,5.54,13.1
2022-11-15 11:13:41.2770,-10.83,6.11,5.5,13.59
2022-11-15 11:13:41.2910,-10.61,8.55,5.46,14.67
2022-11-15 11:13:41.2970,-10.34,11.37,5.41,16.29
2022-11-15 11:13:41.3060,-10.22,14.09,5.32,18.2
2022-11-15 11:13:41.3170,-9.72,15.98,5.06,19.37
2022-11-15 11:13:41.3270,-8.37,17.06,4.75,19.58
2022-11-15 11:13:41.3370,-6.47,17.61,4.72,19.34
2022-11-15 11:13:41.3470,-4.18,17.39,5.21,18.62
2022-11-15 11:13:41.3570,-1.63,15.99,6.31,17.26
2022-11-15 11:13:41.3670,0.87,12.44,7.34,14.47
2022-11-15 11:13:41.3770,2.11,8.39,6.15,10.61
2022-11-15 11:13:41.3920,1.97,6.5,3.48,7.63
2022-11-15 11:13:41.3970,1.5,4.95,2.7,5.83
2022-11-15 11:13:41.4080,0.13,2.55,2.56,3.61
2022-11-15 11:13:41.4170,-2.94,-0.23,-3.2,4.35
2022-11-15 11:13:41.4270,-5.13,-6.38,-2.45,8.54
2022-11-15 11:13:41.4370,-7.69,-16.1,2.0,17.95
2022-11-15 11:13:41.4470,-10.69,-32.7,-1.16,34.42
2022-11-15 11:13:41.4580,-13.62,-55.69,-7.31,57.79
2022-11-15 11:13:41.4670,-9.97,-58.44,-2.39,59.33
2022-11-15 11:13:41.4770,-5.63,-41.12,-0.47,41.5
2022-11-15 11:13:41.4920,-2.37,-22.31,1.43,22.48
2022-11-15 11:13:41.4970,1.66,-12.51,0.71,12.63
2022-11-15 11:13:41.5070,4.25,-7.65,-1.95,8.96
2022-11-15 11:13:41.5180,5.28,-4.22,-2.96,7.37
2022-11-15 11:13:41.5280,5.37,-0.91,-2.89,6.16
2022-11-15 11:13:41.5380,5.38,2.2,-3.88,6.98
2022-11-15 11:13:41.5480,5.5,4.99,-4.27,8.56
2022-11-15 11:13:41.5580,5.83,7.44,-4.56,10.49
2022-11-15 11:13:41.5680,6.25,9.31,-5.09,12.31
2022-11-15 11:13:41.5780,6.53,10.21,-5.62,13.35
2022-11-15 11:13:41.5930,6.96,11.11,-6.4,14.58
2022-11-15 11:13:41.5970,7.31,12.3,-6.43,15.68
2022-11-15 11:13:41.6080,7.35,13.56,-5.63,16.41
2022-11-15 11:13:41.6180,7.04,14.41,-4.11,16.55
2022-11-15 11:13:41.6280,6.72,14.65,-2.36,16.28
2022-11-15 11:13:41.6380,6.59,15.19,-1.06,16.59
2022-11-15 11:13:41.6480,6.57,15.91,0.02,17.21
2022-11-15 11:13:41.6580,6.24,16.6,1.49,17.79
2022-11-15 11:13:41.6680,5.61,16.61,1.66,17.61
2022-11-15 11:13:41.6780,5.1,15.94,0.1,16.73
2022-11-15 11:13:41.6920,4.4,14.92,-2.32,15.72
2022-11-15 11:13:41.6980,3.45,13.9,-3.08,14.64
2022-11-15 11:13:41.7080,1.55,13.85,0.45,13.94
2022-11-15 11:13:41.7180,-1.71,11.73,6.61,13.57
2022-11-15 11:13:41.7280,-0.93,6.1,8.67,10.64
2022-11-15 11:13:41.7380,2.12,5.32,2.6,6.28
2022-11-15 11:13:41.7480,3.56,3.86,-0.04,5.25
2022-11-15 11:13:41.7590,3.75,4.74,-4.23,7.37
2022-11-15 11:13:41.7690,3.0,-0.23,-5.49,6.26
2022-11-15 11:13:41.7790,0.66,-15.71,-11.21,19.31
2022-11-15 11:13:41.7950,-4.94,-40.93,-19.86,45.76
2022-11-15 11:13:41.7980,-7.62,-52.01,-18.27,55.64
2022-11-15 11:13:41.8080,-4.21,-42.84,-5.68,43.41
2022-11-15 11:13:41.8180,1.39,-23.04,5.36,23.69
2022-11-15 11:13:41.8290,4.98,-11.37,6.66,14.08
2022-11-15 11:13:41.8380,5.17,-4.94,2.59,7.6
2022-11-15 11:13:41.8480,4.21,0.88,0.03,4.3
2022-11-15 11:13:41.8590,3.07,4.87,0.39,5.77
2022-11-15 11:13:41.8680,0.84,4.95,2.76,5.72
2022-11-15 11:13:41.8790,-3.77,0.29,1.96,4.25
2022-11-15 11:13:41.8930,-5.53,-6.08,0.21,8.22
2022-11-15 11:13:41.8980,-9.55,-14.7,2.1,17.65
2022-11-15 11:13:41.9080,-10.68,-20.12,0.6,22.78
2022-11-15 11:13:41.9190,-5.71,-16.04,1.16,17.06
2022-11-15 11:13:41.9290,0.23,-9.62,5.02,10.85
2022-11-15 11:13:41.9390,-1.18,-7.07,5.31,8.92
2022-11-15 11:13:41.9490,-5.34,-4.73,5.09,8.76
2022-11-15 11:13:41.9590,-10.31,-2.43,6.37,12.36
2022-11-15 11:13:41.9690,-12.85,-1.19,6.69,14.53
2022-11-15 11:13:41.9790,-12.97,0.36,6.59,14.55
2022-11-15 11:13:41.9930,-12.47,2.71,6.87,14.49
2022-11-15 11:13:41.9980,-12.31,5.92,7.56,15.61
2022-11-15 11:13:42.0090,-12.44,9.7,7.97,17.67
2022-11-15 11:13:42.0200,-12.5,13.23,7.54,19.7
2022-11-15 11:13:42.0290,-12.09,14.94,6.32,20.23
2022-11-15 11:13:42.0390,-10.82,15.01,4.55,19.05
2022-11-15 11:13:42.0490,-8.89,15.18,3.7,17.97
2022-11-15 11:13:42.0590,-6.67,15.47,3.78,17.26
2022-11-15 11:13:42.0690,-4.57,15.53,4.39,16.77
2022-11-15 11:13:42.0790,-2.38,13.74,4.92,14.78
2022-11-15 11:13:42.0930,-0.8,9.03,3.79,9.82
2022-11-15 11:13:42.0990,-0.33,6.1,2.38,6.55
2022-11-15 11:13:42.1090,-0.86,3.22,4.41,5.52
2022-11-15 11:13:42.1190,-2.44,0.18,-0.67,2.53
2022-11-15 11:13:42.1290,-3.66,-4.55,-2.87,6.5
2022-11-15 11:13:42.1390,-5.16,-12.53,1.21,13.6
2022-11-15 11:13:42.1490,-7.59,-25.24,-0.88,26.37
2022-11-15 11:13:42.1590,-13.66,-49.78,-5.65,51.92
2022-11-15 11:13:42.1690,-15.9,-62.0,-3.5,64.1
2022-11-15 11:13:42.1800,-12.53,-49.34,-1.87,50.94
2022-11-15 11:13:42.1940,-6.64,-28.72,-2.03,29.54
2022-11-15 11:13:42.1990,-0.39,-14.86,0.41,14.87
2022-11-15 11:13:42.2090,2.82,-7.87,-0.25,8.36
2022-11-15 11:13:42.2200,3.79,-4.35,-3.23,6.61
2022-11-15 11:13:42.2290,4.28,-1.25,-4.17,6.1
2022-11-15 11:13:42.2400,4.29,1.36,-4.88,6.63
2022-11-15 11:13:42.2490,4.57,4.04,-5.61,8.28
2022-11-15 11:13:42.2600,5.19,6.72,-5.64,10.19
2022-11-15 11:13:42.2700,5.7,8.73,-5.82,11.94
2022-11-15 11:13:42.2800,6.3,9.58,-7.04,13.45
2022-11-15 11:13:42.2940,7.31,9.91,-8.9,15.19
2022-11-15 11:13:42.2990,8.32,10.61,-9.73,16.62
2022-11-15 11:13:42.3100,9.04,11.81,-8.98,17.37
2022-11-15 11:13:42.3200,9.24,13.1,-6.34,17.23
2022-11-15 11:13:42.3300,9.52,14.35,-2.31,17.37
2022-11-15 11:13:42.3400,10.09,15.59,1.8,18.65
2022-11-15 11:13:42.3500,10.53,16.86,5.53,20.63
2022-11-15 11:13:42.3600,10.62,18.23,6.61,22.1
2022-11-15 11:13:42.3700,10.55,18.36,3.56,21.47
2022-11-15 11:13:42.3800,9.91,17.47,0.7,20.09
2022-11-15 11:13:42.3950,7.08,16.17,0.73,17.66
2022-11-15 11:13:42.4000,3.01,14.4,3.44,15.1
2022-11-15 11:13:42.4100,-2.06,11.93,6.89,13.92
2022-11-15 11:13:42.4200,-2.06,7.46,3.15,8.35
2022-11-15 11:13:42.4300,1.58,7.05,-4.55,8.53
2022-11-15 11:13:42.4400,3.04,7.38,-6.57,10.33
2022-11-15 11:13:42.4500,3.82,6.37,-4.23,8.54
2022-11-15 11:13:42.4600,4.17,4.23,-2.0,6.26
2022-11-15 11:13:42.4700,3.74,-2.29,-1.48,4.62
2022-11-15 11:13:42.4800,2.22,-17.26,-5.23,18.17
2022-11-15 11:13:42.4950,-2.14,-39.72,-12.33,41.64
2022-11-15 11:13:42.5000,-4.68,-50.44,-13.65,52.46
2022-11-15 11:13:42.5100,-1.16,-41.65,-7.19,42.28
2022-11-15 11:13:42.5210,2.19,-23.09,-2.11,23.28
2022-11-15 11:13:42.5300,3.51,-11.38,1.21,11.97
2022-11-15 11:13:42.5400,4.07,-3.57,3.65,6.52
2022-11-15 11:13:42.5500,3.15,0.93,1.85,3.76
2022-11-15 11:13:42.5600,1.88,1.51,0.26,2.42
2022-11-15 11:13:42.5710,-0.13,-2.52,1.3,2.83
2022-11-15 11:13:42.5800,-3.37,-7.93,-0.24,8.61
2022-11-15 11:13:42.5950,-7.04,-13.24,-1.1,15.03
2022-11-15 11:13:42.6000,-13.66,-18.08,2.57,22.8
2022-11-15 11:13:42.6110,-12.88,-17.22,2.43,21.64
2022-11-15 11:13:42.6200,-3.44,-11.44,7.35,14.02
2022-11-15 11:13:42.6300,1.79,-6.8,10.6,12.72
2022-11-15 11:13:42.6410,-5.2,-5.04,5.03,8.81
2022-11-15 11:13:42.6500,-10.06,-3.8,2.21,10.97
2022-11-15 11:13:42.6610,-11.18,-1.84,4.13,12.05
2022-11-15 11:13:42.6710,-11.6,-0.04,5.39,12.79
2022-11-15 11:13:42.6810,-11.45,2.1,5.88,13.04
2022-11-15 11:13:42.6970,-11.3,4.9,6.97,14.15
2022-11-15 11:13:42.7010,-11.51,8.15,8.02,16.22
2022-11-15 11:13:42.7110,-11.58,11.57,7.88,18.16
2022-11-15 11:13:42.7210,-11.23,14.22,6.57,19.27
2022-11-15 11:13:42.7310,-10.54,15.7,5.44,19.67
2022-11-15 11:13:42.7410,-9.21,16.5,4.68,19.46
2022-11-15 11:13:42.7510,-7.3,17.03,4.4,19.04
2022-11-15 11:13:42.7610,-4.96,16.88,4.5,18.16
2022-11-15 11:13:42.7710,-2.59,15.93,5.49,17.04
2022-11-15 11:13:42.7810,-0.2,12.71,7.41,14.71
2022-11-15 11:13:42.7970,0.91,8.06,8.22,11.54
2022-11-15 11:13:42.8010,0.56,5.69,5.11,7.66
2022-11-15 11:13:42.8110,0.08,4.81,2.07,5.23
2022-11-15 11:13:42.8210,-0.3,3.03,3.19,4.4
2022-11-15 11:13:42.8310,-2.03,1.59,-1.51,2.98
2022-11-15 11:13:42.8410,-3.81,-1.49,-3.98,5.7
2022-11-15 11:13:42.8510,-5.48,-6.88,-2.42,9.12
2022-11-15 11:13:42.8610,-9.73,-23.15,-0.44,25.11
2022-11-15 11:13:42.8710,-17.46,-51.68,-5.16,54.79
2022-11-15 11:13:42.8820,-22.34,-68.89,-4.17,72.54
2022-11-15 11:13:42.8960,-16.43,-55.69,1.86,58.09
2022-11-15 11:13:42.9010,-6.11,-29.31,3.14,30.1
2022-11-15 11:13:42.9120,0.24,-14.99,0.57,15.0
2022-11-15 11:13:42.9220,3.54,-8.85,-2.73,9.91
2022-11-15 11:13:42.9310,4.6,-5.5,-5.42,8.98
2022-11-15 11:13:42.9410,5.28,-2.29,-5.42,7.9
2022-11-15 11:13:42.9520,5.76,1.38,-3.92,7.1
2022-11-15 11:13:42.9620,6.23,4.69,-3.35,8.48
2022-11-15 11:13:42.9720,6.83,7.66,-3.71,10.91
2022-11-15 11:13:42.9810,6.83,9.67,-3.4,12.31
2022-11-15 11:13:42.9960,6.96,10.94,-3.92,13.54
2022-11-15 11:13:43.0010,7.77,11.35,-5.8,14.92
2022-11-15 11:13:43.0120,8.87,11.58,-7.73,16.5
2022-11-15 11:13:43.0220,9.85,12.32,-8.48,17.9
2022-11-15 11:13:43.0320,10.25,13.38,-7.93,18.62
2022-11-15 11:13:43.0420,9.87,14.4,-5.39,18.27
2022-11-15 11:13:43.0520,9.6,15.35,-2.16,18.23
2022-11-15 11:13:43.0610,9.6,16.15,0.26,18.78
2022-11-15 11:13:43.0720,9.18,16.94,2.35,19.41
2022-11-15 11:13:43.0820,8.46,17.22,2.74,19.38
2022-11-15 11:13:43.0960,7.92,16.79,0.85,18.58
2022-11-15 11:13:43.1020,6.77,15.69,-0.39,17.09
2022-11-15 11:13:43.1120,3.54,15.28,3.7,16.11
2022-11-15 11:13:43.1220,-1.06,13.37,6.97,15.11
2022-11-15 11:13:43.1320,-2.05,8.6,4.79,10.05
2022-11-15 11:13:43.1420,0.43,5.75,3.1,6.54
2022-11-15 11:13:43.1520,2.96,5.86,-2.52,7.03
2022-11-15 11:13:43.1620,3.55,4.83,-4.77,7.66
2022-11-15 11:13:43.1720,2.95,-0.75,-4.47,5.4
2022-11-15 11:13:43.1820,1.51,-13.47,-7.47,15.47
2022-11-15 11:13:43.1970,-2.53,-36.04,-15.46,39.29
2022-11-15 11:13:43.2020,-7.07,-53.87,-15.93,56.61
2022-11-15 11:13:43.2120,-4.17,-44.61,-7.53,45.43
2022-11-15 11:13:43.2230,0.28,-24.25,1.42,24.29
2022-11-15 11:13:43.2320,3.33,-10.88,7.56,13.66
2022-11-15 11:13:43.2430,5.01,-3.99,5.32,8.32
2022-11-15 11:13:43.2520,4.49,0.81,-0.33,4.57
2022-11-15 11:13:43.2620,4.11,4.72,-3.57,7.2
2022-11-15 11:13:43.2730,3.76,6.08,-5.28,8.88
2022-11-15 11:13:43.2830,3.64,4.29,-2.28,6.07
2022-11-15 11:13:43.2970,1.47,-1.6,1.42,2.59
2022-11-15 11:13:43.3020,-0.96,-8.35,1.04,8.46
2022-11-15 11:13:43.3130,-5.56,-15.64,3.52,16.96
2022-11-15 11:13:43.3230,-11.38,-21.24,4.72,24.55
2022-11-15 11:13:43.3320,-9.42,-17.06,3.93,19.88
2022-11-15 11:13:43.3430,-1.54,-8.56,5.75,10.42
2022-11-15 11:13:43.3530,-2.78,-4.27,5.04,7.16
2022-11-15 11:13:43.3630,-7.61,-2.47,3.17,8.6
2022-11-15 11:13:43.3730,-10.27,-1.43,3.35,10.89
2022-11-15 11:13:43.3830,-10.97,0.14,4.76,11.95
2022-11-15 11:13:43.3970,-11.36,1.78,5.47,12.73
2022-11-15 11:13:43.4020,-11.73,3.99,6.6,14.03
2022-11-15 11:13:43.4130,-11.77,6.46,7.52,15.38
2022-11-15 11:13:43.4230,-11.64,8.97,7.22,16.37
2022-11-15 11:13:43.4330,-11.59,11.79,6.78,17.86
2022-11-15 11:13:43.4430,-11.55,14.17,6.25,19.31
2022-11-15 11:13:43.4530,-10.84,15.19,4.72,19.24
2022-11-15 11:13:43.4630,-9.23,15.43,3.51,18.31
2022-11-15 11:13:43.4730,-7.21,15.83,3.16,17.67
2022-11-15 11:13:43.4830,-5.1,15.6,3.42,16.76
2022-11-15 11:13:43.4980,-3.23,14.87,4.3,15.81
2022-11-15 11:13:43.5030,-1.5,13.02,5.86,14.35
2022-11-15 11:13:43.5130,-0.23,9.37,6.85,11.6
2022-11-15 11:13:43.5240,0.14,6.73,4.78,8.25
2022-11-15 11:13:43.5330,0.15,5.17,3.11,6.03
2022-11-15 11:13:43.5430,-0.25,2.5,4.43,5.09
2022-11-15 11:13:43.5530,-2.42,0.47,-2.4,3.44
2022-11-15 11:13:43.5630,-3.97,-3.18,-3.81,6.35
2022-11-15 11:13:43.5730,-5.82,-10.53,-1.46,12.11
2022-11-15 11:13:43.5830,-9.44,-27.68,-3.05,29.4
2022-11-15 11:13:43.5980,-16.39,-52.54,-11.09,56.14
2022-11-15 11:13:43.6030,-19.05,-61.67,-8.36,65.08
2022-11-15 11:13:43.6130,-14.49,-48.84,-1.34,50.96
2022-11-15 11:13:43.6240,-6.55,-28.02,4.73,29.16
2022-11-15 11:13:43.6330,0.37,-15.93,5.58,16.88
2022-11-15 11:13:43.6440,3.58,-9.98,2.89,10.98
2022-11-15 11:13:43.6540,3.93,-6.2,0.24,7.34
2022-11-15 11:13:43.6630,4.65,-2.63,-1.4,5.52
2022-11-15 11:13:43.6740,5.1,0.51,-2.88,5.87
2022-11-15 11:13:43.6830,4.96,3.34,-3.18,6.77
2022-11-15 11:13:43.6970,5.04,5.75,-2.56,8.06
2022-11-15 11:13:43.7040,5.21,7.55,-2.58,9.52
2022-11-15 11:13:43.7130,5.65,8.38,-3.6,10.72
2022-11-15 11:13:43.7240,6.31,8.59,-5.33,11.91
2022-11-15 11:13:43.7340,7.0,8.67,-7.19,13.26
2022-11-15 11:13:43.7440,7.51,9.31,-8.07,14.42
2022-11-15 11:13:43.7540,7.79,10.48,-7.98,15.3
2022-11-15 11:13:43.7640,7.72,11.73,-6.35,15.41
2022-11-15 11:13:43.7740,7.64,13.41,-4.28,16.01
2022-11-15 11:13:43.7840,7.68,14.73,-2.8,16.84
2022-11-15 11:13:43.7990,7.44,15.34,-1.2,17.09
2022-11-15 11:13:43.8040,7.19,15.89,0.16,17.44
2022-11-15 11:13:43.8140,7.24,16.32,0.2,17.85
2022-11-15 11:13:43.8240,7.06,16.48,0.02,17.92
2022-11-15 11:13:43.8340,5.58,16.46,1.78,17.47
2022-11-15 11:13:43.8440,1.58,17.1,7.84,18.87
2022-11-15 11:13:43.8540,-2.37,13.18,6.6,14.92
2022-11-15 11:13:43.8640,-0.51,8.69,-0.95,8.75
2022-11-15 11:13:43.8750,1.32,7.66,-4.22,8.84
2022-11-15 11:13:43.8840,2.33,6.32,-4.74,8.23
2022-11-15 11:13:43.9000,3.0,4.91,-3.92,6.96
2022-11-15 11:13:43.9040,2.94,0.66,-3.3,4.46
2022-11-15 11:13:43.9140,2.17,-8.57,-3.55,9.52
2022-11-15 11:13:43.9240,-0.2,-27.18,-7.49,28.19
2022-11-15 11:13:43.9340,-5.57,-48.31,-11.12,49.88
2022-11-15 11:13:43.9440,-7.02,-47.2,-5.73,48.06
2022-11-15 11:13:43.9540,-0.43,-25.16,1.15,25.18
2022-11-15 11:13:43.9640,3.4,-10.97,4.87,12.47
2022-11-15 11:13:43.9750,4.84,-4.01,4.76,7.88
2022-11-15 11:13:43.9850,4.49,0.14,0.29,4.5
2022-11-15 11:13:43.9980,3.57,3.23,-4.01,6.26
2022-11-15 11:13:44.0040,2.63,4.48,-6.37,8.21
2022-11-15 11:13:44.0150,3.09,2.07,-5.66,6.77
2022-11-15 11:13:44.0250,3.52,-4.78,-4.06,7.19
2022-11-15 11:13:44.0350,1.61,-12.02,-5.42,13.28
2022-11-15 11:13:44.0450,-2.89,-18.46,-3.6,19.02
2022-11-15 11:13:44.0550,-11.49,-22.86,5.68,26.2
2022-11-15 11:13:44.0650,-13.51,-18.36,7.67,24.05
2022-11-15 11:13:44.0750,-4.33,-8.92,14.42,17.5
2022-11-15 11:13:44.0850,1.56,-6.41,15.14,16.51
2022-11-15 11:13:44.0980,-6.6,-5.13,3.63,9.11
2022-11-15 11:13:44.1040,-11.47,-3.11,-0.43,11.89
2022-11-15 11:13:44.1150,-12.14,-1.56,2.28,12.45
2022-11-15 11:13:44.1250,-12.8,-0.25,4.86,13.69
2022-11-15 11:13:44.1350,-12.63,1.66,5.35,13.81
2022-11-15 11:13:44.1450,-12.46,4.22,5.9,14.41
2022-11-15 11:13:44.1550,-12.53,7.6,6.32,15.95
2022-11-15 11:13:44.1650,-12.71,11.09,6.26,17.99
2022-11-15 11:13:44.1750,-12.55,13.69,5.63,19.4
2022-11-15 11:13:44.1850,-11.66,15.2,4.9,19.77
2022-11-15 11:13:44.2000,-10.02,16.28,4.36,19.6
2022-11-15 11:13:44.2050,-7.95,17.07,4.16,19.28
2022-11-15 11:13:44.2150,-5.98,17.38,4.55,18.93
2022-11-15 11:13:44.2250,-4.18,17.04,5.25,18.31
2022-11-15 11:13:44.2360,-2.18,15.04,5.54,16.17
2022-11-15 11:13:44.2450,-0.49,10.44,3.85,11.13
2022-11-15 11:13:44.2550,0.36,7.02,3.29,7.76
2022-11-15 11:13:44.2650,0.24,3.52,7.78,8.54
2022-11-15 11:13:44.2750,-1.48,1.36,2.37,3.1
2022-11-15 11:13:44.2860,-3.37,-2.42,-3.3,5.3
2022-11-15 11:13:44.3000,-5.0,-8.71,-2.12,10.26
2022-11-15 11:13:44.3050,-6.84,-19.82,-0.24,20.96
2022-11-15 11:13:44.3160,-12.03,-41.64,-5.74,43.72
2022-11-15 11:13:44.3260,-15.31,-63.41,-8.13,65.73
2022-11-15 11:13:44.3360,-12.22,-60.16,-4.47,61.55
2022-11-15 11:13:44.3460,-6.23,-36.85,2.71,37.47
2022-11-15 11:13:44.3560,-1.2,-18.85,3.08,19.13
2022-11-15 11:13:44.3650,1.79,-10.36,-0.64,10.53
2022-11-15 11:13:44.3760,2.92,-5.41,-3.19,6.92
2022-11-15 11:13:44.3860,2.84,-1.82,-3.51,4.86
2022-11-15 11:13:44.3980,3.47,1.13,-3.32,4.93
2022-11-15 11:13:44.4050,5.19,3.92,-3.62,7.44
2022-11-15 11:13:44.4150,6.08,6.39,-3.6,9.52
2022-11-15 11:13:44.4260,6.43,8.46,-3.26,11.11
2022-11-15 11:13:44.4360,6.92,9.6,-3.55,12.35
2022-11-15 11:13:44.4460,7.64,9.76,-4.74,13.27
2022-11-15 11:13:44.4560,8.09,9.75,-5.43,13.78
2022-11-15 11:13:44.4660,8.92,9.77,-6.41,14.7
2022-11-15 11:13:44.4760,9.39,10.13,-6.32,15.18
2022-11-15 11:13:44.4860,9.35,11.17,-4.99,15.39
2022-11-15 11:13:44.5010,8.85,12.03,-2.97,15.22
2022-11-15 11:13:44.5060,8.52,13.2,-1.07,15.74
2022-11-15 11:13:44.5160,8.34,14.39,0.94,16.65
2022-11-15 11:13:44.5260,8.63,15.41,2.68,17.86
2022-11-15 11:13:44.5360,8.97,16.03,3.03,18.61
2022-11-15 11:13:44.5460,8.7,16.07,2.42,18.43
2022-11-15 11:13:44.5560,6.46,16.27,2.57,17.69
2022-11-15 11:13:44.5660,3.27,13.76,-0.04,14.14
2022-11-15 11:13:44.5760,1.29,10.15,-2.09,10.44
2022-11-15 11:13:44.5860,0.54,7.74,-0.52,7.77
2022-11-15 11:13:44.6000,0.3,4.5,6.07,7.56
2022-11-15 11:13:44.6060,2.9,3.26,3.53,5.61
2022-11-15 11:13:44.6170,4.39,3.49,-4.25,7.03
2022-11-15 11:13:44.6260,4.45,-1.21,-2.76,5.37
2022-11-15 11:13:44.6360,3.66,-10.32,-4.82,11.96
2022-11-15 11:13:44.6460,1.67,-27.63,-11.39,29.93
2022-11-15 11:13:44.6560,-2.6,-42.02,-13.78,44.29
2022-11-15 11:13:44.6660,-4.87,-39.0,-6.54,39.84
2022-11-15 11:13:44.6770,-0.83,-24.95,-0.82,24.97
2022-11-15 11:13:44.6870,1.96,-13.3,3.62,13.92
2022-11-15 11:13:44.7000,2.6,-5.72,4.87,7.94
2022-11-15 11:13:44.7060,1.53,-1.41,0.79,2.22
2022-11-15 11:13:44.7160,0.32,1.27,-1.96,2.35
2022-11-15 11:13:44.7260,-1.05,-0.01,-3.5,3.65
2022-11-15 11:13:44.7370,-2.12,-3.99,-3.27,5.57
2022-11-15 11:13:44.7470,-3.99,-9.58,-0.89,10.41
2022-11-15 11:13:44.7570,-8.39,-14.41,0.61,16.68
2022-11-15 11:13:44.7670,-14.22,-17.26,6.1,23.18
2022-11-15 11:13:44.7770,-6.28,-13.65,13.17,19.98
2022-11-15 11:13:44.7870,0.55,-8.57,12.84,15.44
2022-11-15 11:13:44.8010,-4.46,-3.25,4.99,7.44
2022-11-15 11:13:44.8060,-7.9,-0.92,1.02,8.01
2022-11-15 11:13:44.8170,-10.73,-0.32,0.61,10.75
2022-11-15 11:13:44.8270,-12.37,0.87,2.76,12.7
2022-11-15 11:13:44.8370,-12.38,3.36,3.7,13.35
2022-11-15 11:13:44.8470,-12.18,6.08,4.51,14.34
2022-11-15 11:13:44.8570,-12.14,8.74,5.19,15.83
2022-11-15 11:13:44.8670,-12.1,11.27,5.23,17.34
2022-11-15 11:13:44.8770,-11.86,13.32,4.87,18.48
2022-11-15 11:13:44.8870,-11.26,14.95,4.58,19.26
2022-11-15 11:13:44.9010,-10.19,16.13,4.52,19.6
2022-11-15 11:13:44.9070,-8.9,16.84,4.56,19.58
2022-11-15 11:13:44.9170,-7.26,17.07,4.58,19.1
2022-11-15 11:13:44.9270,-5.23,16.63,4.56,18.01
2022-11-15 11:13:44.9370,-3.02,14.81,4.63,15.8
2022-11-15 11:13:44.9470,-0.99,10.66,3.69,11.32
2022-11-15 11:13:44.9570,-0.19,7.7,2.29,8.03
2022-11-15 11:13:44.9670,-0.33,5.86,2.02,6.2
2022-11-15 11:13:44.9770,-1.49,2.67,4.35,5.31
2022-11-15 11:13:44.9880,-3.28,0.46,-2.2,3.97
2022-11-15 11:13:45.0020,-4.53,-3.57,-3.35,6.66
2022-11-15 11:13:45.0070,-5.73,-12.17,0.89,13.48
2022-11-15 11:13:45.0180,-7.79,-29.2,2.66,30.33
2022-11-15 11:13:45.0270,-10.5,-53.05,-1.73,54.1
2022-11-15 11:13:45.0380,-11.57,-62.99,-4.67,64.21
2022-11-15 11:13:45.0480,-8.32,-51.32,-4.34,52.17
2022-11-15 11:13:45.0580,-3.48,-31.83,-3.73,32.23
2022-11-15 11:13:45.0680,0.64,-17.98,-1.57,18.05
2022-11-15 11:13:45.0770,3.45,-10.46,-1.87,11.17
2022-11-15 11:13:45.0880,4.27,-5.47,-2.38,7.33
2022-11-15 11:13:45.1020,4.82,-1.1,-2.45,5.51
2022-11-15 11:13:45.1070,5.65,2.37,-2.78,6.72
2022-11-15 11:13:45.1180,5.95,5.22,-2.46,8.28
2022-11-15 11:13:45.1280,5.77,7.62,-1.91,9.74
2022-11-15 11:13:45.1370,5.52,8.98,-2.19,10.76
2022-11-15 11:13:45.1480,5.97,9.58,-3.73,11.88
2022-11-15 11:13:45.1580,7.08,9.6,-6.07,13.38
2022-11-15 11:13:45.1680,7.68,9.75,-7.13,14.31
2022-11-15 11:13:45.1780,8.41,10.64,-7.81,15.65
2022-11-15 11:13:45.1880,8.79,11.91,-7.05,16.39
2022-11-15 11:13:45.2020,8.82,13.37,-4.64,16.67
2022-11-15 11:13:45.2080,8.99,14.66,-1.71,17.28
2022-11-15 11:13:45.2180,8.96,15.47,1.2,17.91
2022-11-15 11:13:45.2280,8.66,16.57,4.13,19.14
2022-11-15 11:13:45.2380,8.47,17.31,5.66,20.08
2022-11-15 11:13:45.2480,8.29,17.14,5.1,19.71
2022-11-15 11:13:45.2580,6.36,16.14,4.62,17.95
2022-11-15 11:13:45.2680,2.94,14.57,3.22,15.2
2022-11-15 11:13:45.2780,-0.77,12.93,3.04,13.3
2022-11-15 11:13:45.2880,-1.92,9.58,-0.28,9.77
2022-11-15 11:13:45.3030,0.23,7.76,-6.27,9.97
2022-11-15 11:13:45.3080,0.47,7.11,-8.71,11.25
2022-11-15 11:13:45.3190,0.32,5.41,-7.46,9.22
2022-11-15 11:13:45.3280,0.93,2.88,-2.84,4.15
2022-11-15 11:13:45.3380,0.66,-2.45,-0.38,2.56
2022-11-15 11:13:45.3480,-0.54,-10.34,-0.06,10.35
2022-11-15 11:13:45.3590,-2.46,-24.29,-2.71,24.56
2022-11-15 11:13:45.3690,-6.12,-42.33,-8.57,43.62
2022-11-15 11:13:45.3780,-8.18,-44.48,-7.41,45.82
2022-11-15 11:13:45.3890,-1.4,-27.88,-2.42,28.01
2022-11-15 11:13:45.4020,2.44,-14.94,2.05,15.27
2022-11-15 11:13:45.4080,4.16,-6.7,5.01,9.34
2022-11-15 11:13:45.4180,4.2,-1.35,2.55,5.09
2022-11-15 11:13:45.4290,4.52,2.88,-0.71,5.4
2022-11-15 11:13:45.4390,4.9,5.11,-1.87,7.32
2022-11-15 11:13:45.4490,5.07,3.13,-3.87,7.1
2022-11-15 11:13:45.4590,5.24,-2.06,-6.44,8.55
2022-11-15 11:13:45.4690,3.86,-8.03,-6.91,11.27
2022-11-15 11:13:45.4790,0.05,-13.13,-3.32,13.54
2022-11-15 11:13:45.4890,-8.22,-18.22,8.38,21.67
2022-11-15 11:13:45.5030,-12.24,-17.62,11.96,24.56
2022-11-15 11:13:45.5080,-5.99,-10.99,13.05,18.08
2022-11-15 11:13:45.5190,-4.64,-6.68,7.88,11.32
2022-11-15 11:13:45.5290,-9.41,-3.91,-0.12,10.19
2022-11-15 11:13:45.5390,-11.21,-1.32,0.2,11.28
2022-11-15 11:13:45.5490,-12.0,1.0,4.43,12.83
2022-11-15 11:13:45.5590,-12.04,3.03,6.31,13.92
2022-11-15 11:13:45.5690,-11.49,4.98,5.94,13.86
2022-11-15 11:13:45.5790,-11.11,6.91,4.97,13.99
2022-11-15 11:13:45.5900,-11.22,8.98,4.59,15.08
2022-11-15 11:13:45.6060,-11.4,11.19,4.69,16.64
2022-11-15 11:13:45.6090,-11.3,13.26,4.57,18.01
2022-11-15 11:13:45.6190,-10.45,14.81,4.14,18.59
2022-11-15 11:13:45.6290,-9.02,15.97,3.96,18.76
2022-11-15 11:13:45.6390,-7.17,16.6,4.06,18.53
2022-11-15 11:13:45.6490,-5.17,16.71,3.97,17.93
2022-11-15 11:13:45.6600,-3.44,16.22,3.85,17.02
2022-11-15 11:13:45.6700,-1.95,14.21,3.08,14.67
2022-11-15 11:13:45.6790,-0.6,10.64,2.5,10.94
2022-11-15 11:13:45.6900,-0.43,7.32,3.43,8.09
2022-11-15 11:13:45.7060,-1.54,3.84,5.79,7.11
2022-11-15 11:13:45.7090,-2.69,1.76,-0.42,3.24
2022-11-15 11:13:45.7190,-3.29,-2.28,-0.99,4.12
2022-11-15 11:13:45.7290,-4.42,-10.15,1.22,11.13
2022-11-15 11:13:45.7390,-6.47,-22.94,0.32,23.83
2022-11-15 11:13:45.7500,-10.92,-45.36,-4.71,46.89
2022-11-15 11:13:45.7600,-12.31,-57.97,-4.45,59.42
2022-11-15 11:13:45.7700,-9.17,-51.92,-0.34,52.72
2022-11-15 11:13:45.7800,-3.62,-33.22,2.36,33.49
2022-11-15 11:13:45.7900,-0.25,-16.95,1.68,17.03
2022-11-15 11:13:45.8030,1.68,-9.05,-0.49,9.21
2022-11-15 11:13:45.8090,1.82,-3.89,-1.3,4.48
2022-11-15 11:13:45.8200,2.35,-0.15,-1.86,3.0
2022-11-15 11:13:45.8290,2.96,2.24,-3.2,4.9
2022-11-15 11:13:45.8400,3.18,3.97,-4.29,6.65
2022-11-15 11:13:45.8500,3.2,5.68,-4.42,7.87
2022-11-15 11:13:45.8600,3.62,6.9,-4.94,9.22
2022-11-15 11:13:45.8700,4.72,7.61,-6.01,10.78
2022-11-15 11:13:45.8800,5.6,7.91,-6.12,11.46
2022-11-15 11:13:45.8900,6.88,8.92,-6.61,13.06
2022-11-15 11:13:45.9030,7.95,10.03,-5.9,14.09
2022-11-15 11:13:45.9100,8.62,11.53,-4.7,15.14
2022-11-15 11:13:45.9200,8.9,13.02,-3.33,16.11
2022-11-15 11:13:45.9300,9.23,14.38,-1.91,17.19
2022-11-15 11:13:45.9400,9.57,15.73,0.13,18.41
2022-11-15 11:13:45.9500,9.74,16.76,2.31,19.52
2022-11-15 11:13:45.9600,9.87,17.24,3.28,20.13
2022-11-15 11:13:45.9700,9.46,16.74,3.27,19.5
2022-11-15 11:13:45.9800,6.18,16.5,5.05,18.32
2022-11-15 11:13:45.9910,0.7,13.71,3.62,14.19
2022-11-15 11:13:46.0060,-1.08,9.23,-0.91,9.33
2022-11-15 11:13:46.0100,0.0,7.01,-3.28,7.73
2022-11-15 11:13:46.0200,0.62,6.54,-2.76,7.12
2022-11-15 11:13:46.0300,0.85,4.76,0.6,4.87
2022-11-15 11:13:46.0400,2.08,2.51,0.07,3.26
2022-11-15 11:13:46.0500,2.35,-2.62,0.27,3.52
2022-11-15 11:13:46.0600,1.13,-12.36,1.67,12.52
2022-11-15 11:13:46.0710,-0.53,-25.43,-4.16,25.77
2022-11-15 11:13:46.0800,-2.73,-40.1,-9.54,41.3
2022-11-15 11:13:46.0910,-1.1,-40.82,-7.56,41.52
2022-11-15 11:13:46.1050,2.44,-25.99,-2.78,26.25
2022-11-15 11:13:46.1100,3.44,-14.06,0.37,14.47
2022-11-15 11:13:46.1200,3.85,-6.43,1.61,7.66
2022-11-15 11:13:46.1310,3.11,-1.09,-0.41,3.32
2022-11-15 11:13:46.1410,2.68,2.17,-1.73,3.85
2022-11-15 11:13:46.1510,2.21,1.31,-2.69,3.71
2022-11-15 11:13:46.1610,1.05,-3.23,-3.89,5.16
2022-11-15 11:13:46.1710,0.04,-8.39,-4.05,9.31
2022-11-15 11:13:46.1810,-2.72,-13.91,-4.03,14.73
2022-11-15 11:13:46.1910,-10.79,-19.56,3.04,22.54
2022-11-15 11:13:46.2050,-17.14,-19.29,7.66,26.91
2022-11-15 11:13:46.2100,-11.78,-10.95,10.66,19.29
2022-11-15 11:13:46.2210,-3.38,-5.56,16.73,17.95
2022-11-15 11:13:46.2310,-4.86,-1.94,10.98,12.16
2022-11-15 11:13:46.2410,-7.31,0.63,3.02,7.93
2022-11-15 11:13:46.2510,-8.79,2.39,1.26,9.19
2022-11-15 11:13:46.2610,-9.69,3.76,1.6,10.51
2022-11-15 11:13:46.2710,-10.17,5.21,3.75,12.02
2022-11-15 11:13:46.2810,-10.22,7.21,5.21,13.54
2022-11-15 11:13:46.2910,-10.31,9.51,5.89,15.21
2022-11-15 11:13:46.3060,-10.36,11.58,5.46,16.46
2022-11-15 11:13:46.3110,-10.58,13.57,4.97,17.91
2022-11-15 11:13:46.3210,-10.36,15.22,4.74,19.01
2022-11-15 11:13:46.3310,-9.48,16.49,4.85,19.62
2022-11-15 11:13:46.3410,-8.04,17.01,4.83,19.42
2022-11-15 11:13:46.3510,-6.17,16.87,4.95,18.63
2022-11-15 11:13:46.3610,-4.19,15.31,5.6,16.83
2022-11-15 11:13:46.3710,-2.04,10.89,6.19,12.69
2022-11-15 11:13:46.3810,-0.8,7.18,4.86,8.7
2022-11-15 11:13:46.3920,-0.43,6.11,2.58,6.64
2022-11-15 11:13:46.4060,-0.48,4.95,2.62,5.62
2022-11-15 11:13:46.4110,-1.69,2.38,2.59,3.9
2022-11-15 11:13:46.4220,-3.15,0.48,-3.23,4.53
2022-11-15 11:13:46.4310,-4.17,-3.99,-1.58,5.98
2022-11-15 11:13:46.4420,-5.77,-15.62,2.19,16.79
2022-11-15 11:13:46.4520,-8.67,-38.86,-0.57,39.81
2022-11-15 11:13:46.4610,-12.62,-63.21,-5.09,64.65
2022-11-15 11:13:46.4720,-12.43,-61.67,-2.47,62.95
2022-11-15 11:13:46.4810,-8.14,-40.49,-0.6,41.3
2022-11-15 11:13:46.4920,-3.3,-21.33,0.61,21.59
2022-11-15 11:13:46.5050,0.86,-11.97,-0.51,12.01
2022-11-15 11:13:46.5110,2.89,-6.28,-2.98,7.52
2022-11-15 11:13:46.5210,3.53,-2.11,-3.77,5.57
2022-11-15 11:13:46.5320,4.18,1.42,-3.47,5.61
2022-11-15 11:13:46.5420,4.71,4.32,-3.1,7.1
2022-11-15 11:13:46.5520,5.04,6.64,-3.09,8.89
2022-11-15 11:13:46.5620,5.51,8.46,-3.97,10.84
2022-11-15 11:13:46.5720,6.12,9.49,-5.32,12.48
2022-11-15 11:13:46.5820,6.92,9.93,-7.25,14.1
2022-11-15 11:13:46.5920,7.89,10.48,-9.04,15.93
2022-11-15 11:13:46.6070,8.6,11.15,-9.47,16.96
2022-11-15 11:13:46.6120,9.36,12.33,-8.99,17.9
2022-11-15 11:13:46.6220,10.25,13.88,-6.64,18.48
2022-11-15 11:13:46.6320,11.25,15.5,-2.57,19.32
2022-11-15 11:13:46.6420,12.16,17.31,2.78,21.33
2022-11-15 11:13:46.6520,12.44,18.88,6.33,23.47
2022-11-15 11:13:46.6620,11.75,18.75,3.24,22.36
2022-11-15 11:13:46.6720,10.08,16.62,0.46,19.44
2022-11-15 11:13:46.6820,6.61,14.06,0.94,15.56
2022-11-15 11:13:46.6920,2.65,11.69,1.23,12.04
2022-11-15 11:13:46.7050,-2.02,10.65,5.02,11.94
2022-11-15 11:13:46.7120,-3.45,8.15,6.79,11.15
2022-11-15 11:13:46.7220,-2.0,6.24,6.06,8.92
2022-11-15 11:13:46.7330,-0.35,5.56,4.06,6.89
2022-11-15 11:13:46.7420,2.01,5.05,-1.7,5.69
2022-11-15 11:13:46.7520,3.06,1.82,-2.96,4.63
2022-11-15 11:13:46.7620,2.65,-5.58,-2.11,6.52
2022-11-15 11:13:46.7730,1.23,-19.19,-5.58,20.02
2022-11-15 11:13:46.7830,-2.99,-40.6,-14.83,43.32
2022-11-15 11:13:46.7930,-7.71,-49.78,-14.55,52.43
2022-11-15 11:13:46.8080,-3.03,-34.46,-7.43,35.38
2022-11-15 11:13:46.8120,0.91,-18.88,-3.46,19.21
2022-11-15 11:13:46.8220,3.55,-8.89,1.46,9.68
2022-11-15 11:13:46.8330,5.64,-1.17,6.82,8.92
2022-11-15 11:13:46.8430,5.89,3.32,4.65,8.2
2022-11-15 11:13:46.8530,5.24,4.72,0.23,7.05
2022-11-15 11:13:46.8630,3.99,1.89,-3.52,5.64
2022-11-15 11:13:46.8730,2.2,-4.67,-3.66,6.32
2022-11-15 11:13:46.8820,-0.12,-11.49,-2.07,11.67
2022-11-15 11:13:46.8930,-6.09,-18.35,4.98,19.96
2022-11-15 11:13:46.9070,-13.77,-23.43,12.87,30.07
2022-11-15 11:13:46.9130,-9.6,-19.45,11.83,24.7
2022-11-15 11:13:46.9230,-2.02,-10.5,8.63,13.74
2022-11-15 11:13:46.9330,-4.34,-3.65,1.87,5.97
2022-11-15 11:13:46.9430,-7.26,-0.4,0.07,7.27
2022-11-15 11:13:46.9530,-9.08,0.53,1.14,9.16
2022-11-15 11:13:46.9630,-10.68,1.24,3.43,11.28
2022-11-15 11:13:46.9730,-11.2,2.89,4.2,12.3
2022-11-15 11:13:46.9830,-11.34,5.32,4.94,13.46
2022-11-15 11:13:46.9930,-11.53,7.97,5.47,15.04
2022-11-15 11:13:47.0070,-11.89,10.84,5.29,16.93
2022-11-15 11:13:47.0130,-12.35,13.51,4.82,18.92
2022-11-15 11:13:47.0230,-12.45,15.72,4.43,20.53
2022-11-15 11:13:47.0330,-11.69,17.03,3.93,21.02
2022-11-15 11:13:47.0430,-10.18,17.89,4.07,20.98
2022-11-15 11:13:47.0540,-8.05,17.97,4.67,20.23
2022-11-15 11:13:47.0630,-5.59,17.11,5.4,18.79
2022-11-15 11:13:47.0730,-2.72,14.38,6.09,15.85
2022-11-15 11:13:47.0830,-0.23,9.45,6.12,11.26
2022-11-15 11:13:47.0930,0.44,6.75,4.02,7.86
2022-11-15 11:13:47.1070,0.51,5.91,1.76,6.18
2022-11-15 11:13:47.1130,0.33,4.39,2.26,4.94
2022-11-15 11:13:47.1230,-0.82,1.69,2.98,3.52
2022-11-15 11:13:47.1340,-3.15,-0.88,-2.89,4.36
2022-11-15 11:13:47.1440,-4.99,-5.97,-2.1,8.05
2022-11-15 11:13:47.1540,-6.84,-14.45,2.48,16.17
2022-11-15 11:13:47.1630,-9.42,-29.9,-1.68,31.39
2022-11-15 11:13:47.1740,-12.29,-54.6,-6.62,56.35
2022-11-15 11:13:47.1840,-9.33,-61.02,-3.21,61.81
2022-11-15 11:13:47.1940,-4.65,-46.27,-2.93,46.59
2022-11-15 11:13:47.2090,-1.2,-26.15,-0.13,26.17
2022-11-15 11:13:47.2130,2.08,-13.66,-0.54,13.82
2022-11-15 11:13:47.2240,3.14,-7.35,-1.97,8.23
2022-11-15 11:13:47.2340,2.86,-3.18,-2.78,5.1
2022-11-15 11:13:47.2440,3.01,0.14,-3.17,4.37
2022-11-15 11:13:47.2540,3.47,3.21,-2.13,5.18
2022-11-15 11:13:47.2640,4.07,6.49,-1.13,7.74
2022-11-15 11:13:47.2740,4.25,9.34,-1.48,10.36
2022-11-15 11:13:47.2840,4.59,10.54,-2.88,11.85
2022-11-15 11:13:47.2940,5.16,10.31,-3.91,12.17
2022-11-15 11:13:47.3070,5.72,10.58,-4.9,12.98
2022-11-15 11:13:47.3140,6.64,11.1,-5.8,14.17
2022-11-15 11:13:47.3240,7.44,11.56,-5.52,14.81
2022-11-15 11:13:47.3340,7.97,12.43,-4.76,15.51
2022-11-15 11:13:47.3440,7.88,13.32,-3.54,15.87
2022-11-15 11:13:47.3540,7.74,14.26,-2.7,16.44
2022-11-15 11:13:47.3640,7.54,14.55,-1.28,16.43
2022-11-15 11:13:47.3740,7.57,14.91,0.55,16.73
2022-11-15 11:13:47.3840,7.9,14.71,1.08,16.73
2022-11-15 11:13:47.3940,6.86,14.6,1.91,16.24
2022-11-15 11:13:47.4090,2.78,14.65,2.91,15.19
2022-11-15 11:13:47.4140,-0.14,11.77,0.58,11.78
2022-11-15 11:13:47.4250,-0.07,8.66,-1.79,8.84
2022-11-15 11:13:47.4350,0.37,7.32,-1.57,7.49
2022-11-15 11:13:47.4440,0.06,5.53,1.44,5.71
2022-11-15 11:13:47.4540,1.51,3.25,1.24,3.79
2022-11-15 11:13:47.4640,2.37,0.43,-0.23,2.41
2022-11-15 11:13:47.4750,1.89,-5.1,0.16,5.44
2022-11-15 11:13:47.4850,0.58,-13.96,-1.2,14.02
2022-11-15 11:13:47.4950,-1.27,-27.43,-6.25,28.16
2022-11-15 11:13:47.5090,-1.94,-37.2,-8.76,38.26
2022-11-15 11:13:47.5140,1.08,-30.11,-5.41,30.61
2022-11-15 11:13:47.5250,3.3,-20.58,-3.3,21.1
2022-11-15 11:13:47.5340,4.66,-13.02,-1.85,13.95
2022-11-15 11:13:47.5450,5.56,-6.03,0.55,8.22
2022-11-15 11:13:47.5550,5.39,-0.68,-0.45,5.45
2022-11-15 11:13:47.5650,4.85,1.9,-1.48,5.41
2022-11-15 11:13:47.5750,3.27,0.13,-2.8,4.3
2022-11-15 11:13:47.5850,1.37,-4.19,-3.42,5.57
2022-11-15 11:13:47.5950,-0.69,-9.89,-3.49,10.51
2022-11-15 11:13:47.6090,-6.68,-16.62,1.04,17.94
2022-11-15 11:13:47.6150,-15.76,-22.1,8.75,28.51
2022-11-15 11:13:47.6250,-14.83,-19.29,8.74,25.85
2022-11-15 11:13:47.6350,-4.45,-12.03,11.03,16.91
2022-11-15 11:13:47.6450,-4.53,-5.73,8.24,11.01
2022-11-15 11:13:47.6550,-8.57,-1.62,4.36,9.75
2022-11-15 11:13:47.6650,-10.54,-0.16,2.09,10.74
2022-11-15 11:13:47.6750,-11.82,0.78,2.35,12.07
2022-11-15 11:13:47.6860,-12.34,2.9,3.95,13.27
2022-11-15 11:13:47.6950,-11.84,5.77,4.58,13.94
2022-11-15 11:13:47.7090,-11.26,8.46,4.87,14.9
2022-11-15 11:13:47.7150,-11.03,10.7,5.06,16.17
2022-11-15 11:13:47.7250,-10.97,12.7,5.2,17.56
2022-11-15 11:13:47.7350,-10.79,14.33,5.2,18.67
2022-11-15 11:13:47.7450,-10.18,15.61,4.92,19.27
2022-11-15 11:13:47.7550,-9.41,16.9,5.27,20.04
2022-11-15 11:13:47.7660,-8.31,17.71,5.52,20.32
2022-11-15 11:13:47.7750,-6.54,17.45,5.46,19.41
2022-11-15 11:13:47.7850,-4.08,15.59,5.59,17.05
2022-11-15 11:13:47.7950,-1.38,10.8,5.52,12.2
2022-11-15 11:13:47.8090,-0.32,7.54,3.99,8.53
2022-11-15 11:13:47.8150,-0.23,6.42,2.59,6.92
2022-11-15 11:13:47.8250,-0.73,4.5,3.93,6.01
2022-11-15 11:13:47.8360,-2.38,1.84,1.65,3.43
2022-11-15 11:13:47.8450,-3.38,-0.89,-2.97,4.58
2022-11-15 11:13:47.8560,-3.91,-7.21,1.03,8.26
2022-11-15 11:13:47.8650,-4.84,-20.35,3.75,21.25
2022-11-15 11:13:47.8760,-6.9,-46.05,0.75,46.57
2022-11-15 11:13:47.8860,-10.79,-65.45,-4.93,66.51
2022-11-15 11:13:47.8960,-12.23,-60.85,-4.58,62.23
2022-11-15 11:13:47.9110,-8.3,-41.98,-2.12,42.84
2022-11-15 11:13:47.9150,-2.44,-23.51,0.27,23.63
2022-11-15 11:13:47.9260,0.92,-13.43,-0.81,13.48
2022-11-15 11:13:47.9360,2.62,-7.02,-2.61,7.93
2022-11-15 11:13:47.9460,3.24,-2.16,-3.07,4.95
2022-11-15 11:13:47.9560,3.59,1.5,-3.72,5.38
2022-11-15 11:13:47.9660,4.06,4.16,-4.52,7.36
2022-11-15 11:13:47.9760,4.51,6.8,-4.12,9.14
2022-11-15 11:13:47.9860,4.65,8.49,-4.16,10.53
2022-11-15 11:13:47.9960,4.99,8.89,-5.72,11.68
2022-11-15 11:13:48.0110,5.84,9.19,-7.58,13.26
2022-11-15 11:13:48.0160,6.84,9.66,-9.04,14.89
2022-11-15 11:13:48.0260,7.95,10.48,-10.1,16.58
2022-11-15 11:13:48.0360,8.65,11.71,-10.09,17.71
2022-11-15 11:13:48.0460,9.02,13.82,-7.54,18.14
2022-11-15 11:13:48.0560,9.78,16.33,-3.38,19.33
2022-11-15 11:13:48.0660,10.79,18.42,2.21,21.46
2022-11-15 11:13:48.0760,11.12,20.11,7.03,24.03
2022-11-15 11:13:48.0870,10.08,20.62,5.54,23.61
2022-11-15 11:13:48.0960,8.79,20.08,2.31,22.04
2022-11-15 11:13:48.1120,6.63,18.41,0.77,19.58
2022-11-15 11:13:48.1160,4.12,15.45,-0.26,15.99
2022-11-15 11:13:48.1270,0.46,13.26,2.44,13.49
2022-11-15 11:13:48.1360,-3.62,11.18,7.0,13.67
2022-11-15 11:13:48.1470,-2.44,7.66,3.24,8.66
2022-11-15 11:13:48.1560,0.12,8.11,-3.71,8.91
2022-11-15 11:13:48.1660,0.58,8.08,-6.31,10.26
2022-11-15 11:13:48.1770,1.43,6.19,-4.8,7.96
2022-11-15 11:13:48.1870,2.67,4.39,-2.74,5.82
2022-11-15 11:13:48.1970,2.29,-1.22,-2.37,3.51
2022-11-15 11:13:48.2130,1.58,-13.91,-2.05,14.14
2022-11-15 11:13:48.2160,0.15,-34.95,-6.4,35.53
2022-11-15 11:13:48.2270,-2.61,-52.59,-11.54,53.9
2022-11-15 11:13:48.2370,-1.39,-44.18,-2.11,44.25
2022-11-15 11:13:48.2470,2.89,-22.2,4.15,22.76
2022-11-15 11:13:48.2570,4.5,-11.7,2.81,12.84
2022-11-15 11:13:48.2670,4.21,-6.05,-1.4,7.5
2022-11-15 11:13:48.2770,3.0,-1.28,-4.09,5.23
2022-11-15 11:13:48.2870,2.49,2.04,-4.76,5.74
2022-11-15 11:13:48.2970,3.13,2.36,-2.88,4.86
2022-11-15 11:13:48.3110,2.87,-2.83,-2.57,4.78
2022-11-15 11:13:48.3170,1.63,-9.82,-3.93,10.7
2022-11-15 11:13:48.3270,-1.36,-16.38,-3.73,16.85
2022-11-15 11:13:48.3370,-10.32,-22.46,6.49,25.55
2022-11-15 11:13:48.3470,-15.75,-21.02,10.42,28.25
2022-11-15 11:13:48.3570,-8.16,-12.04,11.15,18.32
2022-11-15 11:13:48.3670,-2.1,-6.54,13.13,14.81
2022-11-15 11:13:48.3770,-6.04,-2.95,9.03,11.25
2022-11-15 11:13:48.3870,-8.49,-0.55,3.42,9.16
2022-11-15 11:13:48.3970,-8.92,0.82,0.05,8.95
2022-11-15 11:13:48.4130,-9.45,2.58,0.86,9.83
2022-11-15 11:13:48.4170,-9.95,4.89,3.63,11.66
2022-11-15 11:13:48.4280,-10.48,7.52,5.9,14.18
2022-11-15 11:13:48.4370,-10.84,9.85,6.48,16.01
2022-11-15 11:13:48.4470,-11.17,11.97,5.85,17.38
2022-11-15 11:13:48.4580,-11.93,13.93,5.94,19.27
2022-11-15 11:13:48.4680,-12.11,15.53,5.92,20.56
2022-11-15 11:13:48.4770,-11.48,16.54,5.4,20.84
2022-11-15 11:13:48.4870,-10.02,16.83,4.68,20.13
2022-11-15 11:13:48.4970,-7.78,16.46,4.51,18.75
2022-11-15 11:13:48.5120,-5.24,15.15,4.88,16.75
2022-11-15 11:13:48.5170,-2.74,11.99,5.02,13.28
2022-11-15 11:13:48.5280,-1.17,8.25,4.08,9.27
2022-11-15 11:13:48.5380,-0.74,6.32,3.39,7.2
2022-11-15 11:13:48.5480,-1.0,3.7,5.67,6.84
2022-11-15 11:13:48.5580,-2.19,1.23,1.79,3.08
2022-11-15 11:13:48.5680,-3.53,-1.86,-2.06,4.49
2022-11-15 11:13:48.5770,-5.52,-9.42,1.58,11.03
2022-11-15 11:13:48.5880,-7.33,-18.62,0.16,20.01
2022-11-15 11:13:48.5980,-11.4,-38.45,-6.43,40.61
2022-11-15 11:13:48.6120,-14.55,-59.19,-9.8,61.73
2022-11-15 11:13:48.6180,-10.5,-57.3,-4.09,58.39
2022-11-15 11:13:48.6280,-2.52,-39.49,0.83,39.57
2022-11-15 11:13:48.6370,1.26,-21.19,2.9,21.42
2022-11-15 11:13:48.6480,3.06,-11.31,1.65,11.83
2022-11-15 11:13:48.6580,2.99,-5.11,-0.29,5.92
2022-11-15 11:13:48.6680,2.46,-0.78,-1.42,2.94
2022-11-15 11:13:48.6780,2.71,2.29,-3.04,4.67
2022-11-15 11:13:48.6880,3.35,4.59,-4.94,7.52
2022-11-15 11:13:48.6980,4.37,6.39,-6.3,9.98
2022-11-15 11:13:48.7110,5.47,7.73,-7.08,11.82
2022-11-15 11:13:48.7180,6.24,8.4,-7.33,12.77
2022-11-15 11:13:48.7280,7.16,8.9,-7.77,13.81
2022-11-15 11:13:48.7380,8.44,9.75,-8.15,15.25
2022-11-15 11:13:48.7480,9.22,10.8,-7.03,15.84
2022-11-15 11:13:48.7580,9.84,12.12,-5.24,16.46
2022-11-15 11:13:48.7690,10.17,13.35,-2.37,16.94
2022-11-15 11:13:48.7780,10.12,14.82,1.17,17.98
2022-11-15 11:13:48.7880,10.1,16.24,5.06,19.78
2022-11-15 11:13:48.7980,10.08,17.41,6.5,21.14
2022-11-15 11:13:48.8120,9.92,17.15,4.36,20.28
2022-11-15 11:13:48.8180,8.6,16.47,3.5,18.9
2022-11-15 11:13:48.8280,5.47,15.27,2.2,16.36
2022-11-15 11:13:48.8390,2.58,13.39,1.13,13.68
2022-11-15 11:13:48.8480,0.31,10.08,1.94,10.26
2022-11-15 11:13:48.8590,-0.56,4.37,8.88,9.91
2022-11-15 11:13:48.8690,2.44,2.55,7.21,8.02
2022-11-15 11:13:48.8790,5.03,5.18,-4.68,8.6
2022-11-15 11:13:48.8890,5.5,3.42,-4.74,8.02
2022-11-15 11:13:48.8990,5.85,-1.82,-3.86,7.24
2022-11-15 11:13:48.9130,5.77,-11.95,-7.97,15.47
2022-11-15 11:13:48.9180,4.62,-29.45,-15.98,33.82
2022-11-15 11:13:48.9280,0.9,-42.43,-17.8,46.02
2022-11-15 11:13:48.9390,0.19,-42.61,-8.66,43.48
2022-11-15 11:13:48.9490,3.56,-26.22,4.59,26.85
2022-11-15 11:13:48.9590,3.7,-12.33,9.15,15.79
2022-11-15 11:13:48.9690,1.26,-6.6,3.23,7.45
2022-11-15 11:13:48.9790,-0.81,-3.3,-1.02,3.54
2022-11-15 11:13:48.9890,-2.86,-2.49,-3.1,4.89
2022-11-15 11:13:48.9990,-5.32,-3.97,-2.99,7.28
2022-11-15 11:13:49.0130,-7.82,-6.88,-1.8,10.57
2022-11-15 11:13:49.0190,-12.03,-11.57,1.51,16.75
2022-11-15 11:13:49.0290,-15.99,-16.31,2.89,23.02
2022-11-15 11:13:49.0390,-11.32,-16.72,0.53,20.19
2022-11-15 11:13:49.0490,-2.99,-11.21,16.66,20.3
2022-11-15 11:13:49.0590,-5.64,-3.58,22.09,23.07
2022-11-15 11:13:49.0690,-9.27,-1.52,11.61,14.93
2022-11-15 11:13:49.0790,-10.7,-0.58,3.15,11.16
2022-11-15 11:13:49.0890,-11.17,0.67,-0.75,11.21
2022-11-15 11:13:49.0990,-11.07,2.48,0.11,11.34
2022-11-15 11:13:49.1130,-10.53,5.12,2.46,11.96
2022-11-15 11:13:49.1190,-10.1,7.84,4.32,13.49
2022-11-15 11:13:49.1290,-9.86,10.45,5.59,15.41
2022-11-15 11:13:49.1410,-9.82,13.2,6.23,17.59
2022-11-15 11:13:49.1490,-9.6,15.92,6.69,19.75
2022-11-15 11:13:49.1600,-9.12,17.95,6.99,21.31
2022-11-15 11:13:49.1690,-8.15,19.02,6.46,21.67
2022-11-15 11:13:49.1790,-6.47,18.79,5.52,20.62
2022-11-15 11:13:49.1890,-4.02,17.27,4.97,18.41
2022-11-15 11:13:49.1990,-1.22,13.71,4.57,14.5
2022-11-15 11:13:49.2130,0.09,9.89,3.39,10.45
2022-11-15 11:13:49.2190,0.05,7.81,2.83,8.3
2022-11-15 11:13:49.2290,-0.77,5.12,5.07,7.24
2022-11-15 11:13:49.2400,-2.6,2.46,2.06,4.12
2022-11-15 11:13:49.2490,-3.69,-0.38,-2.82,4.65
2022-11-15 11:13:49.2600,-4.61,-6.98,1.09,8.43
2022-11-15 11:13:49.2700,-6.43,-18.39,3.4,19.77
2022-11-15 11:13:49.2800,-9.74,-38.84,-0.41,40.04
2022-11-15 11:13:49.2900,-13.21,-59.02,-6.72,60.85
2022-11-15 11:13:49.3000,-12.54,-58.55,-5.38,60.11
2022-11-15 11:13:49.3140,-5.62,-43.13,-2.48,43.56
2022-11-15 11:13:49.3200,0.16,-24.64,0.17,24.64
2022-11-15 11:13:49.3300,3.29,-13.73,0.89,14.14
2022-11-15 11:13:49.3400,4.43,-7.19,0.44,8.45
2022-11-15 11:13:49.3500,4.69,-2.37,0.1,5.25
2022-11-15 11:13:49.3600,5.16,1.3,-0.97,5.4
2022-11-15 11:13:49.3700,5.78,3.92,-2.91,7.56
2022-11-15 11:13:49.3800,6.06,6.31,-3.47,9.41
2022-11-15 11:13:49.3900,6.31,8.08,-3.86,10.95
2022-11-15 11:13:49.4000,6.9,8.74,-5.31,12.33
2022-11-15 11:13:49.4140,7.24,9.03,-6.16,13.11
2022-11-15 11:13:49.4200,8.28,10.26,-7.25,15.04
2022-11-15 11:13:49.4300,9.1,11.45,-7.45,16.41
2022-11-15 11:13:49.4400,9.49,13.07,-6.53,17.42
2022-11-15 11:13:49.4500,9.83,14.74,-4.46,18.26
2022-11-15 11:13:49.4600,9.99,15.91,-1.51,18.84
2022-11-15 11:13:49.4700,9.88,17.4,2.08,20.11
2022-11-15 11:13:49.4800,9.46,18.78,5.33,21.69
2022-11-15 11:13:49.4910,8.81,19.25,4.46,21.63
2022-11-15 11:13:49.5000,7.67,18.24,1.91,19.87
2022-11-15 11:13:49.5160,5.69,16.61,0.57,17.56
2022-11-15 11:13:49.5200,3.51,14.8,0.22,15.21
2022-11-15 11:13:49.5310,0.91,13.42,2.01,13.6
2022-11-15 11:13:49.5410,-1.01,10.48,3.79,11.18
2022-11-15 11:13:49.5500,0.35,6.65,4.27,7.91
2022-11-15 11:13:49.5600,2.74,6.44,-2.85,7.55
2022-11-15 11:13:49.5700,2.69,5.26,-4.4,7.36
2022-11-15 11:13:49.5800,2.25,-0.23,-2.87,3.65
2022-11-15 11:13:49.5900,1.56,-13.42,-5.67,14.65
2022-11-15 11:13:49.6000,-0.95,-41.81,-15.23,44.5
2022-11-15 11:13:49.6180,-3.86,-60.72,-17.92,63.42
2022-11-15 11:13:49.6220,-0.25,-44.67,-4.67,44.91
2022-11-15 11:13:49.6300,3.78,-24.87,7.37,26.21
2022-11-15 11:13:49.6410,6.05,-12.93,8.54,16.63
2022-11-15 11:13:49.6500,5.83,-6.03,2.6,8.78
2022-11-15 11:13:49.6610,4.87,0.2,0.08,4.87
2022-11-15 11:13:49.6710,3.58,4.5,-1.46,5.93
2022-11-15 11:13:49.6810,1.02,4.94,-2.09,5.46
2022-11-15 11:13:49.6910,-1.25,2.64,-2.47,3.82
2022-11-15 11:13:49.7010,-2.48,-2.46,-2.55,4.32
2022-11-15 11:13:49.7160,-9.16,-11.11,6.91,15.97
2022-11-15 11:13:49.7210,-15.78,-19.08,11.68,27.37
2022-11-15 11:13:49.7310,-13.22,-20.38,3.17,24.49
2022-11-15 11:13:49.7410,-9.72,-13.52,0.87,16.67
2022-11-15 11:13:49.7510,-7.12,-5.36,5.18,10.3
2022-11-15 11:13:49.7610,-8.57,-1.37,6.08,10.59
2022-11-15 11:13:49.7710,-10.1,0.39,4.87,11.21
2022-11-15 11:13:49.7810,-10.79,1.73,5.08,12.05
2022-11-15 11:13:49.7910,-10.84,3.44,5.34,12.56
2022-11-15 11:13:49.8010,-10.43,5.46,5.36,12.93
2022-11-15 11:13:49.8150,-10.4,7.79,5.58,14.14
2022-11-15 11:13:49.8210,-10.49,10.2,5.5,15.63
2022-11-15 11:13:49.8310,-10.87,12.41,5.6,17.42
2022-11-15 11:13:49.8420,-10.97,14.54,6.07,19.19
2022-11-15 11:13:49.8510,-10.21,16.26,6.17,20.16
2022-11-15 11:13:49.8620,-8.53,16.71,5.06,19.43
2022-11-15 11:13:49.8710,-6.3,16.83,3.75,18.35
2022-11-15 11:13:49.8810,-4.19,16.65,3.81,17.58
2022-11-15 11:13:49.8920,-2.21,14.7,4.82,15.62
2022-11-15 11:13:49.9020,-0.74,10.0,4.23,10.88
2022-11-15 11:13:49.9150,-0.5,7.12,2.64,7.61
2022-11-15 11:13:49.9210,-0.75,4.8,3.36,5.9
2022-11-15 11:13:49.9310,-1.84,1.45,2.71,3.58
2022-11-15 11:13:49.9420,-3.92,-1.46,-3.33,5.34
2022-11-15 11:13:49.9520,-7.21,-8.92,-0.23,11.47
2022-11-15 11:13:49.9620,-11.66,-21.02,-0.23,24.03
2022-11-15 11:13:49.9720,-20.75,-49.0,-11.86,54.51
2022-11-15 11:13:49.9820,-25.1,-70.34,-14.03,75.99
2022-11-15 11:13:49.9920,-13.85,-63.2,-2.08,64.73
2022-11-15 11:13:50.0020,-2.98,-38.49,3.82,38.79
2022-11-15 11:13:50.0150,2.11,-18.92,4.86,19.64
2022-11-15 11:13:50.0210,4.29,-10.27,1.68,11.25
2022-11-15 11:13:50.0310,3.97,-5.68,-2.3,7.3
2022-11-15 11:13:50.0420,3.44,-1.78,-3.4,5.15
2022-11-15 11:13:50.0520,5.37,1.62,-4.48,7.17
2022-11-15 11:13:50.0620,6.81,4.81,-5.24,9.84
2022-11-15 11:13:50.0720,7.46,7.35,-5.32,11.74
2022-11-15 11:13:50.0820,7.95,9.22,-5.35,13.29
2022-11-15 11:13:50.0920,8.5,10.39,-5.81,14.62
2022-11-15 11:13:50.1020,8.62,10.54,-6.48,15.07
2022-11-15 11:13:50.1160,9.74,11.98,-7.11,16.99
2022-11-15 11:13:50.1220,10.44,13.21,-5.78,17.8
2022-11-15 11:13:50.1320,10.95,14.69,-3.39,18.63
2022-11-15 11:13:50.1420,10.76,15.66,-0.22,19.0
2022-11-15 11:13:50.1520,10.68,16.7,2.84,20.02
2022-11-15 11:13:50.1620,10.49,17.66,4.6,21.04
2022-11-15 11:13:50.1720,10.29,17.84,3.8,20.94
2022-11-15 11:13:50.1820,10.19,17.19,1.13,20.01
2022-11-15 11:13:50.1920,9.06,16.64,0.01,18.94
2022-11-15 11:13:50.2030,6.11,15.35,0.4,16.52
2022-11-15 11:13:50.2160,2.52,12.81,1.09,13.1
2022-11-15 11:13:50.2220,0.94,8.53,-0.34,8.58
2022-11-15 11:13:50.2320,1.89,6.03,-2.01,6.63
2022-11-15 11:13:50.2420,2.85,5.47,-0.65,6.2
2022-11-15 11:13:50.2520,3.47,2.49,7.03,8.22
2022-11-15 11:13:50.2620,5.92,4.24,-2.75,7.78
2022-11-15 11:13:50.2720,6.4,2.44,-3.83,7.84
2022-11-15 11:13:50.2820,6.49,-4.47,-4.34,8.99
2022-11-15 11:13:50.2930,5.82,-19.32,-10.58,22.78
2022-11-15 11:13:50.3030,2.59,-38.26,-16.03,41.56
2022-11-15 11:13:50.3160,-2.53,-47.53,-6.69,48.06
2022-11-15 11:13:50.3220,1.14,-36.83,1.78,36.89
2022-11-15 11:13:50.3330,4.14,-20.01,0.95,20.45
2022-11-15 11:13:50.3420,2.59,-11.0,-2.1,11.49
2022-11-15 11:13:50.3530,1.52,-4.36,-3.28,5.66
2022-11-15 11:13:50.3630,1.15,0.07,-2.5,2.75
2022-11-15 11:13:50.3730,0.52,0.61,-0.06,0.8
2022-11-15 11:13:50.3830,-0.75,-2.74,0.59,2.9
2022-11-15 11:13:50.3930,-3.65,-7.91,-1.26,8.8
2022-11-15 11:13:50.4030,-10.36,-15.22,3.94,18.82
2022-11-15 11:13:50.4160,-17.39,-20.75,6.35,27.8
2022-11-15 11:13:50.4230,-12.36,-18.46,3.53,22.49
2022-11-15 11:13:50.4320,-7.24,-9.56,10.0,15.61
2022-11-15 11:13:50.4440,-7.83,-4.1,9.68,13.1
2022-11-15 11:13:50.4530,-9.79,-2.54,5.93,11.72
2022-11-15 11:13:50.4630,-10.92,-1.43,2.79,11.36
2022-11-15 11:13:50.4730,-10.87,0.19,2.16,11.08
2022-11-15 11:13:50.4830,-10.66,2.53,3.37,11.46
2022-11-15 11:13:50.4930,-10.73,5.35,5.07,13.01
2022-11-15 11:13:50.5030,-11.41,8.36,6.54,15.58
2022-11-15 11:13:50.5170,-12.23,11.12,7.0,17.95
2022-11-15 11:13:50.5230,-12.3,13.2,6.6,19.21
2022-11-15 11:13:50.5340,-11.62,15.07,6.0,19.95
2022-11-15 11:13:50.5440,-10.55,16.63,5.39,20.41
2022-11-15 11:13:50.5540,-8.89,17.75,4.87,20.44
2022-11-15 11:13:50.5630,-6.54,18.0,5.0,19.79
2022-11-15 11:13:50.5740,-3.41,16.75,5.81,18.05
2022-11-15 11:13:50.5840,-0.27,13.14,6.07,14.47
2022-11-15 11:13:50.5930,0.96,9.06,4.73,10.26
2022-11-15 11:13:50.6040,1.14,6.35,4.84,8.06
2022-11-15 11:13:50.6170,0.52,2.17,9.1,9.36
2022-11-15 11:13:50.6230,-2.47,-0.07,0.17,2.47
2022-11-15 11:13:50.6340,-4.61,-4.36,-3.34,7.17
2022-11-15 11:13:50.6440,-7.25,-12.12,0.68,14.13
2022-11-15 11:13:50.6540,-10.66,-24.15,0.57,26.4
2022-11-15 11:13:50.6640,-16.13,-47.18,-9.68,50.79
2022-11-15 11:13:50.6740,-15.45,-63.19,-13.33,66.4
2022-11-15 11:13:50.6840,-8.41,-55.34,-7.82,56.51
2022-11-15 11:13:50.6940,-1.65,-35.26,-0.32,35.3
2022-11-15 11:13:50.7040,2.03,-18.18,3.35,18.59
2022-11-15 11:13:50.7170,2.48,-9.93,2.62,10.56
2022-11-15 11:13:50.7240,1.59,-4.94,0.66,5.23
2022-11-15 11:13:50.7330,2.2,-1.17,-1.26,2.79
2022-11-15 11:13:50.7440,3.8,1.59,-3.79,5.59
2022-11-15 11:13:50.7540,4.93,4.19,-5.72,8.63
2022-11-15 11:13:50.7640,6.25,6.76,-6.57,11.31
2022-11-15 11:13:50.7740,7.16,8.29,-7.01,13.0
2022-11-15 11:13:50.7840,8.41,9.46,-6.9,14.41
2022-11-15 11:13:50.7940,9.32,9.92,-6.35,15.01
2022-11-15 11:13:50.8040,9.11,9.86,-5.48,14.49
2022-11-15 11:13:50.8180,9.96,10.99,-4.79,15.58
2022-11-15 11:13:50.8240,10.42,11.96,-3.11,16.16
2022-11-15 11:13:50.8340,10.42,13.33,-0.62,16.93
2022-11-15 11:13:50.8440,10.3,14.89,2.32,18.25
2022-11-15 11:13:50.8540,10.45,16.68,5.92,20.55
2022-11-15 11:13:50.8640,10.29,18.27,8.01,22.44
2022-11-15 11:13:50.8740,10.02,18.27,6.49,21.82
2022-11-15 11:13:50.8840,8.98,17.93,3.5,20.35
2022-11-15 11:13:50.8940,6.61,17.89,1.35,19.11
2022-11-15 11:13:50.9040,3.85,15.39,-1.59,15.94
2022-11-15 11:13:50.9180,1.37,12.14,-3.24,12.63
2022-11-15 11:13:50.9240,0.83,8.62,-3.95,9.51
2022-11-15 11:13:50.9350,1.57,7.29,-2.98,8.03
2022-11-15 11:13:50.9450,3.3,6.17,-1.03,7.07
2022-11-15 11:13:50.9540,4.7,5.37,-2.99,7.73
2022-11-15 11:13:50.9650,5.63,2.07,-2.49,6.49
2022-11-15 11:13:50.9750,6.34,-6.34,-3.35,9.57
2022-11-15 11:13:50.9850,6.38,-25.1,-9.7,27.65
2022-11-15 11:13:50.9950,2.9,-45.06,-14.48,47.41
2022-11-15 11:13:51.0050,-2.25,-50.16,-4.31,50.39
2022-11-15 11:13:51.0190,1.58,-33.9,3.94,34.16
2022-11-15 11:13:51.0250,4.3,-18.66,2.79,19.35
2022-11-15 11:13:51.0340,2.25,-10.91,-2.07,11.33
2022-11-15 11:13:51.0450,0.79,-4.46,-4.59,6.44
2022-11-15 11:13:51.0550,0.41,-0.18,-4.29,4.31
2022-11-15 11:13:51.0650,-0.48,-0.47,-3.01,3.08
2022-11-15 11:13:51.0750,-1.19,-4.22,-3.64,5.69
2022-11-15 11:13:51.0850,-1.84,-8.44,-4.71,9.83
2022-11-15 11:13:51.0950,-6.36,-13.66,0.82,15.09
2022-11-15 11:13:51.1060,-15.29,-18.57,10.6,26.28
2022-11-15 11:13:51.1220,-11.54,-17.04,12.03,23.83
2022-11-15 11:13:51.1250,-3.52,-11.28,12.66,17.31
2022-11-15 11:13:51.1350,-8.58,-5.9,10.93,15.09
2022-11-15 11:13:51.1450,-11.87,-3.03,6.65,13.93
2022-11-15 11:13:51.1550,-12.67,-1.04,4.26,13.4
2022-11-15 11:13:51.1650,-12.59,0.64,2.68,12.88
2022-11-15 11:13:51.1750,-11.96,2.79,2.31,12.49
2022-11-15 11:13:51.1860,-11.09,5.31,2.65,12.57
2022-11-15 11:13:51.1950,-11.0,7.85,3.48,13.95
2022-11-15 11:13:51.2050,-10.99,10.45,4.43,15.79
2022-11-15 11:13:51.2210,-10.84,13.21,5.2,17.86
2022-11-15 11:13:51.2250,-10.35,15.62,6.02,19.68
2022-11-15 11:13:51.2360,-9.47,17.23,6.99,20.86
2022-11-15 11:13:51.2460,-8.57,18.09,6.9,21.17
2022-11-15 11:13:51.2560,-7.16,18.12,5.7,20.3
2022-11-15 11:13:51.2650,-4.96,17.49,4.92,18.83
2022-11-15 11:13:51.2760,-1.99,15.88,4.49,16.62
2022-11-15 11:13:51.2860,-0.05,11.74,2.64,12.03
2022-11-15 11:13:51.2960,0.12,8.38,1.76,8.56
2022-11-15 11:13:51.3060,-0.47,4.87,5.17,7.11
2022-11-15 11:13:51.3220,-1.99,1.95,2.59,3.8
2022-11-15 11:13:51.3250,-3.43,-0.26,-3.93,5.22
2022-11-15 11:13:51.3360,-5.31,-6.69,-2.29,8.84
2022-11-15 11:13:51.3460,-8.31,-20.47,2.86,22.27
2022-11-15 11:13:51.3560,-14.17,-45.49,-0.74,47.65
2022-11-15 11:13:51.3660,-15.41,-68.09,-5.02,69.99
2022-11-15 11:13:51.3760,-10.9,-62.81,-4.94,63.93
2022-11-15 11:13:51.3860,-4.26,-40.81,-2.13,41.08
2022-11-15 11:13:51.3960,0.85,-21.44,-1.75,21.52
2022-11-15 11:13:51.4060,3.14,-11.67,-1.93,12.23
2022-11-15 11:13:51.4200,3.63,-5.87,-2.83,7.45
2022-11-15 11:13:51.4260,3.45,-1.44,-2.8,4.67
2022-11-15 11:13:51.4360,3.77,2.02,-2.21,4.81
2022-11-15 11:13:51.4460,4.95,4.94,-2.52,7.43
2022-11-15 11:13:51.4560,5.85,7.36,-3.92,10.18
2022-11-15 11:13:51.4660,6.43,9.3,-5.28,12.47
2022-11-15 11:13:51.4760,7.37,10.79,-6.2,14.46
2022-11-15 11:13:51.4860,8.52,11.1,-6.82,15.56
2022-11-15 11:13:51.4960,8.81,10.52,-7.34,15.56
2022-11-15 11:13:51.5060,9.19,11.27,-6.17,15.79
2022-11-15 11:13:51.5190,10.11,12.12,-5.45,16.69
2022-11-15 11:13:51.5260,10.24,12.79,-3.93,16.84
2022-11-15 11:13:51.5360,9.88,13.8,-1.51,17.03
2022-11-15 11:13:51.5460,9.78,15.14,2.26,18.16
2022-11-15 11:13:51.5560,9.68,16.71,6.55,20.39
2022-11-15 11:13:51.5660,9.31,17.76,8.03,21.6
2022-11-15 11:13:51.5760,8.64,17.53,5.9,20.41
2022-11-15 11:13:51.5870,6.44,17.04,3.67,18.58
2022-11-15 11:13:51.5960,3.84,15.07,-0.1,15.55
2022-11-15 11:13:51.6070,1.95,12.42,-2.87,12.89
2022-11-15 11:13:51.6220,0.91,10.0,-4.51,11.0
2022-11-15 11:13:51.6260,0.89,7.83,-3.44,8.59
2022-11-15 11:13:51.6360,1.94,5.93,0.23,6.24
2022-11-15 11:13:51.6470,4.19,4.76,-0.09,6.34
2022-11-15 11:13:51.6560,4.69,4.2,-3.62,7.26
2022-11-15 11:13:51.6660,5.39,-2.4,-3.24,6.73
2022-11-15 11:13:51.6760,5.62,-16.56,-6.54,18.67
2022-11-15 11:13:51.6870,4.03,-36.49,-13.87,39.24
2022-11-15 11:13:51.6970,-1.17,-48.73,-9.78,49.71
2022-11-15 11:13:51.7070,-0.75,-41.06,1.78,41.1
2022-11-15 11:13:51.7200,4.47,-23.73,3.46,24.39
2022-11-15 11:13:51.7260,3.54,-13.61,0.53,14.07
2022-11-15 11:13:51.7360,1.27,-6.14,-2.61,6.79
2022-11-15 11:13:51.7460,0.12,0.03,-3.31,3.31
2022-11-15 11:13:51.7570,-0.88,3.14,-1.75,3.7
2022-11-15 11:13:51.7670,-1.78,1.54,-0.83,2.49
2022-11-15 11:13:51.7770,-1.31,-2.36,-1.82,3.25
2022-11-15 11:13:51.7870,-2.45,-7.37,-3.98,8.72
2022-11-15 11:13:51.7970,-6.9,-13.86,-1.95,15.6
2022-11-15 11:13:51.8070,-13.6,-19.81,7.58,25.19
2022-11-15 11:13:51.8210,-4.41,-16.72,11.9,20.99
2022-11-15 11:13:51.8270,0.24,-11.46,10.84,15.77
2022-11-15 11:13:51.8370,-7.67,-6.25,5.32,11.23
2022-11-15 11:13:51.8470,-11.95,-3.8,2.33,12.75
2022-11-15 11:13:51.8570,-12.85,-2.04,3.06,13.36
2022-11-15 11:13:51.8670,-13.22,0.29,4.39,13.93
2022-11-15 11:13:51.8770,-12.86,2.9,4.2,13.83
2022-11-15 11:13:51.8870,-12.43,5.56,4.2,14.24
2022-11-15 11:13:51.8970,-12.51,8.16,4.59,15.62
2022-11-15 11:13:51.9070,-12.54,10.55,4.82,17.08
2022-11-15 11:13:51.9220,-12.34,12.78,4.99,18.45
2022-11-15 11:13:51.9270,-11.43,14.66,4.86,19.21
2022-11-15 11:13:51.9370,-10.08,15.77,4.87,19.33
2022-11-15 11:13:51.9470,-8.44,16.72,4.94,19.36
2022-11-15 11:13:51.9570,-6.73,17.29,5.19,19.26
2022-11-15 11:13:51.9680,-5.03,17.11,5.82,18.75
2022-11-15 11:13:51.9780,-3.22,15.03,5.79,16.42
2022-11-15 11:13:51.9880,-1.55,10.48,3.18,11.06
2022-11-15 11:13:51.9970,-0.87,7.49,1.38,7.66
2022-11-15 11:13:52.0080,-1.05,4.53,3.72,5.95
2022-11-15 11:13:52.0240,-2.22,1.01,3.21,4.03
2022-11-15 11:13:52.0270,-3.73,-1.87,-3.84,5.67
2022-11-15 11:13:52.0380,-5.3,-8.19,-1.93,9.94
2022-11-15 11:13:52.0480,-7.4,-18.4,1.46,19.88
2022-11-15 11:13:52.0580,-12.33,-36.84,-4.8,39.14
2022-11-15 11:13:52.0680,-15.87,-59.6,-9.96,62.47
2022-11-15 11:13:52.0780,-12.47,-62.5,-8.92,64.35
2022-11-15 11:13:52.0880,-5.39,-45.94,-4.27,46.45
2022-11-15 11:13:52.0980,-0.03,-24.34,0.01,24.34
2022-11-15 11:13:52.1080,2.68,-11.93,1.21,12.28
2022-11-15 11:13:52.1230,2.83,-5.74,-1.26,6.52
2022-11-15 11:13:52.1280,2.19,-1.8,-2.49,3.77
2022-11-15 11:13:52.1380,2.98,0.95,-3.87,4.97
2022-11-15 11:13:52.1480,4.96,3.29,-6.28,8.65
2022-11-15 11:13:52.1580,6.41,6.01,-7.64,11.64
2022-11-15 11:13:52.1680,7.49,8.39,-7.59,13.56
2022-11-15 11:13:52.1780,8.53,9.89,-6.92,14.78
2022-11-15 11:13:52.1880,9.33,10.1,-6.51,15.21
2022-11-15 11:13:52.1980,9.75,10.68,-5.06,15.32
2022-11-15 11:13:52.2080,10.45,11.87,-3.35,16.16
2022-11-15 11:13:52.2220,11.23,13.26,-1.51,17.44
2022-11-15 11:13:52.2280,10.88,14.4,1.05,18.07
2022-11-15 11:13:52.2390,10.25,15.69,4.13,19.19
2022-11-15 11:13:52.2480,10.0,17.01,7.31,21.04
2022-11-15 11:13:52.2580,10.02,17.77,7.66,21.79
2022-11-15 11:13:52.2690,9.76,17.24,4.48,20.31
2022-11-15 11:13:52.2780,9.42,16.84,0.96,19.31
2022-11-15 11:13:52.2880,7.52,15.62,-3.96,17.78
2022-11-15 11:13:52.2980,4.64,13.3,-5.43,15.09
2022-11-15 11:13:52.3090,1.67,11.6,-3.76,12.3
2022-11-15 11:13:52.3230,-0.01,8.6,-0.99,8.65
2022-11-15 11:13:52.3280,-0.22,5.38,8.79,10.3
2022-11-15 11:13:52.3390,3.62,5.16,4.93,8.0
2022-11-15 11:13:52.3480,5.3,6.12,-3.85,8.96
2022-11-15 11:13:52.3580,6.54,2.52,-2.87,7.57
2022-11-15 11:13:52.3690,7.48,-8.25,-4.47,11.99
2022-11-15 11:13:52.3790,7.06,-29.01,-12.74,32.46
2022-11-15 11:13:52.3890,1.29,-46.5,-16.3,49.29
2022-11-15 11:13:52.3980,-4.85,-48.78,-1.12,49.03
2022-11-15 11:13:52.4090,2.42,-30.4,4.11,30.77
2022-11-15 11:13:52.4230,4.39,-17.88,-0.96,18.43
2022-11-15 11:13:52.4290,2.12,-9.69,-3.76,10.6
2022-11-15 11:13:52.4390,1.39,-1.95,-3.57,4.29
2022-11-15 11:13:52.4490,0.69,2.79,-1.28,3.14
2022-11-15 11:13:52.4590,-1.08,1.08,-0.16,1.53
2022-11-15 11:13:52.4690,-0.82,-3.53,-3.2,4.83
2022-11-15 11:13:52.4790,-1.45,-8.19,-7.53,11.21
2022-11-15 11:13:52.4890,-7.88,-14.33,-3.07,16.63
2022-11-15 11:13:52.4990,-18.24,-20.58,8.28,28.71
2022-11-15 11:13:52.5090,-12.21,-19.91,11.12,25.86
2022-11-15 11:13:52.5230,-3.28,-14.69,15.17,21.37
2022-11-15 11:13:52.5290,-9.88,-8.36,11.76,17.48
2022-11-15 11:13:52.5390,-11.99,-3.86,5.92,13.91
2022-11-15 11:13:52.5490,-12.06,-0.48,4.13,12.75
2022-11-15 11:13:52.5590,-11.75,1.53,3.09,12.24
2022-11-15 11:13:52.5690,-10.92,3.48,2.36,11.7
2022-11-15 11:13:52.5790,-10.04,5.71,1.83,11.69
2022-11-15 11:13:52.5900,-9.59,7.83,2.23,12.57
2022-11-15 11:13:52.5990,-9.4,9.96,3.12,14.04
2022-11-15 11:13:52.6090,-9.1,12.09,4.11,15.68
2022-11-15 11:13:52.6250,-8.8,14.24,5.04,17.48
2022-11-15 11:13:52.6290,-8.42,15.95,6.16,19.05
2022-11-15 11:13:52.6400,-7.69,16.98,6.68,19.8
2022-11-15 11:13:52.6490,-6.77,17.29,6.07,19.53
2022-11-15 11:13:52.6590,-5.4,17.29,5.4,18.9
2022-11-15 11:13:52.6700,-3.07,16.58,5.27,17.66
2022-11-15 11:13:52.6790,-0.4,13.49,4.68,14.28
2022-11-15 11:13:52.6900,0.26,9.47,2.94,9.91
2022-11-15 11:13:52.6990,0.08,6.93,2.53,7.37
2022-11-15 11:13:52.7100,-0.64,3.45,5.89,6.85
2022-11-15 11:13:52.7230,-2.79,1.2,0.98,3.19
2022-11-15 11:13:52.7290,-4.66,-2.31,-4.47,6.85
2022-11-15 11:13:52.7390,-5.82,-8.58,-2.92,10.77
2022-11-15 11:13:52.7500,-6.77,-19.81,1.23,20.97
2022-11-15 11:13:52.7600,-9.82,-35.08,-1.81,36.47
2022-11-15 11:13:52.7700,-10.54,-51.62,-5.71,52.99
2022-11-15 11:13:52.7800,-7.66,-53.55,-6.93,54.53
2022-11-15 11:13:52.7900,-3.16,-44.52,-3.5,44.76
2022-11-15 11:13:52.8000,0.35,-28.07,-1.52,28.11
2022-11-15 11:13:52.8100,1.59,-14.38,-1.3,14.52
2022-11-15 11:13:52.8230,2.07,-6.15,-0.52,6.5
2022-11-15 11:13:52.8300,2.87,-0.69,-0.12,2.95
2022-11-15 11:13:52.8400,3.1,2.28,-0.77,3.92
2022-11-15 11:13:52.8500,4.42,4.24,-2.29,6.53
2022-11-15 11:13:52.8600,5.41,6.61,-3.64,9.28
2022-11-15 11:13:52.8700,5.5,8.62,-4.3,11.09
2022-11-15 11:13:52.8800,6.03,9.91,-4.26,12.35
2022-11-15 11:13:52.8900,6.97,9.57,-5.28,12.96
2022-11-15 11:13:52.9000,8.03,8.9,-7.34,14.05
2022-11-15 11:13:52.9100,9.01,9.24,-7.58,14.96
2022-11-15 11:13:52.9240,9.27,9.89,-5.13,14.49
2022-11-15 11:13:52.9300,9.26,10.62,-2.85,14.37
2022-11-15 11:13:52.9400,9.34,11.49,-1.58,14.89
2022-11-15 11:13:52.9510,9.64,13.06,0.77,16.25
2022-11-15 11:13:52.9600,10.17,15.31,4.01,18.81
2022-11-15 11:13:52.9700,10.8,17.56,7.48,21.93
2022-11-15 11:13:52.9800,10.71,18.8,8.4,23.21
2022-11-15 11:13:52.9900,9.68,18.74,4.44,21.55
2022-11-15 11:13:53.0000,7.42,16.93,-1.63,18.55
2022-11-15 11:13:53.0100,5.18,14.27,-5.03,15.99
2022-11-15 11:13:53.0240,2.25,12.25,-4.12,13.11
2022-11-15 11:13:53.0300,-0.54,9.23,0.9,9.28
2022-11-15 11:13:53.0400,-0.47,3.88,12.74,13.32
2022-11-15 11:13:53.0500,3.65,5.56,-0.15,6.65
2022-11-15 11:13:53.0600,4.2,5.14,-3.73,7.61
2022-11-15 11:13:53.0710,4.49,-0.83,-2.16,5.05
2022-11-15 11:13:53.0810,4.07,-12.4,-6.16,14.43
2022-11-15 11:13:53.0910,2.21,-31.66,-15.99,35.53
2022-11-15 11:13:53.1010,-2.3,-46.35,-21.12,50.98
2022-11-15 11:13:53.1110,-3.84,-46.34,-10.8,47.73
2022-11-15 11:13:53.1240,1.53,-29.07,1.19,29.13
2022-11-15 11:13:53.1300,4.09,-13.92,7.42,16.29
2022-11-15 11:13:53.1410,2.76,-6.12,4.27,7.95
2022-11-15 11:13:53.1510,1.48,-0.29,1.25,1.95
2022-11-15 11:13:53.1610,-0.39,1.98,-1.32,2.41
2022-11-15 11:13:53.1710,-2.27,-1.54,-2.88,3.97
2022-11-15 11:13:53.1810,-2.09,-7.59,-2.2,8.17
2022-11-15 11:13:53.1910,-3.38,-13.25,-2.25,13.85
2022-11-15 11:13:53.2010,-8.32,-18.45,-0.87,20.25
2022-11-15 11:13:53.2110,-14.77,-19.62,4.43,24.95
2022-11-15 11:13:53.2250,-9.05,-11.17,9.07,16.99
2022-11-15 11:13:53.2310,-0.25,-6.08,14.17,15.42
2022-11-15 11:13:53.2400,-3.64,-3.37,11.19,12.24
2022-11-15 11:13:53.2510,-7.42,-0.57,4.0,8.44
2022-11-15 11:13:53.2610,-8.44,0.5,-1.28,8.55
2022-11-15 11:13:53.2710,-9.02,1.99,-1.35,9.33
2022-11-15 11:13:53.2810,-9.82,4.15,2.24,10.89
2022-11-15 11:13:53.2910,-10.24,6.96,5.04,13.36
2022-11-15 11:13:53.3010,-10.62,9.27,6.26,15.42
2022-11-15 11:13:53.3110,-11.04,10.69,5.89,16.45
2022-11-15 11:13:53.3250,-11.22,12.12,5.27,17.33
2022-11-15 11:13:53.3310,-10.87,13.46,4.98,18.0
2022-11-15 11:13:53.3410,-9.96,14.87,5.19,18.63
2022-11-15 11:13:53.3520,-8.57,16.17,5.32,19.05
2022-11-15 11:13:53.3610,-6.87,16.57,5.04,18.63
2022-11-15 11:13:53.3720,-4.87,15.88,5.12,17.38
2022-11-15 11:13:53.3810,-2.39,13.29,5.64,14.63
2022-11-15 11:13:53.3920,-0.46,8.94,6.02,10.78
2022-11-15 11:13:53.4020,-0.25,6.56,4.41,7.9
2022-11-15 11:13:53.4120,-0.43,6.05,1.44,6.23
2022-11-15 11:13:53.4260,-0.56,5.67,0.21,5.7
2022-11-15 11:13:53.4310,-1.39,4.0,0.69,4.29
2022-11-15 11:13:53.4420,-3.05,1.39,-1.81,3.8
2022-11-15 11:13:53.4520,-3.76,-1.48,-2.82,4.92
2022-11-15 11:13:53.4610,-3.72,-9.31,1.85,10.19
2022-11-15 11:13:53.4720,-5.32,-26.69,1.34,27.24
2022-11-15 11:13:53.4820,-8.92,-51.93,-1.75,52.71
2022-11-15 11:13:53.4920,-11.32,-62.99,-3.06,64.07
2022-11-15 11:13:53.5020,-9.2,-52.59,-1.38,53.4
2022-11-15 11:13:53.5120,-4.35,-35.0,-2.32,35.34
2022-11-15 11:13:53.5250,-0.55,-20.21,-2.3,20.34
2022-11-15 11:13:53.5310,2.34,-10.49,-2.0,10.93
2022-11-15 11:13:53.5410,3.53,-4.51,-2.78,6.36
2022-11-15 11:13:53.5520,4.17,-0.06,-2.85,5.05
2022-11-15 11:13:53.5620,4.59,2.92,-3.38,6.4
2022-11-15 11:13:53.5720,4.86,5.05,-4.39,8.27
2022-11-15 11:13:53.5820,5.25,7.3,-4.11,9.88
2022-11-15 11:13:53.5920,5.5,8.64,-4.52,11.19
2022-11-15 11:13:53.6020,6.39,8.93,-6.73,12.87
2022-11-15 11:13:53.6120,7.66,9.16,-9.22,15.08
2022-11-15 11:13:53.6260,8.83,9.84,-11.06,17.23
2022-11-15 11:13:53.6320,9.98,10.97,-11.19,18.57
2022-11-15 11:13:53.6420,11.13,12.9,-8.12,18.87
2022-11-15 11:13:53.6520,12.01,15.31,-1.51,19.51
2022-11-15 11:13:53.6620,13.44,18.34,6.31,23.59
2022-11-15 11:13:53.6720,13.63,19.83,8.81,25.62
2022-11-15 11:13:53.6820,12.11,19.89,4.57,23.73
2022-11-15 11:13:53.6930,10.57,19.96,0.86,22.6
2022-11-15 11:13:53.7020,8.59,18.84,-0.76,20.71
2022-11-15 11:13:53.7120,5.73,16.29,-0.28,17.27
2022-11-15 11:13:53.7270,2.95,13.17,0.37,13.5
2022-11-15 11:13:53.7320,-0.39,11.31,2.03,11.49
2022-11-15 11:13:53.7420,-2.43,9.83,2.37,10.39
2022-11-15 11:13:53.7530,-1.22,8.85,-1.37,9.03
2022-11-15 11:13:53.7620,-0.12,8.36,-4.82,9.65
2022-11-15 11:13:53.7730,0.01,7.24,-5.77,9.25
2022-11-15 11:13:53.7820,-0.09,4.84,-1.64,5.11
2022-11-15 11:13:53.7930,0.45,-0.31,4.49,4.52
2022-11-15 11:13:53.8030,-0.21,-5.26,-0.77,5.32
2022-11-15 11:13:53.8130,-1.68,-15.49,-1.92,15.69
2022-11-15 11:13:53.8270,-4.88,-32.89,-5.45,33.69
2022-11-15 11:13:53.8330,-12.15,-48.38,-9.49,50.77
2022-11-15 11:13:53.8430,-11.38,-39.5,-5.73,41.5
2022-11-15 11:13:53.8530,-0.34,-21.29,-0.39,21.29
2022-11-15 11:13:53.8630,3.79,-11.3,1.11,11.97
2022-11-15 11:13:53.8730,4.21,-5.2,0.59,6.71
2022-11-15 11:13:53.8830,5.62,0.36,1.19,5.75
2022-11-15 11:13:53.8930,7.04,4.57,-0.48,8.4
2022-11-15 11:13:53.9030,7.32,6.19,-4.38,10.53
2022-11-15 11:13:53.9130,8.09,4.98,-6.69,11.61
2022-11-15 11:13:53.9260,8.81,0.37,-7.46,11.55
2022-11-15 11:13:53.9330,6.58,-6.38,-5.97,10.93
2022-11-15 11:13:53.9430,2.11,-11.57,-3.06,12.15
2022-11-15 11:13:53.9530,-4.85,-16.27,6.01,18.0
2022-11-15 11:13:53.9630,-10.01,-17.88,13.04,24.28
2022-11-15 11:13:53.9730,-2.5,-12.83,11.91,17.68
2022-11-15 11:13:53.9830,-0.88,-9.17,4.13,10.09
2022-11-15 11:13:53.9930,-8.27,-7.02,-3.33,11.34
2022-11-15 11:13:54.0030,-11.68,-4.36,0.82,12.49
2022-11-15 11:13:54.0130,-12.84,-1.39,6.01,14.24
2022-11-15 11:13:54.0260,-13.68,1.15,7.27,15.53
2022-11-15 11:13:54.0330,-13.83,3.52,6.04,15.49
2022-11-15 11:13:54.0430,-14.15,6.13,4.47,16.05
2022-11-15 11:13:54.0540,-14.6,8.55,3.52,17.28
2022-11-15 11:13:54.0630,-14.55,10.57,3.94,18.41
2022-11-15 11:13:54.0740,-13.67,12.16,4.65,18.87
2022-11-15 11:13:54.0830,-12.05,13.11,4.87,18.46
2022-11-15 11:13:54.0940,-10.17,13.82,4.65,17.77
2022-11-15 11:13:54.1030,-8.34,14.8,4.64,17.61
2022-11-15 11:13:54.1140,-7.03,15.58,4.87,17.77
2022-11-15 11:13:54.1280,-6.4,16.21,5.6,18.3
2022-11-15 11:13:54.1330,-6.24,15.89,4.91,17.76
2022-11-15 11:13:54.1440,-5.08,12.25,2.32,13.46
2022-11-15 11:13:54.1530,-3.2,7.82,0.78,8.48
2022-11-15 11:13:54.1640,-2.33,4.36,2.86,5.71
2022-11-15 11:13:54.1740,-2.75,0.03,5.01,5.71
2022-11-15 11:13:54.1840,-3.91,-1.44,-4.56,6.17
2022-11-15 11:13:54.1940,-5.38,-5.51,-6.46,10.05
2022-11-15 11:13:54.2040,-7.66,-12.42,-7.52,16.41
2022-11-15 11:13:54.2140,-11.85,-31.19,-10.06,34.84
2022-11-15 11:13:54.2290,-14.79,-60.99,-8.42,63.31
2022-11-15 11:13:54.2340,-11.56,-69.94,-7.21,71.25
2022-11-15 11:13:54.2440,-3.16,-53.84,-2.03,53.97
2022-11-15 11:13:54.2550,0.98,-27.35,1.43,27.4
2022-11-15 11:13:54.2640,3.01,-13.01,0.33,13.35
2022-11-15 11:13:54.2740,4.24,-6.05,-2.62,7.83
2022-11-15 11:13:54.2840,4.93,-2.0,-5.21,7.44
2022-11-15 11:13:54.2940,5.36,0.63,-7.13,8.94
2022-11-15 11:13:54.3040,6.13,3.5,-7.26,10.12
2022-11-15 11:13:54.3140,7.46,7.02,-5.34,11.55
2022-11-15 11:13:54.3280,8.59,10.3,-2.32,13.61
2022-11-15 11:13:54.3340,8.43,11.49,-0.86,14.27
2022-11-15 11:13:54.3440,8.43,12.02,-1.64,14.77
2022-11-15 11:13:54.3540,8.16,11.98,-2.09,14.64
2022-11-15 11:13:54.3640,8.44,12.4,-2.1,15.14
2022-11-15 11:13:54.3750,9.13,13.05,-1.5,15.99
2022-11-15 11:13:54.3850,8.81,13.57,0.39,16.18
2022-11-15 11:13:54.3940,8.21,14.42,2.57,16.79
2022-11-15 11:13:54.4040,7.91,15.32,4.51,17.82
2022-11-15 11:13:54.4140,8.06,16.04,4.36,18.47
2022-11-15 11:13:54.4300,7.92,16.21,2.7,18.24
2022-11-15 11:13:54.4340,6.14,15.93,0.17,17.07
2022-11-15 11:13:54.4450,2.84,13.66,-3.15,14.3
2022-11-15 11:13:54.4550,1.14,9.74,-4.83,10.93
2022-11-15 11:13:54.4650,1.23,8.74,-5.82,10.57
2022-11-15 11:13:54.4750,1.32,8.37,-6.23,10.51
2022-11-15 11:13:54.4850,1.27,7.75,-4.47,9.03
2022-11-15 11:13:54.4950,0.84,6.49,2.58,7.03
2022-11-15 11:13:54.5050,2.63,5.34,2.33,6.39
2022-11-15 11:13:54.5150,3.01,2.34,0.65,3.86
2022-11-15 11:13:54.5310,2.28,-6.18,2.04,6.89
2022-11-15 11:13:54.5350,-0.36,-21.58,0.32,21.58
2022-11-15 11:13:54.5440,-4.99,-38.38,-5.43,39.08
2022-11-15 11:13:54.5560,-9.3,-41.27,-6.95,42.87
2022-11-15 11:13:54.5650,-3.05,-28.04,-4.99,28.64
2022-11-15 11:13:54.5750,2.4,-16.62,-3.3,17.11
2022-11-15 11:13:54.5850,2.56,-8.1,-1.97,8.72
2022-11-15 11:13:54.5950,3.16,-0.95,-1.17,3.5
2022-11-15 11:13:54.6050,4.21,3.96,-0.77,5.83
2022-11-15 11:13:54.6150,4.6,4.57,-3.24,7.24
2022-11-15 11:13:54.6290,4.16,-0.32,-6.94,8.09
2022-11-15 11:13:54.6350,3.56,-6.09,-9.27,11.64
2022-11-15 11:13:54.6450,2.0,-11.3,-12.25,16.78
2022-11-15 11:13:54.6550,-2.28,-15.93,-11.12,19.56
2022-11-15 11:13:54.6650,-12.16,-18.77,2.69,22.52
2022-11-15 11:13:54.6750,-15.99,-15.45,17.76,28.45
2022-11-15 11:13:54.6850,-0.26,-11.77,28.82,31.13
2022-11-15 11:13:54.6950,-2.22,-12.0,11.3,16.63
2022-11-15 11:13:54.7050,-9.94,-6.85,-4.44,12.86
2022-11-15 11:13:54.7150,-10.62,-3.4,-3.45,11.67
2022-11-15 11:13:54.7300,-12.3,-0.53,3.38,12.76
2022-11-15 11:13:54.7350,-13.0,1.41,5.43,14.15
2022-11-15 11:13:54.7450,-12.57,3.4,4.63,13.82
2022-11-15 11:13:54.7560,-12.06,5.79,4.59,14.14
2022-11-15 11:13:54.7650,-12.39,8.69,5.87,16.23
2022-11-15 11:13:54.7760,-12.78,11.57,6.96,18.59
2022-11-15 11:13:54.7850,-12.82,14.44,7.85,20.84
2022-11-15 11:13:54.7960,-11.95,16.0,7.66,21.38
2022-11-15 11:13:54.8050,-10.38,16.55,6.23,20.5
2022-11-15 11:13:54.8160,-8.29,16.94,4.9,19.48
2022-11-15 11:13:54.8300,-5.89,17.07,4.18,18.53
2022-11-15 11:13:54.8350,-3.1,15.86,3.77,16.59
2022-11-15 11:13:54.8460,-0.47,13.01,4.34,13.72
2022-11-15 11:13:54.8560,0.47,7.43,7.72,10.72
2022-11-15 11:13:54.8660,-1.72,1.35,7.62,7.92
2022-11-15 11:13:54.8760,-4.16,-1.65,-2.08,4.93
2022-11-15 11:13:54.8860,-6.63,-7.98,-3.28,10.88
2022-11-15 11:13:54.8960,-10.23,-17.07,-1.61,19.96
2022-11-15 11:13:54.9060,-15.48,-33.86,-6.16,37.73
2022-11-15 11:13:54.9160,-16.59,-59.37,-13.2,63.04
2022-11-15 11:13:54.9310,-9.33,-70.3,-15.16,72.51
2022-11-15 11:13:54.9350,-1.65,-60.48,-7.37,60.94
2022-11-15 11:13:54.9460,2.74,-33.95,4.18,34.31
2022-11-15 11:13:54.9560,4.85,-16.98,4.66,18.26
2022-11-15 11:13:54.9660,5.1,-9.01,1.15,10.41
2022-11-15 11:13:54.9760,4.55,-4.26,-0.54,6.25
2022-11-15 11:13:54.9860,4.77,-1.61,-2.74,5.73
2022-11-15 11:13:54.9960,6.2,1.25,-4.92,8.01
2022-11-15 11:13:55.0060,7.38,4.23,-5.55,10.15
2022-11-15 11:13:55.0160,7.38,6.46,-5.08,11.04
2022-11-15 11:13:55.0310,8.03,8.29,-5.9,12.96
2022-11-15 11:13:55.0360,9.21,9.66,-7.5,15.3
2022-11-15 11:13:55.0460,10.15,9.94,-8.8,16.71
2022-11-15 11:13:55.0560,11.09,11.21,-8.44,17.88
2022-11-15 11:13:55.0660,11.43,12.43,-6.86,18.22
2022-11-15 11:13:55.0760,11.49,14.17,-4.38,18.76
2022-11-15 11:13:55.0870,11.95,16.66,-0.73,20.51
2022-11-15 11:13:55.0960,12.64,19.91,4.45,23.99
2022-11-15 11:13:55.1070,12.4,21.67,7.98,26.21
2022-11-15 11:13:55.1160,10.87,21.44,6.02,24.78
2022-11-15 11:13:55.1320,9.18,20.53,2.9,22.67
2022-11-15 11:13:55.1360,7.74,20.43,2.44,21.98
2022-11-15 11:13:55.1470,5.29,20.22,3.26,21.15
2022-11-15 11:13:55.1570,2.69,18.25,3.12,18.7
2022-11-15 11:13:55.1660,1.06,13.86,0.87,13.92
2022-11-15 11:13:55.1770,1.35,9.65,-2.07,9.96
2022-11-15 11:13:55.1870,2.21,8.4,-4.02,9.57
2022-11-15 11:13:55.1970,3.7,8.13,-6.09,10.81
2022-11-15 11:13:55.2070,5.14,6.46,-4.21,9.26
2022-11-15 11:13:55.2170,5.8,5.16,-0.35,7.77
2022-11-15 11:13:55.2320,5.87,5.51,-3.58,8.81
2022-11-15 11:13:55.2360,5.96,-1.09,-3.97,7.24
2022-11-15 11:13:55.2470,5.68,-16.37,-7.11,18.72
2022-11-15 11:13:55.2570,2.08,-36.31,-8.31,37.3
2022-11-15 11:13:55.2670,-5.48,-54.44,7.91,55.28
2022-11-15 11:13:55.2770,-0.82,-38.47,4.39,38.72
2022-11-15 11:13:55.2870,4.32,-18.81,-3.94,19.69
2022-11-15 11:13:55.2970,4.69,-9.59,-4.43,11.55
2022-11-15 11:13:55.3070,5.31,-1.93,-2.42,6.14
2022-11-15 11:13:55.3170,5.34,3.73,-0.03,6.51
2022-11-15 11:13:55.3310,4.22,6.14,0.49,7.46
2022-11-15 11:13:55.3370,1.25,1.09,-2.47,2.97
2022-11-15 11:13:55.3470,-0.6,-7.64,-5.88,9.65
2022-11-15 11:13:55.3570,-1.99,-15.9,-7.8,17.82
2022-11-15 11:13:55.3670,-5.83,-21.9,-9.89,24.72
2022-11-15 11:13:55.3770,-12.71,-23.32,-6.29,27.29
2022-11-15 11:13:55.3870,-17.1,-19.63,1.27,26.06
2022-11-15 11:13:55.3970,-9.44,-10.95,10.17,17.67
2022-11-15 11:13:55.4070,-0.31,-7.51,18.79,20.23
2022-11-15 11:13:55.4180,-6.12,-6.26,13.89,16.41
2022-11-15 11:13:55.4310,-12.24,-3.38,3.94,13.29
2022-11-15 11:13:55.4370,-12.91,-1.4,-0.31,12.98
2022-11-15 11:13:55.4470,-13.49,-0.19,0.42,13.49
2022-11-15 11:13:55.4580,-13.68,1.73,3.15,14.14
2022-11-15 11:13:55.4670,-13.38,4.15,4.66,14.76
2022-11-15 11:13:55.4780,-12.83,6.13,4.69,14.97
2022-11-15 11:13:55.4880,-11.99,7.6,3.73,14.67
2022-11-15 11:13:55.4980,-11.17,9.08,2.87,14.67
2022-11-15 11:13:55.5080,-10.44,10.84,2.82,15.31
2022-11-15 11:13:55.5180,-9.84,12.91,3.8,16.67
2022-11-15 11:13:55.5320,-9.01,14.48,5.12,17.8
2022-11-15 11:13:55.5370,-7.84,15.58,6.3,18.54
2022-11-15 11:13:55.5480,-6.56,16.15,6.57,18.62
2022-11-15 11:13:55.5580,-5.36,16.04,6.35,18.06
2022-11-15 11:13:55.5680,-3.86,15.02,5.68,16.51
2022-11-15 11:13:55.5780,-1.93,11.54,3.52,12.21
2022-11-15 11:13:55.5880,-0.68,8.06,1.71,8.26
2022-11-15 11:13:55.5980,-0.51,5.55,2.29,6.02
2022-11-15 11:13:55.6080,-1.46,1.73,6.55,6.93
2022-11-15 11:13:55.6180,-2.98,-1.11,0.36,3.2
2022-11-15 11:13:55.6320,-4.17,-4.87,-4.05,7.58
2022-11-15 11:13:55.6380,-4.5,-11.09,-0.37,11.97
2022-11-15 11:13:55.6480,-4.53,-21.68,3.09,22.36
2022-11-15 11:13:55.6580,-6.42,-39.11,-3.37,39.77
2022-11-15 11:13:55.6680,-8.62,-56.24,-8.68,57.55
2022-11-15 11:13:55.6780,-8.96,-53.31,-10.5,55.06
2022-11-15 11:13:55.6880,-4.78,-39.26,-5.79,39.97
2022-11-15 11:13:55.6980,-1.07,-22.3,-2.53,22.46
2022-11-15 11:13:55.7080,1.3,-11.92,-1.66,12.1
2022-11-15 11:13:55.7180,2.9,-5.69,-1.63,6.59
2022-11-15 11:13:55.7310,3.07,-1.46,-0.96,3.53
2022-11-15 11:13:55.7380,2.73,1.46,-1.78,3.57
2022-11-15 11:13:55.7480,2.84,4.05,-2.62,5.59
2022-11-15 11:13:55.7580,3.55,6.27,-3.21,7.88
2022-11-15 11:13:55.7680,4.46,7.77,-4.39,9.97
2022-11-15 11:13:55.7790,5.57,8.27,-6.25,11.76
2022-11-15 11:13:55.7880,6.98,8.19,-8.39,13.64
2022-11-15 11:13:55.7990,7.91,8.04,-9.77,14.92
2022-11-15 11:13:55.8080,8.37,8.66,-8.62,14.81
2022-11-15 11:13:55.8180,9.38,10.36,-6.66,15.48
2022-11-15 11:13:55.8310,9.79,11.96,-3.61,15.87
2022-11-15 11:13:55.8380,10.36,13.61,-0.69,17.11
2022-11-15 11:13:55.8480,10.83,15.42,3.37,19.14
2022-11-15 11:13:55.8580,10.93,17.89,8.37,22.57
2022-11-15 11:13:55.8680,10.42,19.13,9.32,23.69
2022-11-15 11:13:55.8780,8.73,18.23,5.27,20.88
2022-11-15 11:13:55.8890,7.1,17.76,2.4,19.27
2022-11-15 11:13:55.8980,6.29,16.32,-2.15,17.62
2022-11-15 11:13:55.9090,4.39,15.16,-2.45,15.97
2022-11-15 11:13:55.9190,0.86,14.32,1.9,14.47
2022-11-15 11:13:55.9320,-1.26,10.15,0.87,10.26
2022-11-15 11:13:55.9390,-0.26,7.35,-2.32,7.71
2022-11-15 11:13:55.9480,0.96,6.91,-4.49,8.29
2022-11-15 11:13:55.9590,1.98,4.64,0.72,5.09
2022-11-15 11:13:55.9690,4.16,3.54,1.85,5.76
2022-11-15 11:13:55.9790,5.57,3.46,-4.72,8.07
2022-11-15 11:13:55.9890,5.85,-2.39,-2.72,6.87
2022-11-15 11:13:55.9990,5.11,-14.11,-4.48,15.66
2022-11-15 11:13:56.0090,1.93,-31.89,-11.11,33.82
2022-11-15 11:13:56.0190,-6.56,-45.97,-6.59,46.9
2022-11-15 11:13:56.0330,-8.79,-40.68,0.15,41.61
2022-11-15 11:13:56.0390,2.4,-24.69,-1.73,24.86
2022-11-15 11:13:56.0490,4.07,-14.95,-4.79,16.21
2022-11-15 11:13:56.0590,2.69,-6.55,-3.1,7.72
2022-11-15 11:13:56.0690,3.06,-0.04,-0.71,3.14
2022-11-15 11:13:56.0790,3.28,3.75,1.12,5.1
2022-11-15 11:13:56.0890,2.72,0.82,-2.23,3.61
2022-11-15 11:13:56.0990,1.63,-5.56,-6.55,8.74
2022-11-15 11:13:56.1090,-0.09,-10.64,-7.68,13.12
2022-11-15 11:13:56.1200,-4.83,-15.14,-3.53,16.27
2022-11-15 11:13:56.1340,-14.58,-19.44,11.45,26.86
2022-11-15 11:13:56.1390,-10.7,-17.7,18.04,27.44
2022-11-15 11:13:56.1500,1.88,-13.85,15.03,20.52
2022-11-15 11:13:56.1590,-4.54,-8.43,1.86,9.75
2022-11-15 11:13:56.1700,-9.73,-3.8,-2.84,10.82
2022-11-15 11:13:56.1790,-10.62,-1.39,-0.13,10.71
2022-11-15 11:13:56.1900,-11.1,1.08,3.95,11.83
2022-11-15 11:13:56.1990,-11.39,3.2,4.88,12.79
2022-11-15 11:13:56.2100,-11.48,5.02,4.51,13.31
2022-11-15 11:13:56.2200,-11.64,6.97,4.24,14.21
2022-11-15 11:13:56.2340,-11.8,8.99,4.41,15.47
2022-11-15 11:13:56.2390,-12.02,11.05,4.42,16.91
2022-11-15 11:13:56.2490,-11.64,13.12,3.77,17.93
2022-11-15 11:13:56.2590,-10.76,15.04,3.65,18.84
2022-11-15 11:13:56.2700,-9.69,16.85,4.69,19.99
2022-11-15 11:13:56.2800,-8.59,18.0,5.81,20.77
2022-11-15 11:13:56.2900,-7.54,18.3,6.52,20.83
2022-11-15 11:13:56.3000,-5.96,17.67,7.11,19.95
2022-11-15 11:13:56.3100,-3.35,14.73,6.61,16.48
2022-11-15 11:13:56.3200,-1.12,9.95,4.83,11.11
2022-11-15 11:13:56.3360,-0.47,6.46,5.0,8.18
2022-11-15 11:13:56.3400,-1.38,2.05,9.55,9.86
2022-11-15 11:13:56.3490,-4.27,-0.23,1.05,4.4
2022-11-15 11:13:56.3600,-5.94,-4.45,-5.37,9.16
2022-11-15 11:13:56.3700,-6.79,-11.15,-3.78,13.59
2022-11-15 11:13:56.3800,-7.77,-20.99,-2.4,22.51
2022-11-15 11:13:56.3900,-11.08,-41.55,-8.45,43.82
2022-11-15 11:13:56.4000,-11.26,-63.54,-10.01,65.3
2022-11-15 11:13:56.4100,-7.0,-59.72,-4.27,60.28
2022-11-15 11:13:56.4200,-2.43,-39.07,2.45,39.22
2022-11-15 11:13:56.4340,-0.05,-20.12,1.34,20.16
2022-11-15 11:13:56.4400,2.09,-10.43,-1.63,10.76
2022-11-15 11:13:56.4500,2.97,-4.78,-3.13,6.43
2022-11-15 11:13:56.4610,3.32,-0.91,-2.62,4.32
2022-11-15 11:13:56.4700,3.34,1.7,-2.79,4.67
2022-11-15 11:13:56.4800,4.04,3.95,-4.14,7.0
2022-11-15 11:13:56.4900,5.18,6.19,-5.81,9.94
2022-11-15 11:13:56.5010,6.21,7.92,-6.58,12.02
2022-11-15 11:13:56.5100,7.19,9.05,-6.94,13.48
2022-11-15 11:13:56.5210,8.46,9.49,-8.12,15.08
2022-11-15 11:13:56.5360,9.59,9.96,-8.33,16.14
2022-11-15 11:13:56.5400,10.16,10.24,-6.62,15.87
2022-11-15 11:13:56.5500,9.86,10.51,-3.79,14.9
2022-11-15 11:13:56.5600,9.53,11.24,-1.83,14.84
2022-11-15 11:13:56.5710,9.17,12.19,-0.87,15.27
2022-11-15 11:13:56.5800,8.9,13.3,0.65,16.01
2022-11-15 11:13:56.5910,8.81,14.73,2.3,17.31
2022-11-15 11:13:56.6010,8.71,16.1,3.96,18.72
2022-11-15 11:13:56.6110,8.71,16.85,5.09,19.63
2022-11-15 11:13:56.6210,8.47,17.22,5.25,19.89
2022-11-15 11:13:56.6360,7.28,16.78,3.85,18.69
2022-11-15 11:13:56.6400,4.64,14.61,1.21,15.37
2022-11-15 11:13:56.6510,2.03,12.07,-0.96,12.27
2022-11-15 11:13:56.6610,0.7,8.9,-4.12,9.83
2022-11-15 11:13:56.6710,0.69,6.24,-3.03,6.97
2022-11-15 11:13:56.6810,1.6,4.05,0.48,4.38
2022-11-15 11:13:56.6910,3.58,3.66,-1.48,5.32
2022-11-15 11:13:56.7010,4.4,3.44,-4.28,7.03
2022-11-15 11:13:56.7110,4.71,-1.22,-3.37,5.91
2022-11-15 11:13:56.7210,4.23,-11.3,-4.12,12.74
2022-11-15 11:13:56.7370,3.41,-26.79,-9.7,28.69
2022-11-15 11:13:56.7410,1.25,-38.97,-12.4,40.91
2022-11-15 11:13:56.7510,2.3,-39.6,-3.38,39.81
2022-11-15 11:13:56.7610,5.74,-30.08,1.4,30.65
2022-11-15 11:13:56.7710,3.47,-18.01,1.86,18.43
2022-11-15 11:13:56.7810,0.45,-8.69,-0.6,8.72
2022-11-15 11:13:56.7910,-0.33,-1.31,-1.7,2.17
2022-11-15 11:13:56.8010,-1.93,2.86,-1.0,3.59
2022-11-15 11:13:56.8110,-4.11,0.76,-1.66,4.49
2022-11-15 11:13:56.8210,-4.61,-5.36,-2.73,7.57
2022-11-15 11:13:56.8350,-5.55,-11.43,-4.7,13.54
2022-11-15 11:13:56.8410,-10.05,-17.66,-7.28,21.58
2022-11-15 11:13:56.8520,-17.26,-22.03,-5.1,28.44
2022-11-15 11:13:56.8620,-15.16,-17.13,0.5,22.88
2022-11-15 11:13:56.8710,0.23,-12.06,11.6,16.73
2022-11-15 11:13:56.8820,0.44,-9.16,25.84,27.41
2022-11-15 11:13:56.8910,-7.58,-3.93,17.51,19.48
2022-11-15 11:13:56.9020,-10.43,-1.68,4.03,11.3
2022-11-15 11:13:56.9110,-10.39,0.15,-1.81,10.54
2022-11-15 11:13:56.9220,-10.3,2.25,-1.31,10.62
2022-11-15 11:13:56.9350,-10.46,5.14,2.35,11.88
2022-11-15 11:13:56.9410,-10.35,7.92,4.3,13.72
2022-11-15 11:13:56.9510,-10.06,9.72,4.8,14.78
2022-11-15 11:13:56.9620,-9.67,11.04,4.44,15.33
2022-11-15 11:13:56.9720,-9.2,12.31,4.14,15.91
2022-11-15 11:13:56.9820,-8.89,13.82,4.68,17.08
2022-11-15 11:13:56.9920,-8.64,15.45,5.84,18.64
2022-11-15 11:13:57.0020,-7.89,16.43,5.92,19.16
2022-11-15 11:13:57.0120,-6.93,16.27,5.6,18.54
2022-11-15 11:13:57.0220,-5.97,15.47,5.64,17.51
2022-11-15 11:13:57.0360,-4.2,12.51,5.62,14.34
2022-11-15 11:13:57.0420,-2.34,7.94,5.45,9.91
2022-11-15 11:13:57.0510,-1.58,5.88,3.93,7.24
2022-11-15 11:13:57.0620,-1.48,5.7,0.79,5.94
2022-11-15 11:13:57.0720,-1.55,5.21,-0.51,5.45
2022-11-15 11:13:57.0820,-1.91,3.12,1.6,3.99
2022-11-15 11:13:57.0920,-3.76,0.22,-0.24,3.77
2022-11-15 11:13:57.1020,-6.31,-3.32,-5.11,8.77
2022-11-15 11:13:57.1120,-7.07,-9.26,-2.42,11.89
2022-11-15 11:13:57.1220,-8.46,-20.38,0.45,22.07
2022-11-15 11:13:57.1370,-10.48,-41.14,-5.55,42.81
2022-11-15 11:13:57.1420,-9.43,-65.07,-7.36,66.16
2022-11-15 11:13:57.1520,-6.91,-63.34,-1.73,63.73
2022-11-15 11:13:57.1620,-2.53,-42.01,1.83,42.12
2022-11-15 11:13:57.1730,0.94,-20.24,-1.2,20.29
2022-11-15 11:13:57.1820,3.24,-9.56,-1.91,10.27
2022-11-15 11:13:57.1920,4.34,-3.98,-3.02,6.61
2022-11-15 11:13:57.2020,4.04,-0.22,-3.7,5.48
2022-11-15 11:13:57.2120,4.08,3.38,-3.13,6.15
2022-11-15 11:13:57.2220,4.57,7.01,-1.81,8.56
2022-11-15 11:13:57.2360,4.71,9.82,-1.33,10.97
2022-11-15 11:13:57.2420,4.53,11.19,-2.22,12.27
2022-11-15 11:13:57.2520,4.54,11.38,-4.05,12.9
2022-11-15 11:13:57.2620,5.38,11.18,-6.75,14.12
2022-11-15 11:13:57.2730,6.54,10.61,-9.3,15.55
2022-11-15 11:13:57.2820,7.22,10.18,-9.84,15.89
2022-11-15 11:13:57.2930,8.78,10.62,-9.87,16.94
2022-11-15 11:13:57.3030,9.55,11.38,-8.2,16.96
2022-11-15 11:13:57.3130,9.99,12.36,-5.69,16.88
2022-11-15 11:13:57.3230,10.44,13.46,-2.62,17.23
2022-11-15 11:13:57.3370,10.76,15.06,1.36,18.55
2022-11-15 11:13:57.3420,11.05,16.61,6.02,20.83
2022-11-15 11:13:57.3520,10.81,17.07,8.35,21.86
2022-11-15 11:13:57.3630,8.52,15.97,7.7,19.67
2022-11-15 11:13:57.3730,4.57,13.24,3.55,14.44
2022-11-15 11:13:57.3830,1.32,11.44,1.1,11.56
2022-11-15 11:13:57.3930,-0.81,10.03,-0.11,10.06
2022-11-15 11:13:57.4030,-0.09,8.55,-3.15,9.11
2022-11-15 11:13:57.4130,0.64,7.56,-3.97,8.56
2022-11-15 11:13:57.4230,0.31,5.66,-0.47,5.68
2022-11-15 11:13:57.4360,1.36,2.42,5.79,6.42
2022-11-15 11:13:57.4430,3.3,0.92,-1.01,3.57
2022-11-15 11:13:57.4540,3.98,-3.96,-3.56,6.64
2022-11-15 11:13:57.4630,3.94,-13.5,-3.59,14.51
2022-11-15 11:13:57.4730,2.76,-27.23,-8.61,28.69
2022-11-15 11:13:57.4830,-1.7,-40.84,-7.99,41.64
2022-11-15 11:13:57.4930,-2.9,-36.49,-1.89,36.65
2022-11-15 11:13:57.5030,2.1,-23.29,-2.69,23.53
2022-11-15 11:13:57.5130,3.3,-15.32,-5.84,16.72
2022-11-15 11:13:57.5240,2.54,-7.31,-5.01,9.21
2022-11-15 11:13:57.5380,2.43,-0.3,-3.13,3.97
2022-11-15 11:13:57.5430,2.44,4.39,-0.57,5.05
2022-11-15 11:13:57.5530,1.31,3.03,-1.42,3.59
2022-11-15 11:13:57.5640,-0.66,-4.0,-4.49,6.04
2022-11-15 11:13:57.5730,-1.79,-9.39,-5.79,11.17
2022-11-15 11:13:57.5830,-5.24,-14.22,-5.85,16.24
2022-11-15 11:13:57.5930,-13.4,-18.81,0.0,23.09
2022-11-15 11:13:57.6040,-16.79,-17.59,2.92,24.49
2022-11-15 11:13:57.6140,-6.26,-11.03,9.14,15.63
2022-11-15 11:13:57.6240,2.5,-9.73,16.56,19.36
2022-11-15 11:13:57.6380,-3.56,-5.16,12.73,14.18
2022-11-15 11:13:57.6430,-8.28,-1.75,4.14,9.42
2022-11-15 11:13:57.6530,-9.36,-0.08,-0.93,9.4
2022-11-15 11:13:57.6640,-9.93,1.21,-1.4,10.1
2022-11-15 11:13:57.6740,-10.08,3.18,1.25,10.64
2022-11-15 11:13:57.6840,-10.05,5.61,3.46,12.01
2022-11-15 11:13:57.6940,-10.3,7.31,4.15,13.29
2022-11-15 11:13:57.7040,-10.51,8.61,4.46,14.29
2022-11-15 11:13:57.7140,-10.74,10.15,4.65,15.49
2022-11-15 11:13:57.7240,-10.7,11.64,4.7,16.49
2022-11-15 11:13:57.7380,-10.5,13.23,5.13,17.65
2022-11-15 11:13:57.7440,-9.67,14.86,5.58,18.58
2022-11-15 11:13:57.7540,-8.29,16.16,5.37,18.93
2022-11-15 11:13:57.7640,-6.95,16.53,4.84,18.57
2022-11-15 11:13:57.7740,-5.52,16.21,4.78,17.77
2022-11-15 11:13:57.7840,-3.59,14.61,4.91,15.82
2022-11-15 11:13:57.7940,-1.05,10.37,4.06,11.18
2022-11-15 11:13:57.8040,-0.14,7.23,2.48,7.64
2022-11-15 11:13:57.8140,-0.01,6.04,1.76,6.29
2022-11-15 11:13:57.8240,-0.35,4.49,2.92,5.36
2022-11-15 11:13:57.8390,-1.77,1.83,3.15,4.05
2022-11-15 11:13:57.8440,-3.97,-0.68,-2.48,4.73
2022-11-15 11:13:57.8550,-5.76,-5.71,-2.27,8.42
2022-11-15 11:13:57.8640,-7.41,-13.77,0.34,15.64
2022-11-15 11:13:57.8740,-10.02,-25.85,-1.85,27.78
2022-11-15 11:13:57.8850,-14.46,-48.0,-7.7,50.71
2022-11-15 11:13:57.8940,-15.9,-59.93,-7.5,62.45
2022-11-15 11:13:57.9050,-10.14,-51.78,-4.21,52.93
2022-11-15 11:13:57.9140,-2.67,-32.06,-1.75,32.21
2022-11-15 11:13:57.9250,0.73,-16.56,-0.57,16.58
2022-11-15 11:13:57.9370,2.37,-8.12,-0.86,8.5
2022-11-15 11:13:57.9440,2.5,-2.82,-1.05,3.91
2022-11-15 11:13:57.9550,2.46,0.84,-1.44,2.97
2022-11-15 11:13:57.9650,3.31,3.44,-2.87,5.57
2022-11-15 11:13:57.9750,4.55,5.89,-4.51,8.7
2022-11-15 11:13:57.9850,5.42,7.64,-5.18,10.7
2022-11-15 11:13:57.9950,6.04,8.58,-4.69,11.49
2022-11-15 11:13:58.0050,7.03,8.8,-5.07,12.35
2022-11-15 11:13:58.0150,8.23,8.48,-7.05,13.76
2022-11-15 11:13:58.0250,9.34,8.34,-8.17,14.95
2022-11-15 11:13:58.0390,9.93,8.48,-6.33,14.51
2022-11-15 11:13:58.0440,10.89,9.75,-4.69,15.35
2022-11-15 11:13:58.0550,11.9,11.47,-3.32,16.85
2022-11-15 11:13:58.0650,12.16,13.42,-0.72,18.12
2022-11-15 11:13:58.0750,12.64,16.01,2.85,20.59
2022-11-15 11:13:58.0850,12.35,18.21,6.75,23.01
2022-11-15 11:13:58.0950,11.65,19.0,7.31,23.45
2022-11-15 11:13:58.1050,9.91,18.42,4.84,21.46
2022-11-15 11:13:58.1150,6.32,17.78,3.6,19.21
2022-11-15 11:13:58.1260,3.2,15.05,1.04,15.42
2022-11-15 11:13:58.1400,1.64,11.28,-2.63,11.69
2022-11-15 11:13:58.1450,0.93,9.64,-3.97,10.46
2022-11-15 11:13:58.1550,0.49,8.24,-1.73,8.43
2022-11-15 11:13:58.1650,0.45,4.24,10.73,11.54
2022-11-15 11:13:58.1750,4.61,1.3,10.82,11.83
2022-11-15 11:13:58.1850,7.37,5.02,-9.31,12.89
2022-11-15 11:13:58.1950,8.04,0.99,-9.21,12.26
2022-11-15 11:13:58.2050,8.82,-12.72,-10.7,18.81
2022-11-15 11:13:58.2150,8.32,-33.39,-16.3,38.07
2022-11-15 11:13:58.2250,1.22,-47.54,-10.64,48.73
2022-11-15 11:13:58.2400,-6.4,-43.88,8.03,45.06
2022-11-15 11:13:58.2450,-1.41,-24.72,3.89,25.06
2022-11-15 11:13:58.2550,0.31,-15.05,-4.06,15.59
2022-11-15 11:13:58.2660,-0.52,-7.0,-5.31,8.8
2022-11-15 11:13:58.2750,-0.79,-0.85,-5.74,5.85
2022-11-15 11:13:58.2860,-1.48,2.62,-6.23,6.91
2022-11-15 11:13:58.2960,-2.46,2.89,-5.58,6.74
2022-11-15 11:13:58.3060,-3.89,-0.57,-4.35,5.86
2022-11-15 11:13:58.3160,-5.24,-5.67,-5.28,9.35
2022-11-15 11:13:58.3260,-9.69,-12.26,-0.85,15.65
2022-11-15 11:13:58.3410,-16.82,-18.8,8.42,26.59
2022-11-15 11:13:58.3450,-8.69,-19.49,14.89,26.02
2022-11-15 11:13:58.3560,1.17,-18.12,16.2,24.33
2022-11-15 11:13:58.3660,-5.92,-9.86,11.29,16.11
2022-11-15 11:13:58.3760,-9.81,-4.58,3.84,11.48
2022-11-15 11:13:58.3860,-11.65,-2.14,1.64,11.95
2022-11-15 11:13:58.3960,-11.95,-0.01,2.73,12.25
2022-11-15 11:13:58.4060,-11.46,2.51,2.97,12.1
2022-11-15 11:13:58.4160,-10.72,4.92,2.72,12.1
2022-11-15 11:13:58.4260,-10.37,7.43,3.73,13.29
2022-11-15 11:13:58.4400,-10.31,10.11,5.8,15.56
2022-11-15 11:13:58.4460,-10.2,12.54,6.94,17.59
2022-11-15 11:13:58.4550,-9.78,14.09,6.86,18.47
2022-11-15 11:13:58.4660,-8.73,15.47,6.76,19.0
2022-11-15 11:13:58.4760,-7.46,16.66,6.28,19.3
2022-11-15 11:13:58.4860,-6.1,17.44,5.62,19.31
2022-11-15 11:13:58.4960,-4.58,17.53,4.96,18.78
2022-11-15 11:13:58.5060,-2.33,16.15,4.11,16.82
2022-11-15 11:13:58.5160,0.06,12.02,3.27,12.45
2022-11-15 11:13:58.5260,0.81,7.97,3.57,8.77
2022-11-15 11:13:58.5390,0.21,4.24,7.09,8.26
2022-11-15 11:13:58.5460,-1.74,1.47,3.12,3.86
2022-11-15 11:13:58.5560,-3.74,-2.12,-4.44,6.18
2022-11-15 11:13:58.5670,-5.05,-8.18,-3.31,10.16
2022-11-15 11:13:58.5760,-6.55,-16.38,1.45,17.7
2022-11-15 11:13:58.5860,-9.46,-30.92,-0.95,32.34
2022-11-15 11:13:58.5970,-12.43,-56.47,-6.98,58.24
2022-11-15 11:13:58.6060,-14.3,-63.1,-9.51,65.39
2022-11-15 11:13:58.6160,-8.78,-50.27,-4.74,51.25
2022-11-15 11:13:58.6270,-1.39,-29.39,-1.02,29.44
2022-11-15 11:13:58.6410,2.4,-15.62,-0.44,15.8
2022-11-15 11:13:58.6460,4.21,-8.5,-0.7,9.51
2022-11-15 11:13:58.6560,4.42,-3.36,0.24,5.55
2022-11-15 11:13:58.6670,4.17,-0.03,-0.3,4.18
2022-11-15 11:13:58.6760,4.51,2.82,-2.3,5.79
2022-11-15 11:13:58.6870,4.64,5.87,-2.98,8.05
2022-11-15 11:13:58.6970,4.97,8.12,-2.54,9.85
2022-11-15 11:13:58.7070,5.58,8.51,-3.1,10.63
2022-11-15 11:13:58.7170,6.3,8.38,-5.06,11.64
2022-11-15 11:13:58.7270,7.27,8.15,-7.5,13.24
2022-11-15 11:13:58.7420,8.14,7.94,-9.13,14.58
2022-11-15 11:13:58.7460,8.76,8.26,-9.44,15.29
2022-11-15 11:13:58.7570,8.68,8.94,-8.11,14.86
2022-11-15 11:13:58.7670,8.87,10.46,-6.95,15.37
2022-11-15 11:13:58.7770,9.71,12.18,-5.14,16.4
